timestamp,accel_x,accel_y,accel_z,ang_vel_x,ang_vel_y,ang_vel_z
1746444509.7914116,-0.089383330514062,-0.10319672619064327,-9.836321378634853,0.008062342172621004,-0.015834688732035477,-0.10499167872657991
1746444509.8112848,0.05067043708714014,-0.20142912207257727,-9.479229549174255,0.01316359111682237,-0.009319663116314849,-0.10070898445131596
1746444509.8312323,-0.1791206720979439,0.02078765386102876,-9.778720722693636,0.0024735295036443423,-0.01740707572213993,-0.10145965549306069
1746444509.8512318,0.17565480474395653,-0.48306437347737907,-9.4455335579018,0.014909863903234889,-0.002589681029361168,-0.10049007985520106
1746444509.8712523,-0.1199360473528036,-0.10059916220563025,-9.877150837721013,0.007140393810716466,-0.010345184142381617,-0.09697088607266799
1746444509.8912928,-0.207768489876861,-0.06326580266057846,-9.841227293032212,0.0033333127946312624,-0.008253556696501487,-0.10038218402151082
1746444509.9112642,-0.46547130604180986,0.2843324141369952,-10.070995339093539,0.008318954463149612,-0.005304875979114401,-0.10013147187533751
1746444509.931281,-0.1615842790772067,-0.032841859226824754,-9.762525195049351,0.013071911656212926,-0.008653757391728554,-0.102774373987423
1746444509.9513292,-0.3660734830629757,0.1888256443813057,-10.071345139831635,0.0026256887503268486,-0.005167252588843979,-0.09863010889099572
1746444509.9713395,-0.3055766244749796,0.09644866611490609,-10.013418230488014,-0.003767873015501042,-0.011612257795641411,-0.09614478427545003
1746444509.991232,-0.14770495343125956,-0.03936845943246628,-9.732547386424471,-0.002714397080895269,-0.005130639620045242,-0.09753745338213353
1746444510.011378,0.1642300207384313,-0.3861710912698792,-9.368885553358762,0.007772352128847082,-0.001206165685919196,-0.0958097068237281
1746444510.0312114,-0.04976960015923393,-0.16649355911187594,-9.658163840517274,0.014986070306473689,0.004625840912262596,-0.09996271423890177
1746444510.0510895,-0.21486263233671377,-0.021456835346569558,-9.892213206331542,0.0005450075446376012,0.00682178872659257,-0.09482167457915978
1746444510.0712316,-0.20584016161719568,0.014558249854820987,-9.845933901951236,0.012200990971445416,0.011949218699827503,-0.09838542728822562
1746444510.0914705,-0.16595929060654685,-0.05671406299209977,-9.903918291739439,-0.012608106188543588,-0.00955440744636514,-0.0926643306874377
1746444510.1112566,-0.19367504789041307,-0.04818867612521292,-9.859032940111945,0.0012391208154238689,0.006962931175359829,-0.09483677221745397
1746444510.131213,0.08796010596384435,-0.21726747775281446,-9.394494567213075,0.007902195689781233,0.009004455955830404,-0.09733309623817206
1746444510.1511936,-0.13082978247402677,-0.0970201087986356,-9.791967083497678,-0.0038838658729066335,0.012291615294688243,-0.09301460969908852
1746444510.1713376,-0.20838252990100647,0.006539883918285569,-9.90906959755743,-0.01679746326419678,-0.0002550207943715719,-0.09121880866978332
1746444510.191293,-0.36495981924693893,0.0859189816797565,-10.054683025812711,-0.016091856390917862,0.003961485519173946,-0.09151128180897877
1746444510.2112508,-0.18999313330490286,-0.03637312454095711,-9.85382379693744,0.005018909907176241,0.018065946040518307,-0.09615964872760024
1746444510.2312026,0.20675409429191643,-0.4152153887029246,-9.314619555099164,-0.012420542784444724,-9.103091376577374e-05,-0.09093889095764367
1746444510.251208,-0.057118464403672006,-0.16122272920968564,-9.728018027923534,-0.003398179581234213,0.018020761870330592,-0.08960342218460621
1746444510.2712822,-0.29362421008409634,0.08670470468885719,-10.035449122670009,-0.0068376864706092555,0.013717998218273585,-0.09089072266049823
1746444510.2912176,-0.017735386326104302,-0.1658722861678225,-9.641564037684235,-0.013960705758199986,0.011800497948448237,-0.08852408970137078
1746444510.311232,-0.28361715256572984,0.12213939160099216,-9.926427803266833,-0.012769254015428475,0.011880247085030271,-0.09216276827125941
1746444510.3312027,-0.1982754926353958,0.01284261568689607,-9.80709586245903,-0.012708664352314596,0.010688727609488474,-0.09033209788921671
1746444510.351171,-0.06903961067588701,-0.12570406993135855,-9.872443462962337,-0.012813410373759802,0.02000461089987238,-0.08660748178106081
1746444510.3712964,-0.1825892042689379,0.06801857067972658,-9.828256079396635,-0.007776189861109196,0.020097934334402167,-0.09195546614092823
1746444510.3913848,-0.12047028862561565,-0.029303953051281865,-9.88688936950383,-0.005057830787887218,0.02696280490577154,-0.08840326560185581
1746444510.411214,-0.10077132866801528,-0.07935147114211201,-9.799736668005664,-0.005557966955455464,0.02545257521900928,-0.08847083409155529
1746444510.431214,-0.17256936278065343,-0.033864984073648935,-9.915587304999207,-0.015678136738363203,0.01745615995672794,-0.0854804680798849
1746444510.451095,0.15272316301445055,-0.2977139446264716,-9.549593746132029,-0.0066305926858906215,0.02676606626730231,-0.08457348072875234
1746444510.4713163,-0.26991996149376535,0.1099190693313591,-10.06094835007187,-0.006241331140550355,0.026446173640745092,-0.08384364109836731
1746444510.49122,0.10837666651837038,-0.3156449809537093,-9.771048841927712,-0.006502961063374316,0.027797460623801788,-0.08423943799172268
1746444510.5111814,-0.3419986587626805,0.18248538394349076,-10.130530363571886,-0.012613035593104817,0.020674770772026792,-0.0870812183175996
1746444510.5311863,-0.16307764623821974,0.09397630780664785,-9.827913790616533,-0.008304571796046798,0.020461506060250566,-0.08538728336213268
1746444510.551079,-0.09817449840259765,-0.0717069894338197,-9.991545920693666,-0.010151356870363571,0.024897792735218915,-0.08272026189337546
1746444510.571264,-0.3497963504918301,0.19317074631810832,-10.240343783544418,0.004779628397033344,0.036771063497575154,-0.08536255663624995
1746444510.591239,-0.10557022484578646,-0.013277610544442355,-9.877050463015648,-0.001494181821383063,0.031789916225923226,-0.08484966875177911
1746444510.6112163,-0.24999013787949256,0.14190786933936803,-10.040766452283822,-0.011127930782311118,0.023593538735247253,-0.08282744328790419
1746444510.6312172,-0.23784223194597498,0.14812019755864647,-10.091766236941208,-0.008173801695874089,0.028032693190275296,-0.08241592314327492
1746444510.6510727,0.23605790726077164,-0.2807548029658874,-9.485433310707831,0.003952534958545734,0.03664031916884427,-0.08248993236002489
1746444510.6712673,0.23802180203757137,-0.26678957903315764,-9.418343388289255,-0.004514290607564007,0.02848073428532278,-0.08200605749592685
1746444510.6913254,-0.2007227412484605,0.14205954746020744,-9.977051314053877,-0.0037341413074787905,0.028276850009082657,-0.08045847661996644
1746444510.711247,-0.015409736283024965,-0.07306133760792646,-9.75188536890581,-0.017084305769081792,0.018183533086147438,-0.07964815586863751
1746444510.7313137,-0.3054883457715172,0.30669016349498024,-10.027257141611887,-0.004238936550846038,0.024587472963780114,-0.08114718178134465
1746444510.7511969,0.19294719554221745,-0.15768718946312024,-9.522001440189657,-0.0017774025484592773,0.02855111745844684,-0.07764044026093475
1746444510.7712393,-0.018895836395231264,0.025860188817351307,-9.806940442951085,0.0014220354759518054,0.03072522477903722,-0.0796889940839776
1746444510.791213,-0.002008012414059686,-0.0469568411671945,-9.77995927118113,0.0066128481558855165,0.030350759846249166,-0.08073444722635137
1746444510.811227,-0.2862776435943025,0.2650793707642992,-10.094572466729423,0.00454363910053845,0.03659303828369076,-0.07844275057114879
1746444510.8312495,0.1568688647135878,-0.15056139938632151,-9.574880349727115,-0.00301892678980746,0.024105742341150496,-0.07645211099192097
1746444510.851186,0.07589406017510525,-0.016568796657084366,-9.582382373946169,0.015983844931618335,0.042250429295246535,-0.08150815769150271
1746444510.8713276,0.2436195845387792,-0.1981901605016477,-9.55294088136099,0.002421704038219315,0.030527767360187044,-0.07573783807956756
1746444510.8913116,0.11247376055214513,-0.1354198632405412,-9.678579476801271,0.006055714172656545,0.029646707784355637,-0.0776557147574044
1746444510.9114957,-0.010526273575507051,0.03263928074957209,-9.813248398759425,-0.004383655783628104,0.024406154204684307,-0.07522847025132122
1746444510.9312038,0.12327499037399613,-0.17895996941767728,-9.702630099162198,0.013977636907944005,0.04103494992785826,-0.08357085745896198
1746444510.9510953,0.04414425046003233,0.013375478340518467,-9.778058894191368,-0.005999720365257929,0.022207051670678404,-0.07285574932341951
1746444510.9713044,0.1716326757141587,-0.0784494068387663,-9.585748382263095,0.010347122770149255,0.035662937355327,-0.07147558237371929
1746444510.9912121,0.05573525096836765,-0.01695128676184252,-9.826636595709523,0.01313532970143191,0.03618892360114889,-0.07575918122020946
1746444511.011184,-0.060617674411363016,0.11349836028120107,-9.88274535842448,0.016525737049010655,0.04034654100456929,-0.07631949946425036
1746444511.0312185,0.07629916895048018,-0.022780854433395326,-9.767328386774379,0.008505670019260964,0.03690907914945165,-0.07441866187396878
1746444511.0510802,-0.12964267986358485,0.20426281810618171,-10.030196644049134,0.015174086768486895,0.030867343986158972,-0.07078188603896797
1746444511.0712492,-0.1501963146724944,0.16296357398877243,-10.058559246537696,0.005852314268759023,0.027573420478937582,-0.0691733462137398
1746444511.0912137,0.06814575119176414,-0.04686869695141114,-9.883164224680787,0.003408079084257617,0.02779296938155091,-0.07084278703649538
1746444511.1112504,0.0041860331088791475,0.047919261598593735,-9.905093650049851,0.014266787261267698,0.034564396775738276,-0.07665180796599272
1746444511.1315584,0.08559958685217149,-0.05327513642422687,-9.765080375020322,-0.004488296879405653,0.0200324964514539,-0.07019929005523978
1746444511.151104,0.0709541829991269,-0.020071093653349043,-9.933316415281523,0.0009153990797378536,0.020285181935482736,-0.06443496340407912
1746444511.1712832,0.11410940817980754,-0.05591921618849903,-9.86035129873903,0.000372989938550988,0.023791483598718383,-0.0665713734742164
1746444511.1912587,0.06105149192663551,0.01718399001621194,-9.88255543797926,-0.002783573403875682,0.015545608737337851,-0.0698159637126076
1746444511.2112243,0.023192566966088762,0.031108594253425288,-9.877748101703549,0.002470626712230214,0.023072327999925667,-0.071050380260001
1746444511.231192,-0.02415248337088212,0.14466669658722003,-9.962691860339326,0.0027824691172742095,0.023023028723530913,-0.06797572368002879
1746444511.2512615,0.2520278886786397,-0.19731693557153396,-9.722559519177613,-0.002642116398161749,0.013783776604282556,-0.06631955456056869
1746444511.2712765,-0.08605456590704658,0.13621210660343003,-10.05589900130764,-0.005283162898029057,0.013400910136148273,-0.06452491997286326
1746444511.2912374,-0.20292909923536534,0.2922278824051561,-10.233916327065398,-2.6599026531565553e-07,0.01483633685912581,-0.06641626842842843
1746444511.31123,0.026034905355134613,0.03458287115917828,-9.93408203081139,-0.006954190790193232,0.009384380224800652,-0.06497167876217351
1746444511.3312256,-0.30090847472211635,0.40968676878326427,-10.339862776327756,0.0041574409387487455,0.019290613418090366,-0.06501662685083541
1746444511.3511581,0.5005623388850016,-0.3959775897352925,-9.387373806260804,-0.011467106499600088,0.008085007976010949,-0.060942395395804504
1746444511.3712492,0.11792400013593633,0.062056431102189155,-9.727428045564546,0.010424428715005363,0.019957232919346483,-0.06452157275741079
1746444511.39127,0.18623718074680548,-0.04750318643679162,-9.693627392573228,-0.010999131411708888,0.004931142464655662,-0.0635118696232338
1746444511.4112384,0.2718874132592062,-0.14347329008111312,-9.62187354771032,0.00825540256754968,0.01662365907736636,-0.0649694455243187
1746444511.4312203,0.019627889800217346,0.09450060125367885,-9.908358901217708,-0.013036865017226805,0.001278792884369273,-0.06065410766195698
1746444511.4511175,0.21386267466437753,-0.08062845551441256,-9.747176347522363,-0.007690867181030607,0.005993541719698681,-0.060813486953473425
1746444511.4712956,-0.08633815789409754,0.1620175696882901,-10.140412720687584,0.001230581925514635,0.0088021094673907,-0.05931800544732181
1746444511.4912503,-0.11663948950599481,0.2332191816416369,-10.202824537195443,-0.0032264993370601626,0.005853358920552895,-0.06140539024536175
1746444511.511181,0.2443490413880489,-0.06350416419014009,-9.662056480880715,-0.0009014271006145325,0.008397438752445259,-0.06045428563667684
1746444511.5312846,-0.17994782934796527,0.27780936231071995,-10.317940742754509,-0.00269424339835844,0.005250157417257485,-0.06139795924164613
1746444511.551214,0.3158459444563011,-0.138835779625352,-9.55287878458122,0.009078749779092263,0.010868966638260775,-0.0634646431867369
1746444511.5713823,0.06151970576178159,0.11664862081210112,-9.876068677460212,0.003960970172049608,0.004361057630210203,-0.0607202526442084
1746444511.591251,0.3497342315580141,-0.2091294253745653,-9.581674291928485,0.003186086217880815,0.004221050199766303,-0.0600799772250743
1746444511.6112223,0.21488836364264563,-0.0681792550266232,-9.671714619697093,-0.0002813635129729963,0.0036890241392001583,-0.06017254711185741
1746444511.6311996,0.3143258853502793,-0.14431260526992568,-9.57150014015441,-0.005126919112045705,0.00044668917870899455,-0.05801577962835323
1746444511.6510723,0.2312756830487686,-0.04859133211318973,-9.653968944235686,-0.0021744999984448002,-0.003271729374436056,-0.05641104234177082
1746444511.671265,0.28940477241011864,-0.12163929032742102,-9.610531684450669,0.006458637405450512,0.007835628602923413,-0.05861318642623101
1746444511.691256,-0.035826925818759764,0.15462280318404314,-10.063985025745165,0.007417166481166053,0.0029984158148541867,-0.0584195847117183
1746444511.7113674,0.1287773514709033,0.03338116983688992,-9.854110392323138,0.009115642933372123,0.00664335893495455,-0.0613874372082937
1746444511.7312374,0.25083286135939276,-0.19410393033121925,-9.812831775472478,-0.010293843184844154,-0.010073424283972223,-0.05563302523439531
1746444511.7510655,-0.06389878864745949,0.23275905245404557,-10.005319337359731,-0.007853673618753904,-0.014272586074575301,-0.05315690351689052
1746444511.7713442,0.11633472704631909,-0.06507861272996593,-9.950808630287307,0.001757143725081149,-0.007475888027353028,-0.052614113653180306
1746444511.7912517,0.02261380855992494,0.0775190835768278,-9.999619900415095,0.0015620952499742124,-0.009991836307965147,-0.05365555596065516
1746444511.8113863,0.06368811111389577,0.04201980664773874,-9.918246218942341,-0.0011220574348793499,-0.007045648877236047,-0.0562808035899901
1746444511.8312821,-0.051491729542606335,0.21367859330279987,-10.00688322569939,-0.00014053645777696772,-0.011570173101016847,-0.05552487144137436
1746444511.8511798,-0.03511296290020635,0.1979165417133111,-9.88508737884338,0.004847376337554193,-0.012643737086434192,-0.05367578180468867
1746444511.871228,-0.009768214548007859,0.04603771695875404,-10.058788026589394,-0.012638699379544892,-0.02783259766251019,-0.04759471312073925
1746444511.891275,0.12395620146672107,-0.016900499790072614,-9.857025630513846,-0.005663302904896643,-0.017489869028545983,-0.05155756387763942
1746444511.9112551,0.17921595731983028,-0.05450685881363368,-9.760305927135,0.0010818941890735818,-0.018960201972628724,-0.05105214767466522
1746444511.9312117,0.03658339976927019,0.1649553272446201,-9.838881053388096,-0.009191589582896497,-0.022084091715487357,-0.04869219960147234
1746444511.9511106,-0.03671683366708797,0.14296588726740594,-10.002072964592099,0.0006696012484637024,-0.018796026300079406,-0.04929619106532116
1746444511.9712892,0.033762441012487834,0.08138246905275102,-9.928291138779674,0.001914063509234679,-0.017109861767913733,-0.04947115669360298
1746444511.991231,0.10174981720272927,0.018834831139883382,-9.835063724759545,-0.004904379673554908,-0.024908541856255555,-0.04781108728771633
1746444512.0112395,0.13924415932165213,-0.017749504155037416,-9.812491689772564,-0.008467280162798333,-0.026971535185527397,-0.0494926361796901
1746444512.0312743,0.29479150093891776,-0.1650461783387206,-9.5036204523547,0.014759011096139151,-0.009893640589053428,-0.05049915990658015
1746444512.0511055,0.11713204580080161,-0.015914389567855142,-9.711374618147339,0.0010723306908320736,-0.02509377923315347,-0.04788635354760719
1746444512.071215,0.04017225604412843,0.05260290389586078,-9.908588869483339,-0.0018667931521103116,-0.024182490379407458,-0.045079152437298965
1746444512.0912008,0.2373749920980074,-0.16138316288487425,-9.589885363131563,0.0016511648570912123,-0.022267230378727274,-0.04863361508589916
1746444512.1112177,0.01480131666481721,0.05086192253580697,-9.928967194327617,0.0032576852581805062,-0.021801677372888136,-0.04792980835211602
1746444512.13121,0.07140788832883994,0.0066625597260755315,-9.781095240761765,0.003665934104090985,-0.02289778425282092,-0.04883794337451423
1746444512.1510835,0.07966885913851114,-0.012875578063237827,-9.775581293218442,0.016656172675960035,-0.014952857882489314,-0.04561762793720921
1746444512.1712997,-0.062101039149046355,0.12320819878157606,-9.891564875848333,-0.00026422086317116596,-0.028445646348315513,-0.04353942576306872
1746444512.191342,-0.021484708893750218,0.0771067895861984,-9.996094546083263,0.003958360503103747,-0.026872486442994822,-0.04426069640820664
1746444512.211255,-0.0508537605576335,0.062328365554819576,-9.943226101477523,0.0009394417153586933,-0.025553793910567894,-0.04155880474775384
1746444512.2314553,-0.014721300313161621,0.07394255355842132,-9.94419932195376,-0.0024167460348906216,-0.028876546475744537,-0.04245850359421512
1746444512.2511587,-0.009206394961949305,0.01598412888605913,-9.82888217291072,0.001663253928287102,-0.02814141081177208,-0.042877282048541146
1746444512.2713103,0.004291144789736575,0.009114038949191711,-9.850193863594114,0.0034576613850987935,-0.02564604357863909,-0.04282645070064816
1746444512.2913988,0.06423939447867738,0.008397878920784089,-9.73761313586759,0.0038282999337052,-0.02518464237117082,-0.04205328728437069
1746444512.3112633,0.27266839093286094,-0.30861769546277,-9.594822655395179,0.008159010613250098,-0.021126880123043076,-0.04335049723812964
1746444512.3312707,0.0647358227259753,-0.032113918728591914,-9.721835340758638,0.010314437773844175,-0.02105769542810889,-0.04303840421239635
1746444512.3511977,-0.027862232374389912,0.05646736326518083,-9.794344217380843,-0.007067710768304188,-0.033957902604463616,-0.04029830274052
1746444512.371236,-0.04954112686252509,0.01661538939893852,-9.883206241745924,-0.009725980432990795,-0.03561884767188111,-0.03923233363032613
1746444512.3911736,0.1443434388460625,-0.14484618779584468,-9.647668291254462,0.010282963429204543,-0.020027438292402666,-0.042750676196310684
1746444512.4112427,0.06389521252518952,-0.07431694395571797,-9.700677927454466,0.008575437621695468,-0.021804023742524332,-0.04170339977679185
1746444512.4312112,-0.0014913433912939122,-0.0219481936428114,-9.881253194595303,0.0003820001666935914,-0.02977772333147058,-0.038328636440747674
1746444512.451122,0.13326882565368192,-0.19104666390812725,-9.617587466904563,-0.0020285234464257956,-0.02904331635243472,-0.03766400712935518
1746444512.4713345,-0.007039204002181835,-0.08333328026687642,-9.872933518537954,-0.009148010814977356,-0.033890997256503054,-0.03604606317418855
1746444512.491232,-0.08631911018466353,-0.0594012084352636,-10.026235256694005,-0.003294207823301869,-0.0254874904574171,-0.037710932604713476
1746444512.5112374,-0.02216359397598921,0.03846936983122172,-9.710418643091716,-0.0006187799680055759,-0.027030960305220397,-0.03746175969747614
1746444512.5312078,0.24244166457842573,-0.24487181634578437,-9.448995771735351,0.005749198555068802,-0.02594440212921374,-0.038796716519682965
1746444512.5510738,0.013888742303777908,0.010495193681825932,-9.616505907984523,-0.002578488437445162,-0.025491302051160354,-0.0340663602220312
1746444512.5711987,-0.15412965088485436,0.11157886660621191,-9.9710965461018,-0.011139043400677721,-0.030338345678152266,-0.03455068308551608
1746444512.591216,-0.23289633286939776,0.11520502242684774,-10.061307157250662,-0.002677395680214024,-0.025978624592138656,-0.034405900098390396
1746444512.6112015,-0.13542579016162015,0.06546946552778532,-9.980658195272138,-0.0009714585508509647,-0.02655541490397007,-0.03816315352982103
1746444512.6312103,0.04270000406254051,-0.03742854265776267,-9.611359224469528,-0.01197260695458102,-0.035509378366611256,-0.03326526972201651
1746444512.651084,-0.08976388413199195,0.0567879333082036,-9.76864345882585,0.010720064006809065,-0.01281622042297063,-0.03633497047429628
1746444512.6712723,0.08184062110383564,-0.11553158545108665,-9.513870130549009,0.0026276633315447263,-0.01884731775111068,-0.033843302636974604
1746444512.691334,-0.16920113575646106,0.025084911773103055,-9.88134328495044,-0.013405610766483951,-0.029240823550236817,-0.030776375938663
1746444512.7112408,0.04618292692356085,-0.21285072426552798,-9.691426764096674,0.0026551894433256137,-0.019313618175820967,-0.03399931571736162
1746444512.7312434,-0.10878163237414923,0.051167392559638904,-9.78363363537219,-0.006359914827482118,-0.024874251259150146,-0.031021819132339062
1746444512.7511866,-0.23199623870314587,0.09116909673137247,-9.961734807061045,-0.013442467382393205,-0.024660455959290555,-0.029973029150549186
1746444512.7712293,-0.048454602493437374,-0.017904048055637462,-9.720203027703947,0.0030177232497963337,-0.014723769648646074,-0.03232622133961107
1746444512.791264,-0.03826506601015851,-0.07543555271882335,-9.728440954805865,-0.008909577739996562,-0.025474582956282067,-0.029839163423067847
1746444512.8112726,-0.22945680771855698,0.09521688463828562,-9.991354590455288,-0.004679839983852098,-0.01809494901787381,-0.02782946581652209
1746444512.8313336,0.020709486637462263,-0.12199102491085564,-9.572639134742156,-0.0033204046596415166,-0.018170901502606404,-0.029231896213222735
1746444512.8512428,-0.2437118631105623,0.11007583606980718,-10.019827919865065,-0.00342563433505208,-0.014835527522021497,-0.02730411357756152
1746444512.8713522,0.1280881220407522,-0.20896317931774164,-9.49705510099747,-0.006736475005831737,-0.019062740736459013,-0.02547760612573865
1746444512.891348,-0.3377601352114636,0.26832309687466727,-9.981013102528033,-0.006074929639464377,-0.013413217604469969,-0.026725431552335595
1746444512.9112318,-0.13229928029688776,-0.05246974541821835,-9.952019200001871,5.80562778934601e-05,-0.008633920104632826,-0.030626710939683405
1746444512.931268,-0.22875119185098647,0.06863182402774105,-10.056892333803013,-0.0015017402347867808,-0.01527255430932625,-0.030353922924709485
1746444512.9511256,-0.1402908579328869,0.07483970184893905,-9.746657529410891,-0.006943921330296515,-0.013202621832448932,-0.026424549519593922
1746444512.9713173,-0.17529013221580392,0.09344261781123417,-9.82451825996901,-0.002035440443542226,-0.010850242743290774,-0.027750108191281254
1746444512.9912102,-0.14578585050361814,0.0034548028019475057,-9.82248350076503,-0.0019874121768152352,-0.009745659323137645,-0.02728511773828067
1746444513.0112033,-0.19471883160675413,0.10488288096162499,-9.888043647140174,-0.0005996820090277221,-0.006567894204299644,-0.027090920721159754
1746444513.0312524,-0.1117222513251818,0.03137172272387527,-9.789068806064918,-0.010737601050019759,-0.014189644604299213,-0.02651282613499479
1746444513.051122,-0.2256296315691822,0.07333949883826872,-9.935086924047981,-0.00760845923519536,-0.010688860379911269,-0.024039754563508275
1746444513.0712273,-0.2675154086049095,0.16146437336363928,-9.897118598335885,-0.00023738769070514963,-0.0024737241309094014,-0.02581157270628015
1746444513.0912488,-0.22558011312508153,0.13440955780409802,-9.875309591955089,-0.010915025185865762,-0.015456292284854312,-0.023908816972557558
1746444513.1111937,-0.4044294171341204,0.2744631529451338,-10.096240914720134,-0.004012467608344266,-0.00524863379772268,-0.02366884250238162
1746444513.1311967,-0.15874104382651338,-0.009608652243394005,-9.972143819125108,0.007014398034240648,0.001069367830401533,-0.026137108707007892
1746444513.1510675,-0.20076950028305998,0.07097188048420143,-9.968714494546226,-0.010354538065835205,-0.008641985160230254,-0.023552453050774136
1746444513.1712909,-0.37372559887241424,0.19774118123144946,-10.148542356584775,-0.004322135417096474,-0.003606328190978546,-0.021275542363124615
1746444513.1913247,0.006100784282984523,-0.15952921224361682,-9.710597143723703,-0.0040580293378163785,-0.0014987519397228004,-0.021149458986065524
1746444513.2112327,-0.04208205921688973,-0.09193425394998768,-9.769211535768518,0.008316432538042685,0.008795279150157757,-0.029225617132174656
1746444513.2312596,-0.08931553052678948,0.007008344410550963,-9.73976694660897,-0.009313311267823834,-0.0072849134219529444,-0.02245862402975308
1746444513.2510784,-0.1897173102185597,0.01634627483940153,-9.942545735930555,0.004234827020475044,0.009326847511142555,-0.02176943105724615
1746444513.2712643,-0.0729241003137554,-0.025758473609011415,-9.724138474115328,0.006989906411881836,0.010786639447115269,-0.022477310953578453
1746444513.2913742,-0.06545598800831641,-0.08739850527155577,-9.73259704012554,0.0008038006271093065,0.001906560590656566,-0.02104394449781779
1746444513.3113425,-0.2225083086378058,0.07608634840032641,-9.999036488241597,0.007087694233013699,0.011355741090050667,-0.02362535962791315
1746444513.3311293,-0.09760560576545674,-0.02603362773129348,-9.773496206638177,0.0076144759518171085,0.013571537280318954,-0.02262962557855343
1746444513.3512206,0.020662986258793606,-0.15049646048234092,-9.677723184458412,0.003063009542599764,0.012393002269020858,-0.021726425409439858
1746444513.3715858,-0.027801309414374656,-0.09271041561814307,-9.763551641653923,-0.009943676200302906,-0.0005318716247000015,-0.017071120038161303
1746444513.3913424,-0.12357958833515968,0.012039929726296781,-9.809141415243014,0.012379464808688477,0.021906895606419917,-0.022217944404008885
1746444513.4112606,-0.01978181135636342,-0.09389752177180831,-9.683702140489784,-0.0002639361150293764,0.011779553028300882,-0.016948639738075113
1746444513.431274,0.12070585342928139,-0.2191567100508619,-9.535208324778049,-0.0002686298170888617,0.009541321309512796,-0.020287954522493795
1746444513.451149,-0.07975792326816888,-0.03782788355019853,-9.847133345548283,0.0020373356945497167,0.01740470524143691,-0.017634212585027825
1746444513.4713323,-0.03930798886181354,-0.015166342590021059,-9.716119630797959,0.0003026970389124531,0.013205976649645335,-0.01640020731742694
1746444513.4912126,-0.40784016989828653,0.2936486885443657,-10.128151252504974,0.0050362812581987515,0.018701699068288148,-0.018536247997195762
1746444513.5112193,-0.09654661493276205,-0.01987497516511231,-9.810231046900983,0.0012388784579023286,0.0191524720515348,-0.01693479276095914
1746444513.5314152,-0.0036923523307665074,-0.1367391908248778,-9.785443617969397,0.0006020119523631213,0.011140081603139198,-0.016333943997895038
1746444513.5511045,-0.030677173676242425,-0.004264638760740434,-9.744050684111867,0.0007717164575260619,0.02031999323779642,-0.015706637940235274
1746444513.5712178,-0.19931660966593176,0.14018826227671682,-9.882500073548595,-0.01698112766878195,0.0068767076387792475,-0.012131335775253745
1746444513.5917065,-0.21692912978375864,0.1612318645645734,-9.963304222167322,-0.00022297436639502665,0.018146229761018914,-0.016544416777246888
1746444513.6113164,-0.23732504527579446,0.1313304449646988,-10.073117390487804,-0.003205310119848666,0.018106713544091126,-0.013803700444720736
1746444513.631258,-0.19524055761606804,0.08151834348329617,-10.044582501355581,-0.0029462486764905106,0.015628652957022295,-0.013160339945661365
1746444513.6511176,-0.11820982000959275,0.04801219106147377,-9.928935027853528,-0.009160398924763979,0.019427191761638766,-0.012748704071816346
1746444513.6712875,-0.09289676037874336,0.10189106503189485,-9.713320177783991,-0.004034871193060848,0.020381227063797882,-0.010582024938496018
1746444513.6913226,-0.034771236787857096,0.013358077302112529,-9.804373992206067,-0.0036850678736314807,0.021324416125313106,-0.010890969910160182
1746444513.7113109,0.17795860900129612,-0.19004766920546368,-9.459326828742237,-0.0047795158187258656,0.020978327953857016,-0.010325152093523969
1746444513.7313058,0.006999446059086881,-0.07886025872106966,-9.726211107814263,0.005928620745608065,0.03066706809496357,-0.016204621146923094
1746444513.7511148,-0.1274310281971654,0.07546898963470022,-9.98990728951246,0.0022494636782372742,0.02345072941887417,-0.01159066502127234
1746444513.7714946,-0.2502229742322747,0.24345845352174744,-10.023388237913327,-0.010482096282823239,0.016898765103742323,-0.00843936266509709
1746444513.7914922,-0.03037492725415344,0.061659974113396895,-9.662826940515469,0.003954049009995668,0.023339755465689956,-0.014485950533227383
1746444513.81156,-0.1348834226910432,0.14493627105066503,-9.843825849335293,-0.0026553495466613646,0.02164298095953588,-0.01249491677442849
1746444513.831544,-0.16042070278940254,0.08713101965610368,-10.014923311430955,0.020545116986414487,0.03985200404542154,-0.0177563913653932
1746444513.851206,0.305892534198397,-0.3504468262757159,-9.502901129432034,-0.0038634049164521555,0.018653969081234185,-0.011061656198701919
1746444513.8712394,-0.0842444591856625,0.08791415015392662,-9.832459494326866,-0.0052609151651282935,0.019761517479307267,-0.009864571726869727
1746444513.8912354,-0.1337776356757687,0.09459141442503699,-9.963522996331513,0.0018347321149554336,0.02647973123927541,-0.01148193455561456
1746444513.9112675,-0.17438921108683944,0.13799410575102627,-10.020619893927154,0.006357183867579036,0.023586336370790103,-0.011979024138920862
1746444513.9312558,-0.007389051038223579,0.053010463212613386,-9.742844569473977,-0.0048550719861505855,0.021892857788001405,-0.009722594433460225
1746444513.951166,0.055897623719592004,-0.006761080101676274,-9.784840350496275,0.004386503062439397,0.030646465902139455,-0.013762497383045604
1746444513.971364,-0.1410981352106585,0.14340078130548273,-10.056995866530194,-0.0021245206117665393,0.01883217011607661,-0.009959606542839835
1746444513.991231,-0.39447269367162885,0.43496727178337724,-10.240246600050183,0.007487742502322641,0.029250689957379943,-0.009972253038829898
1746444514.0112197,0.12887790949534822,-0.1472402390217706,-9.750503870710334,-0.008229486524655548,0.020791130535070375,-0.013015783424102017
1746444514.0312014,0.11086587763441237,-0.09489836050430331,-9.682311140444805,0.004995661785064601,0.02929680549154765,-0.011087535328226887
1746444514.0511084,-0.060714318693059016,0.20757179303868564,-9.85806128018786,0.012762768205208915,0.030547674179314588,-0.010828830511048528
1746444514.07121,-0.20668519741017616,0.13947207373588405,-10.210463843642115,0.007730339186030598,0.030387841973708557,-0.011546589289426723
1746444514.0911973,0.1264093574866996,-0.08388890014816776,-9.612806622043456,-0.0018806126323269497,0.022672529099971216,-0.00745539274960755
1746444514.111172,0.02031877516609139,-0.005456917284758949,-9.901218053522067,-0.010422682432073666,0.01806861104145733,-0.007600140377509992
1746444514.1311817,-0.044581729838559486,0.060493414597455095,-10.011872407826557,-0.006609606472158105,0.01669922309501498,-0.0055900205843673265
1746444514.1510699,0.03701752010240883,0.012653172858711452,-9.893159836032178,-0.009193747259647651,0.013743243051370018,-0.0028620979438939344
1746444514.1712754,0.264314455119272,-0.14577057156896234,-9.43269272705542,-0.0011715007616287356,0.020108802483892668,-0.006441646546118601
1746444514.1913354,0.09574118371242163,0.033851971421773,-9.718153236752064,0.008507593031107673,0.022497947547831305,-0.012455463127211013
1746444514.2112458,-0.005229031473736975,0.12939675725451838,-9.814130197354197,0.003632481045442602,0.026583014682004955,-0.008330605835080046
1746444514.2312095,-0.006820243860132233,0.09266304306257464,-9.805759897892194,-0.00750238182699476,0.012156372485525565,-0.00740533150332803
1746444514.2510705,0.2869349385648611,-0.16793555009617978,-9.631900217696623,-0.0022907077121747414,0.017151183494551657,-0.004165378625398469
1746444514.2712135,0.198083143399025,-0.046603345941791816,-9.605185592377552,0.009318018485181783,0.02492630997865687,-0.00633865223682605
1746444514.2912056,0.14064387214062463,-0.04785748031296315,-9.757069170013104,0.00017677838703969082,0.015104824524928034,-0.005352992816351248
1746444514.3112178,0.010067202496550937,0.08096369141706204,-10.028719859989971,-0.010870073512287994,0.00974850502224931,-0.002240210259122273
1746444514.3311918,0.053988998483933445,0.07476657176490356,-9.804174572612883,0.007017927109934464,0.024460915972323312,-0.006170400324460344
1746444514.3511937,0.13224426546962006,-0.004984120470522428,-9.801086138641349,0.00705619922504786,0.01915096474515835,-0.006522030097091283
1746444514.3712373,-0.005494716328135099,0.14656287793877237,-9.96050834460635,0.004192055768832957,0.013119915261912862,-0.004129443188074301
1746444514.3911927,0.10174873715155969,0.04430461007967504,-9.727750099566292,-0.016045945972015276,0.0034301037811008215,-0.0016800216557809671
1746444514.4112077,-0.053909359214778865,0.1151683608792132,-10.142427865278213,0.011125012558269854,0.02094308347552229,-0.005717697245617726
1746444514.4312289,0.1802482100516917,-0.09593028185879555,-9.763265598464075,-0.003638304867455467,0.014062348357984948,0.0016108283500267636
1746444514.4511602,0.11916981161358864,0.03933555404451523,-9.847651744634422,-0.0029702646744884146,0.00731162397786321,0.0006587301962839784
1746444514.4713268,0.09277305204234745,0.09388306631828094,-9.755159685028074,9.218387296489093e-05,0.0074764888057871435,-0.0026470980231477178
1746444514.4912179,-0.1344882140398861,0.26740345177444214,-10.133337130455718,0.003121749947559138,0.01526361854514463,-0.0031207480061544936
1746444514.5112333,0.018155901980236408,0.15228863708800577,-9.902010882761559,0.00699417310519918,0.01466352170239224,-0.006445577300154534
1746444514.5312197,-0.0029896341535171067,0.054038648330067496,-10.016843557546876,-0.0002012359014544312,0.00907756530755194,-0.003804158531867793
1746444514.5511622,-0.04297721996467643,0.16898659385101913,-9.996308155190935,0.0025048464763646645,0.004459972065516541,-0.00221775324352728
1746444514.5716112,0.4700014739001261,-0.30987532659662503,-9.418971686299967,-0.0013748098116932476,0.0042582467087147035,-0.003349752714198824
1746444514.5913424,-0.2673644576812795,0.3751134489998923,-10.336943680809778,0.0060347483955319765,0.007423852240038134,-0.0019848019608610253
1746444514.6112556,0.2611998551754777,-0.09842948806718302,-9.521538479003851,-0.0006961980012826991,0.00577752961938888,-0.000916805294311587
1746444514.6311853,-0.152534131227503,0.29710131346976854,-10.162928964354291,0.00029465132004094226,0.004583561579347185,-0.001264697478381229
1746444514.6510336,0.11816440846577081,-0.025382273818070362,-9.856408553558268,-6.89808144090664e-05,-3.327338147884548e-05,-0.0023050987722712944
1746444514.6712403,-0.025424934208831157,0.19768788331634526,-10.054524767482517,0.0038055726391546443,0.0008023547592616406,-0.00038252039850394926
1746444514.691323,0.4702171073845152,-0.3154120244148477,-9.326661458927482,0.0059625123015167505,0.0015685453469899257,-0.0021017231681824
1746444514.711222,0.17613515737308796,-0.031723878921143464,-9.679197278630973,0.002370759498439903,0.0033700970002581796,-0.001114857415843215
1746444514.7312152,0.11828873938361673,0.04961744136705554,-9.710833067230993,0.001329297031632375,-0.0016832563215434394,-0.0016634082552144439
1746444514.7510648,0.018943608544095505,0.10415580935344107,-9.887928399248565,0.006367338707920557,-0.0011802410753927986,-0.003242823145784979
1746444514.7712338,0.29788802951460813,-0.11454595374951458,-9.542246587420003,-0.0062877638120567144,-0.013775348702055417,0.001603711767407984
1746444514.7912035,-0.12833529218716705,0.2429004904259815,-10.128919942574706,-0.006379646600556159,-0.01043861629235433,0.001815623277605571
1746444514.8112068,0.3788822182694855,-0.27166751030088065,-9.499796834663588,-0.0020346809839857016,-0.004419844950301013,-0.0005165569423643942
1746444514.831221,0.009367175254846954,0.09773678467673731,-10.062297460242497,0.0039589528623639415,-0.003541963415974522,0.002447030274850854
1746444514.8510659,0.20652454250640623,-0.12483606450801471,-9.769433565720032,-0.0010818246931618542,-0.0088787385023041,0.0027780978617089605
1746444514.8712218,-0.04499338073828431,0.17762978038064456,-9.932911710309686,-0.007158808388758015,-0.009043182735481258,0.0030145822003975293
1746444514.8912225,0.177895840709502,-0.025752515958884514,-9.712129965820337,0.009623787782274174,-0.0009856809417747676,0.0014783169963384613
1746444514.9112368,0.002670613728588331,0.14530738548015532,-9.89969974790557,-1.881375407914365e-05,-0.01177055758788394,0.002060504180131175
1746444514.931243,0.043989771372848485,0.10277029687593861,-9.83530286754407,-0.003816750501591257,-0.013403047459929728,0.0012846261145996072
1746444514.95108,0.18150931056977287,-0.04299813130802149,-9.718318718099196,0.002450967795114443,-0.012577791084898338,-9.254082190956548e-05
1746444514.9712055,-0.11699063749347832,0.22029198077269077,-10.055254952357103,-0.015784932272204556,-0.025625607930695512,0.005866769974206645
1746444514.9912288,0.104402825354272,-0.0287569879330193,-9.771356264243131,-0.005298218308744682,-0.018485619151644955,0.003589085128790764
1746444515.0112581,0.0039895172273826385,0.11903473621365046,-9.967273604494089,0.0056133380781721726,-0.00913511648084708,0.00407733594363092
1746444515.0312073,0.06427210369548406,0.0776499368478765,-9.828276775519765,-0.0009840210513030708,-0.011176379866261597,0.0017607698720387543
1746444515.0510688,0.22126719673241554,-0.12864845977522021,-9.722058968796683,-0.006592431827582668,-0.021044483802205013,0.0027499669277726746
1746444515.0712128,0.17807120657397713,-0.0590131671839404,-9.638208939165184,0.01174618394349793,-0.004430433456133944,0.001637069482335104
1746444515.0911562,0.16104988760018996,-0.039733849519066305,-9.682573951526782,-0.004396359690641306,-0.01961870090135477,0.004373803960949852
1746444515.111513,0.21949075040881671,-0.13651590622405055,-9.653157658744952,-0.008769172129507502,-0.021997299224621528,0.00635134435590798
1746444515.131209,-0.09624058494292587,0.2460476973483731,-9.926566400083601,0.009193324118729236,-0.009672207137051768,0.005152361133881185
1746444515.151365,0.17027768685398204,-0.13363490993543592,-9.720878243770109,0.015100143624795871,-0.011787141325878074,-0.00029143099386611405
1746444515.1715379,0.1514512572553289,-0.07834823403459071,-9.652176864060287,0.010510155993294978,-0.012027314173150165,0.0018774981207190645
1746444515.191286,0.058179057035004755,0.02814247144033448,-9.752018511514368,-0.0012409182036659063,-0.020091717008876034,0.002392563077350197
1746444515.2112384,0.07165673394256654,0.0816202558767437,-9.663297412070627,-0.0013651497040192667,-0.021505298797275297,0.006265098351738781
1746444515.231221,0.0003276398810041353,0.06017344845357464,-9.978300737991862,-0.00392436694439838,-0.020254555795996113,0.003109978330580824
1746444515.2510874,-0.029879837169472484,0.0561496754801641,-9.957502476100101,0.006508381986721353,-0.01567403868992313,-0.00045803631635332916
1746444515.2712526,-0.020985236395856276,0.09383146270008311,-9.77632717542356,0.014614903315785046,-0.008263204050832433,0.0018776971474392216
1746444515.2913568,0.29551807625462034,-0.2220441530287697,-9.57001363259724,-0.003593523112524556,-0.019440035890499183,0.004098546923331545
1746444515.3112316,0.02764078614701935,0.11091818139401223,-9.810972366067633,-0.005703485325984277,-0.025643468198280978,0.005332522395522199
1746444515.3312366,0.1654056864926523,-0.13166403541541544,-9.71542030083341,-0.0005424037022734174,-0.02080082860197533,0.004930493716005071
1746444515.3512042,-0.09533084619162631,0.14994194171081085,-9.870221053818314,-0.005462222039234485,-0.02700698936960097,0.010633597162536963
1746444515.371242,-0.10399375166269864,0.1774552152543055,-9.938886172453296,0.0013589297069337234,-0.020034950970953445,0.0064721988960958505
1746444515.3912184,-0.01773247888123142,0.0357329748317427,-9.768333261224003,0.005287619979905771,-0.01630689845995205,0.0033077698342284137
1746444515.4112477,-0.0009452357836461436,0.07939731327618932,-9.776857993980421,0.0001677148168926965,-0.020649095203824557,0.006198815797557423
1746444515.4313793,0.41603597646061496,-0.4304905793374657,-9.368784550449693,-0.0018988107051529017,-0.022552563001535995,0.007204910128034469
1746444515.4511952,-0.046090082376476445,0.15013182394588687,-9.713516591765037,0.00976872664552464,-0.014308774880271973,0.0035147291158745394
1746444515.4712176,0.1782668607086815,-0.16624538635220898,-9.574860384784932,-0.003964420540064066,-0.024340137000253947,0.00869474957953908
1746444515.491726,0.22701669134738248,-0.21630110821481757,-9.516869192568223,-0.006763567590658039,-0.028996577334143413,0.006001151415110476
1746444515.5111382,-0.012908070340137004,0.005613309458867318,-9.789470789915997,-8.996062420618407e-05,-0.022279046491771336,0.005731148648708309
1746444515.5312052,-0.00803136545372992,0.04173962947720891,-9.790366382625118,-0.0018187905658806412,-0.026447464361131795,0.009299035131769159
1746444515.551129,0.22434474165561752,-0.2117393066902384,-9.526332334095812,-0.002020175120136051,-0.023526184629305738,0.004612249565183394
1746444515.5712225,-0.18847965680327633,0.2001183112600671,-9.917290410452697,0.0026204334604248906,-0.01870892638763709,0.006011025924227463
1746444515.591221,0.2475324624260981,-0.2281103879883155,-9.454198410954035,-0.007532952268732856,-0.02447057248562923,0.009703915404635995
1746444515.6113875,0.08674105027669543,-0.1019964745896463,-9.618687945380007,0.0018044149981779104,-0.01859908778456946,0.0077442765772832356
1746444515.6314552,0.0956505752603323,-0.0637596197134179,-9.608828602038306,0.013303060015763504,-0.011506512862519644,0.007728691794277493
1746444515.6510744,-0.11309084839220618,0.03727739369274754,-9.952738153564683,-0.011651641040194068,-0.028862173437360587,0.010492312167088524
1746444515.6711755,0.08176455381358588,-0.06434674783223451,-9.602198240446516,-0.0026195279932203284,-0.019787982977138404,0.01118750996137807
1746444515.6912503,-0.05041245238729215,0.03303308404562966,-9.71205197164679,0.002278052562653988,-0.01724632214132394,0.006233803650648679
1746444515.7112737,-0.3050229410505971,0.26890823042240164,-10.10718718475318,0.012855970936513672,-0.013882268281973913,0.005110419233869638
1746444515.7313502,0.163301399006549,-0.20288324601796995,-9.540728356080683,0.006354899743686027,-0.015273514275160363,0.0064115953184381395
1746444515.7511542,0.09287703284443355,-0.12533111876214476,-9.589981687374317,0.0002738935624029364,-0.018014566876317646,0.012078936582684592
1746444515.7712762,0.029283254227828112,-0.09150934983817367,-9.70254292242189,0.0032969683424592857,-0.017862143452683547,0.008316871203643663
1746444515.7915199,-0.10680974959278317,0.05309849536675814,-9.868330281950442,-0.010621263585271655,-0.02760772909961483,0.008926999212471962
1746444515.8114996,0.07974204601662953,-0.10595811019486324,-9.614221492388765,-0.002340254802525468,-0.021359446434327942,0.0073620085384613594
1746444515.8312473,0.08534629102798937,-0.09195307986639373,-9.49078376071395,-0.004024809238954749,-0.020742851445064506,0.010260042562612554
1746444515.8510728,-0.13663744909900918,0.06477467759250186,-9.871362894272375,0.0008217259555007418,-0.012508247188354582,0.010351514273024158
1746444515.8713567,0.010052191885158865,-0.1290726657642717,-9.82807974526867,-0.0014231758048826924,-0.017289068267090223,0.01093070772024485
1746444515.891251,-0.18072082438939652,0.11359944224368712,-9.95317498715568,0.007603782220752517,-0.009288268655351657,0.008399030069950844
1746444515.9112306,0.01013893740678247,-0.09398061282597311,-9.70943957726785,0.01109729598074874,-0.01009722019141172,0.0073584944398450754
1746444515.9313529,-0.025005203783808938,-0.06934322649335942,-9.682747970955559,-0.0008160327854444811,-0.014365853246465183,0.010393894041157613
1746444515.9510963,-0.12455106174663164,0.0624217839205794,-9.797014531877595,-0.004738807162927575,-0.01391692907060156,0.011559343665410664
1746444515.9712663,-0.1329180518651213,0.06053709712508301,-9.85145266449386,0.007453167010674602,-0.003406082577090252,0.012441820456918795
1746444515.991352,-0.08482160927711348,-0.03253133767833824,-9.804099336959638,0.011232068456508848,-0.005132200208811501,0.00740962043673675
1746444516.0112772,-0.0058203815058680275,-0.15270949182924912,-9.814067857787528,-0.0055569894401514995,-0.012015979835889068,0.0075170878638121654
1746444516.0312319,-0.018245565454369034,-0.05392948557564922,-9.725105911121037,0.0022651029197320173,-0.0077318774871840724,0.009101133862294823
1746444516.0511856,0.054842441626669305,-0.17432480028232225,-9.613295852294101,0.014971860342018853,0.003081119376445814,0.00738591400941998
1746444516.0713468,-0.20090686371318756,0.11782128236707268,-9.924928343101202,0.004903010394264586,-0.004421997369230655,0.008501841710934151
1746444516.0912566,-0.23552547907034277,0.12997286143886308,-9.919739924586324,-8.256569484590363e-05,-0.008553556820463784,0.010590057979320396
1746444516.111222,-0.2435009324419259,0.0970025491665504,-10.083445190110321,0.0018705838939602087,-0.004694663280047018,0.010196253626115362
1746444516.131227,-0.35457306482015405,0.33094724588718183,-10.033761352699399,0.007557662488636032,-0.0012970247264041676,0.010015913612329735
1746444516.151078,-0.34496058878621016,0.23750182920937823,-10.054628489147518,-0.010025383635510155,-0.011955834543323014,0.014095469841909026
1746444516.1712563,-0.08615409373301847,-0.054742098182456296,-9.85120289361949,0.007209504661485727,0.0003992302433870106,0.011707574230148565
1746444516.191264,-0.11272037004663203,0.04265027124420805,-9.766047580152097,0.001991919385539876,0.002446983343069817,0.00964179471184724
1746444516.2113035,0.016587342745044795,-0.07036009528138486,-9.610109477147901,-0.015284105965617882,-0.016405257371412192,0.014934521349636212
1746444516.2312033,-0.19780985853772076,0.13258913072643932,-9.92937361133211,0.0008566959889891282,-0.002746040293693466,0.009399616556353034
1746444516.2510726,-0.23766105887495453,0.08472915658333924,-10.080879508433277,0.0009222366504829057,0.0022069908737831754,0.012545268972081318
1746444516.2712386,-0.2978132466462444,0.21085268032974486,-10.096226282784562,-0.000536109111911884,0.00048707788355010183,0.011960988558742409
1746444516.2912333,-0.20773273107121595,0.0998937988100446,-9.938090555215794,6.718976992797977e-05,0.0027360541367118466,0.009436553390407916
1746444516.3112316,-0.1873218955880699,0.09747721257712068,-9.891267871454577,-0.009567472920336615,-0.008048086055135538,0.013576637817966867
1746444516.3312213,-0.0905827033000262,-0.018174926559541456,-9.692665178085567,-0.005019216536114074,-0.0008535574594824547,0.011562895400112993
1746444516.3510869,-0.17666404485931814,0.10189424239439948,-9.884324264241684,-0.011595327189915535,-0.002127935681012917,0.013829222017867755
1746444516.3714812,-0.09645873002237705,-0.012195160064787477,-9.848032335213668,-0.00187178414232548,0.007057160215222454,0.013211578829012314
1746444516.3912163,-0.037969772857612855,-0.12668850541199192,-9.890348452819719,0.0019218786238806734,0.011453791429258509,0.013530764070862308
1746444516.4112039,0.038944470074957355,-0.12735042616019787,-9.606758904059177,0.009836959238335274,0.0167483418929128,0.007945602618994678
1746444516.4313426,-0.4039331849100353,0.333360303021716,-10.16811461629644,-0.005207961880313722,-0.0008603225650357788,0.01106159395439645
1746444516.4512026,-0.16666717685837013,0.19195702576820628,-9.767938987817411,0.003724637137096694,0.009894449801691695,0.010009730744158854
1746444516.4712212,0.030533608890958783,-0.13882168738571052,-9.69939717210801,0.013094164735809436,0.01837372562723734,0.009322362612868307
1746444516.4913466,-0.22502825275111826,0.23106905927444732,-9.869952554452654,0.010697248339631829,0.017617691783075422,0.008542433647875379
1746444516.5112941,-0.001358401303605164,-0.0647208764720977,-9.663312266769635,0.0061839663924149624,0.01428676175915998,0.010050858625644735
1746444516.5312467,-0.028324311675876693,-0.06756945787842067,-9.74187429521243,0.004858257704981749,0.014571468867494577,0.011775787144699956
1746444516.551172,-0.10241199350961572,-0.008898705634736874,-9.810223696845378,0.005194583362688591,0.01830312713446689,0.012210551132284118
1746444516.571185,-0.10373374312195242,0.028575232971627014,-9.858795672229965,-0.020154639376173393,-0.0029603202212364396,0.015549980754904692
1746444516.5912104,-0.1686781056214852,0.05048478826548311,-9.962528203106478,0.011424007987764492,0.019462354129526523,0.010831041999692146
1746444516.611218,0.2100404182579352,-0.3088777076341197,-9.547188899604931,0.007610605093534616,0.02108284756818709,0.012378947728804681
1746444516.6312017,0.016897936940280245,-0.03561403766450211,-9.674705557711219,-0.002318007012280412,0.011914122311164566,0.01364361774436916
1746444516.6511018,0.04443352436724579,-0.04122081533006892,-9.6026211697246,-0.0011838910808855338,0.01408181608967983,0.014136663874887344
1746444516.6711037,0.13522307017108331,-0.22064510666868234,-9.598794525408605,-0.0029693424069937445,0.011450851579774166,0.014395424944071386
1746444516.6913576,-0.10102024426013104,0.0705107066005778,-9.861177738707493,-0.006738561335743902,0.009115516520105562,0.014817756451800073
1746444516.7113059,-0.2653493038698032,0.2067630380084936,-10.030382507890636,-0.0066233162136732655,0.010243927296045407,0.01376042069540931
1746444516.7312388,-0.1441125486175047,0.034222468277503276,-9.973775049611483,0.008069839183232166,0.022200309154566663,0.009754543294174012
1746444516.751086,0.03814662168921403,-0.07416834872977204,-9.63599606728351,-0.0004361545015387743,0.017260495131221548,0.011029393527043156
1746444516.7713737,0.10808617330206538,-0.17661132372821045,-9.659523433953401,-0.003910446782401305,0.013033963246468726,0.010787454464646972
1746444516.7912192,0.1501485606588778,-0.17958497113270347,-9.617063657855196,0.0019007119816393644,0.01500500953773854,0.016891828207393458
1746444516.8113546,-0.015329423404842196,-0.04298374370116352,-9.790616020304194,0.0015653294056213961,0.019748575348717684,0.01422397915560527
1746444516.8314364,-0.3929035352620354,0.31570516011892885,-10.297922443082877,0.006827505481525727,0.027973061363504186,0.012189012070183337
1746444516.851061,-0.18834085824434524,0.18724099522218374,-10.044930265398325,0.0015058180936417373,0.01761610932419704,0.012401233230132336
1746444516.8712633,-0.1686259544015981,0.13278260677708745,-9.984849331479138,-0.01324153551071385,0.009428697244153596,0.017446032171092397
1746444516.8914149,0.09087811518630468,-0.17505269852634509,-9.737486283801767,-0.0016444126693675324,0.019440638018921617,0.013355773683869613
1746444516.9112308,-0.12660396596309936,0.09695805130769715,-9.893352693458676,-0.0064850344593787,0.013210458232460531,0.015243714377879681
1746444516.9312844,0.06748032030761758,-0.14619197155979824,-9.70644571509144,-0.001170247693016417,0.018226030525365946,0.011575437267934151
1746444516.9510958,0.05832154818506298,-0.06397504699064815,-9.700334824608262,-0.007791804766741522,0.012808623620372668,0.012915854301022918
1746444516.971282,0.04135336794417504,0.009402951439065065,-9.65741731712987,-0.0061107374596093555,0.017032403201953896,0.012589798242735125
1746444516.9914114,-0.04903464661821026,0.020771148761978917,-9.868232627433864,-0.0005386685758782846,0.022455893452762873,0.015611263360235817
1746444517.0116751,-0.01492998140279386,-0.0006404079477189926,-9.785899421557497,0.01102770854227456,0.032428458183799636,0.01232702608557561
1746444517.0313582,-0.030027584652199853,0.10755493800237968,-9.780954271408683,0.001268710180542767,0.021677858009746115,0.009307163045146848
1746444517.0513098,-0.022564336329360002,0.04946913330894411,-9.805491017380067,-0.00425431159538217,0.012434075805149353,0.014251579809379213
1746444517.0713127,0.11561410464077504,-0.0911573378941262,-9.68715369911781,-0.008545386357988533,0.011173754833126194,0.01467911496349842
1746444517.0912771,-0.04737869319938286,0.08320047878173342,-9.83850176721116,0.008868048270213204,0.02462722496517287,0.012592503305921664
1746444517.1112838,-0.0316826858453159,0.05217899519297911,-9.85005194982537,0.004328879459611975,0.024203452500882027,0.011176769166101164
1746444517.1313834,0.09828666951840703,-0.041364650274423514,-9.663946673937115,0.0017122496141081692,0.021293442095770138,0.01380268959597328
1746444517.1511755,-0.1316817729503854,0.20972471632889417,-9.93082911407865,-0.008989863501467982,0.014865655675849208,0.012768784001147303
1746444517.1713395,0.07641512713239132,-0.08058796026959125,-9.809058638213791,-0.0032383185003504403,0.01705481232654456,0.015097801319732143
1746444517.1913822,0.07062834667407378,-0.06433635120188759,-9.784250018498962,-0.0001487268307912244,0.019152328760110568,0.015943615383757985
1746444517.2113643,0.157623441723787,-0.059581908416797856,-9.603337429292175,-0.0023263780402184193,0.013502896835699767,0.015338532303996816
1746444517.231229,-0.05028720732809705,0.04997925663430261,-9.914712238362352,0.012285857964444221,0.02926224436403997,0.009440466354590685
1746444517.2511108,0.20196092276865577,-0.16455320155134998,-9.67330691379466,-0.005859431913746056,0.011942681165076154,0.014864057554832156
1746444517.2712126,0.05924148591067061,0.05688725929598364,-9.732976317031545,-0.0016430702667481246,0.013863534042135575,0.014553239690283
1746444517.291083,0.26409480649587624,-0.2020334345969766,-9.574704575889168,0.008208217220438494,0.021692511538365218,0.01173372902647674
1746444517.3112106,-0.08797178879667579,0.19922279367939816,-9.853800525289476,0.0034021352475530793,0.019853430117289437,0.013139485271098145
1746444517.331311,-0.03537428696353898,0.0679072429918786,-9.873971211226797,0.004847446462214141,0.019812915024020862,0.013509588660236738
1746444517.351121,0.20817430411862106,-0.12190469011676341,-9.580511132167453,0.0011093972879391884,0.015057168753825841,0.014517274403109551
1746444517.37131,0.011886158754729412,0.0949868236838382,-9.796630206488167,0.0007795794004858403,0.016342512979225253,0.014453340933686049
1746444517.3913825,0.09712682312921399,-0.0487966870225169,-9.823294298038148,0.01848606104484863,0.03226122449916205,0.010038851786604939
1746444517.4112592,0.08316361717173135,-0.0427002570659112,-9.772701522387262,0.008386633638591622,0.021459161983439144,0.012364416095664861
1746444517.4314895,0.26499208539127794,-0.1798233465048831,-9.587715563342034,0.002123684392727785,0.01868541586187944,0.01388528533477584
1746444517.4512324,-0.022684416216207787,0.130020687753994,-9.947443675881328,-0.0032176589639069737,0.008688855711115518,0.015959263916394188
1746444517.4712741,-0.010431602287722525,0.07921404185896724,-9.944083171824632,0.013161630141045077,0.023132360795907733,0.012464337162766523
1746444517.4914856,0.2157192484801017,-0.11316757113996154,-9.62611577984435,-0.001587628279901611,0.008721798768630978,0.01689715166296736
1746444517.5112727,0.22501761754940855,-0.11917978538642496,-9.555776650686171,0.006784445586369455,0.014509690210729145,0.012224954620336709
1746444517.5312743,-0.02024405355755761,0.14187057255225338,-9.909302475305843,-0.0003628401126845778,0.0128045230520497,0.010716930278557699
1746444517.5512056,0.11916608406851034,0.010336193218469727,-9.761220754147113,0.011232459448944151,0.016411059104312727,0.011198736604002986
1746444517.571221,-0.05619560141435384,0.17749705421405598,-9.959488456126188,-0.007472753340837077,0.00035876386779651846,0.013942769191448913
1746444517.5912812,0.02304086477256362,0.156657234785438,-9.786142538419865,-0.00601711504992607,-0.0011959053612343694,0.016008941916915903
1746444517.6112685,0.2508071960219431,-0.14311602672663892,-9.596796350865121,0.0068543020231511655,0.01536130056690553,0.01102226377303623
1746444517.6312962,0.09925687394536986,0.06033999157096803,-9.733907339969619,-0.003991882316406523,0.0038021012780113765,0.011645404830611038
1746444517.6512098,-0.19444728899737984,0.42109671713753566,-10.051034385939415,-0.0029651717876046776,0.0012178341344025595,0.012873316151480591
1746444517.6714642,0.040802891577947205,0.025649071438764673,-9.915961364464557,-0.0006706752612562301,0.0009634253232480797,0.010927399339551305
1746444517.691369,0.2963470790080206,-0.14791273226656487,-9.559381610602088,0.0017330362240942758,0.005029546278136221,0.014515551758951998
1746444517.711392,0.20906310026851735,-0.15677960918707343,-9.702642195153066,-0.004120103617843243,-0.003227427522066067,0.013582130642878052
1746444517.7312737,0.30890636516356573,-0.17837104029406445,-9.553552741365305,-0.0005253326452773388,0.0056640878780663696,0.01321326299763888
1746444517.751119,0.039083088958009146,0.07415911742013188,-9.804684427125476,0.009135601715421276,0.00493439292562019,0.012900985099693065
1746444517.771388,0.083565169993236,0.008904659488326538,-9.863715691162357,-0.012017436673169617,-0.013155460906876944,0.01682282346846014
1746444517.7912073,0.18073887784684797,-0.043481015371221204,-9.715632656185825,-0.0035391614641315633,0.00030667951813265795,0.01699958828604954
1746444517.8113687,0.23095409521429253,-0.10440473603428406,-9.667969461958192,-0.012140587151731443,-0.010167386231143539,0.015931916929030985
1746444517.8312554,0.21996272842104214,-0.1750105550870869,-9.752394114087494,0.009704317356784335,0.010881491016940383,0.009569597211121043
1746444517.851098,0.15074830664130362,-0.036378266375279626,-9.791248383285325,0.0026740623281981102,-0.0034239594263895897,0.015038891574099449
1746444517.8716054,-0.13562117815568175,0.2686671520389048,-10.05278011811998,-0.006962133452265331,-0.007878288827460698,0.012987832278182454
1746444517.891299,0.2910905565292699,-0.2428907257316235,-9.655358888821453,0.016589703723477886,0.01107886965597551,0.009793486032780054
1746444517.9113526,0.19431389335574892,-0.07537418625576671,-9.692060399226484,0.0005825052195110377,0.00047525079318646397,0.01357389500547591
1746444517.9313128,-0.12236444124802055,0.2737995904366745,-10.107165608784465,0.00312941249811711,0.0015712654360537197,0.012132816401904301
1746444517.951127,-0.3551515972268543,0.4682722208859377,-10.340629513486308,0.0011149550463809294,-0.006391851181536556,0.013785233473880826
1746444517.9712932,0.03299447528137672,0.10302974030442913,-9.824281073932404,-0.00436807309739115,-0.01143863973266503,0.014655734348180845
1746444517.9914167,0.056789739996827335,0.0018133061014869905,-9.925358017685939,-0.00658466637303399,-0.01645631272995285,0.017722510937821193
1746444518.0112746,-0.06744307781700648,0.1803736080964686,-10.002702129449315,0.0004925007192629697,-0.010128379392237317,0.014489888479668946
1746444518.0312731,-0.0822459090938672,0.24533650971427384,-9.888785891892335,0.0077189188295524805,-0.005038003487027414,0.013690594495025368
1746444518.0512195,0.23583470937564022,-0.1600322192676849,-9.592534896908056,-0.006789360771208312,-0.016079627944071306,0.016219535004021682
1746444518.0712945,0.08122791589260026,0.10333336686434387,-9.691991414328585,0.0038542831434005397,-0.006750309508018559,0.013233272024504273
1746444518.091268,0.0855660463383021,0.067683388361508,-9.748131135585655,0.0022948098042198184,-0.008787709998552847,0.012788041713800808
1746444518.1113052,0.1173561633211858,-0.0778191317332401,-9.835967595751397,0.0038675730117618125,-0.005723247147246462,0.011783977286752291
1746444518.131236,0.16046331344270273,-0.10599612910869943,-9.852329928316765,-0.011809361706311677,-0.020211166708741846,0.017202521916011466
1746444518.151313,0.3613644214126251,-0.2812685848335531,-9.491577160015034,-0.012406571394121702,-0.02449278635950247,0.016646943710806605
1746444518.1714547,-0.04667397899053828,0.14670854715301607,-10.000408532182496,0.012014023429681053,-0.0007174996120881318,0.0106774628771382
1746444518.1913862,0.04362251847781959,-0.012772133384697872,-9.832062895375945,0.0111103889016957,-0.005297545368759048,0.011636838695279327
1746444518.2113423,-0.09474448632861111,0.17299571760083202,-10.038593987935672,0.010836499088521273,-0.005448226252628156,0.011733380612525313
1746444518.2312498,0.009230148093462426,0.05939899944358997,-9.861481206299347,0.008591659182462179,-0.006546914655784981,0.011937611130230803
1746444518.2510943,-0.05825625770538843,0.0989170024561269,-9.94913533019655,0.007398478352261625,-0.014597714966865195,0.009925991677024409
1746444518.271421,0.0887776484840321,-0.05772967155468845,-9.740500682642324,-0.004528142775130797,-0.020661815486544916,0.01600623281594378
1746444518.291214,-0.21315290637271175,0.23555475037722065,-10.138741989111027,-0.01050103265991606,-0.025206252246406283,0.015755445656996703
1746444518.311236,-0.03896112074825244,0.08650760956220138,-9.996609754205355,-0.010187081096327644,-0.023055444431120703,0.014353711880423545
1746444518.3313215,0.16544350594746782,-0.14071349650871176,-9.700512854176734,-0.0005556934222302682,-0.016008648566172064,0.014152854873205148
1746444518.3511,-0.001760229555231696,0.05464198945547623,-9.874510585212246,-0.0006876555582369691,-0.017938160225646562,0.01282039924066065
1746444518.3712678,0.22687071137742862,-0.26132514608576485,-9.621081296611441,-0.0029874023012603514,-0.014398066799340626,0.013411841145847044
1746444518.391114,0.18515205696752648,-0.19675783991892595,-9.558519789054573,0.0034842816282178203,-0.01460976289800886,0.01229955932519061
1746444518.4113054,-0.032304075239580954,0.04322850797028373,-9.899087535344654,0.012989591650905942,-0.008678270788931786,0.011613514205890652
1746444518.4312208,0.016366572299597242,0.10662893564979493,-9.792850159777059,-0.0036408661864807154,-0.018066717291108605,0.01418551976796803
1746444518.4511147,0.03731790123276105,-0.024668997500390668,-9.749135871933207,0.007039431686878588,-0.011891848131860627,0.013863326238634977
1746444518.4712305,-0.08650147400715026,0.12964598033658375,-9.847962671468029,-0.01277961293295164,-0.02846751073283817,0.017676906183804946
1746444518.4912636,-0.09537481662868985,0.10969993133973578,-9.862723242080904,0.0069677083155734575,-0.012479464149366787,0.012128338184889786
1746444518.5115795,-0.09745127464257808,0.14555534272938597,-9.813636059094822,0.017390206135222297,-0.004030393841528266,0.009275801970016618
1746444518.5312016,-0.15527888612811955,0.1681466997646885,-9.967453393267526,-0.0006698346557980192,-0.01788492605703176,0.011716238209809212
1746444518.551177,-0.15033845126520937,0.09758524862915706,-10.052874942156285,-0.007745833884276242,-0.02542258008981934,0.016638769742287837
1746444518.5712388,0.003570451345378924,-0.038480032988892944,-9.847525232128804,0.009966493295008528,-0.013751994658412441,0.010790667073456826
1746444518.5912538,0.19716049522355358,-0.21850254830592764,-9.607398537426352,0.0012423057867243957,-0.01683596537231381,0.012177651498328489
1746444518.611257,-0.14525908167291174,0.12239483896895648,-10.012640243500822,0.008251138873696745,-0.014369038153531735,0.011590919747740623
1746444518.6315792,0.03646991508794783,-0.026511385916987686,-9.773064076578137,0.0010506242684930394,-0.018766051060705242,0.011756901288802284
1746444518.6511636,-0.05208647045484009,0.06645146166491309,-9.803538886120228,0.007713762199452327,-0.013394691194133116,0.00906957688494415
1746444518.6712265,-0.04226565466843254,0.03386336530411886,-9.762779034972079,-0.0011210079047414667,-0.01673442249283642,0.011951187957014945
1746444518.691244,-0.2367250123844221,0.1798068550810247,-10.058200149428473,-0.0008759017441742945,-0.016301988180274965,0.012863267137793224
1746444518.7113416,0.10109287401212899,-0.09791385719378856,-9.70852843659203,0.0020829745498020355,-0.01632226790421644,0.010721100678252922
1746444518.7312186,-0.06743034279972512,0.015450216423138142,-9.921000051856266,0.004870996359841515,-0.010424240098839898,0.010417164362531156
1746444518.7510707,0.06528618978886616,-0.10394599965206537,-9.704193045872907,0.005798251471788622,-0.012925538805429517,0.011420568305271404
1746444518.771232,0.12723136597858994,-0.1868657219826404,-9.626594689368247,-0.003315967220214947,-0.014747496497477959,0.012875789337818806
1746444518.791181,-0.011503783507009358,0.010761247602482716,-9.667174121353803,0.008046204102082517,-0.007185087116879263,0.009392817178743962
1746444518.8111994,-0.1640155642128992,0.07629472227874307,-10.017758948536576,0.0051500684532048485,-0.012226248438974515,0.00976161575385165
1746444518.831197,-0.009572501155458726,-0.07921157629863575,-9.833828627911718,0.004772002060228907,-0.012933215374857254,0.012094423516520339
1746444518.8510592,0.020346607046698773,-0.033124600362915244,-9.684698491886673,0.004145974922128621,-0.011882743517309698,0.010433237992189912
1746444518.871233,-0.032359238228364784,-0.010515448323005036,-9.749336160452623,0.008323305705449955,-0.003686437040389994,0.011742409956927933
1746444518.8912263,-0.02989528098125042,0.029094713124056072,-9.671572727691142,0.003766894970994966,-0.00948099815516359,0.009738077580056782
1746444518.9111955,-0.07732641881325622,-0.007106990421531602,-9.885757232747618,0.005349840267648955,-0.009107866367212579,0.01256101064770792
1746444518.93128,-0.29850870308699357,0.2379399570882647,-10.082035318536848,0.012493857633659849,-0.004145188132671044,0.01242991784056721
1746444518.9511018,0.10079809526881846,-0.1655073056678253,-9.637431257780237,0.00335998278732147,-0.009890226962837955,0.01007411615447726
1746444518.9712174,0.03949519675372626,-0.05564705465641516,-9.587556488318851,-0.0076488208418524824,-0.015872522707845158,0.01352161125057642
1746444518.9913182,-0.2629101196400787,0.24482814475052844,-10.026914757664011,0.004407669107096638,-0.0026261482013121232,0.011701778865690807
1746444519.011474,-0.0056249800242095666,-0.06245811744299544,-9.779134614006507,0.009858768685322936,-0.004220856929122581,0.011102114691154807
1746444519.0312238,-0.22226454317131789,0.15212939611534618,-10.030871237740858,0.001018808587429882,-0.01307909710447984,0.012778652036519993
1746444519.0511863,-0.14152081411175238,0.03398984465080405,-9.843748818398558,-0.0005640699073654371,-0.01147611200333504,0.013088428623172046
1746444519.0712056,-0.03827470374726492,-0.016077162746781896,-9.776961444866686,0.009983954877912652,-0.0036388953081400227,0.008275117200048396
1746444519.0911903,-0.07663095115212647,-0.001470310390772494,-9.874630350726443,-0.004701801006392683,-0.01182527207780349,0.013139038114082381
1746444519.111214,-0.05512000998782932,-0.005085438567280928,-9.835702083229375,-0.01169664978032591,-0.018526582369436148,0.014994658579426254
1746444519.131211,-0.22239929884363113,0.13269998595591376,-10.040298748199968,-0.004809155674064826,-0.014236966784605435,0.01021144972081117
1746444519.1511514,-0.23643349948444664,0.1164265863207079,-9.975175338300577,-0.0027508562837927093,-0.011130919982328236,0.00796778573702001
1746444519.1712303,-0.13045760342846852,0.10680601191866378,-9.77236202713625,0.007347969049982493,0.0003707472313451707,0.011322865196228
1746444519.191279,-0.12428659525626441,0.05234109045175307,-9.850419296951676,-0.0036784746167635354,-0.012814233316771836,0.012296328486985916
1746444519.2112527,0.01070749143678848,-0.08148528396752251,-9.703369438822186,-0.0009411370089162169,-0.0041912501277434535,0.013438179701049198
1746444519.231201,-0.3975967340996124,0.34024549304323937,-10.16799173408362,0.00017979895148951836,-0.006072477882729629,0.009814127824417701
1746444519.25109,0.04274601988959913,-0.16058373880947893,-9.659781794722047,-0.0030137153390749957,-0.0033187798776709216,0.010749991377903032
1746444519.2712293,-0.12684999985144155,-0.008377991982464793,-9.886245885594933,0.00485541563011006,0.001223922501523277,0.007855727240356747
1746444519.2912068,-0.3365212192103846,0.23883435250680618,-10.129658340285063,0.00602792971842646,0.003792007623753551,0.0099611379712424
1746444519.311271,-0.20273519369939996,0.10177867394464239,-9.963656087998732,0.00826377485442863,0.008716073767691148,0.009084698203654493
1746444519.3311772,-0.10228069188259079,-0.019068156138112562,-9.931538483995913,0.0005926238480118374,0.0010820710181492872,0.011274124005221747
1746444519.3510792,-0.22780388047927785,0.12671824568325238,-10.01597993246683,0.005180802061694449,0.0061669673024579335,0.00968686553998234
1746444519.3712397,-0.28797519522651166,0.21359781833464464,-9.989964196850146,0.00719147576639695,0.004451288902899466,0.011836747138653923
1746444519.3912013,-0.06522418291255372,-0.012163048249349068,-9.726702306406196,0.012601144065030016,0.00986185255285004,0.009361374118914544
1746444519.41145,-0.1195240419167308,0.07668387871912954,-9.860096550159902,0.007537127607310681,0.006305536060472669,0.007690692887490431
1746444519.431199,0.06186564947690992,-0.13453318521737806,-9.630387693159626,0.004131889175171297,0.003580980382449554,0.008001323537100376
1746444519.4510953,0.0531765256251403,-0.21534276792204005,-9.73209540576019,-0.00014939831246646592,0.0020751849984764234,0.008616738465502701
1746444519.4712489,-0.029569179471377743,-0.11854921328590438,-9.81705193577822,-0.00420123112977914,-0.0036465511080725063,0.011542045758323903
1746444519.491331,0.18655414664878583,-0.2818035258788026,-9.536797544063475,-0.00809140942643642,0.000620633793102161,0.013971640714864574
1746444519.5112195,0.2104025665466932,-0.27870080942470643,-9.5013441591787,0.00789272595749901,0.011058276023439078,0.009695726898895302
1746444519.5312006,0.11968481948783832,-0.16725397888189608,-9.529439909026738,0.011521528781912621,0.015345692637229194,0.009114099809669492
1746444519.5512123,0.15257075505100115,-0.26282159717368453,-9.581789026844312,0.00021675088382105338,0.003518513622437088,0.014783977375982095
1746444519.5712266,-0.03232995390633219,-0.07501043162528823,-9.785355965818562,0.00825415535077498,0.01083058872264115,0.008417601989264879
1746444519.5913801,-0.1625810488583908,-0.003805180882934048,-10.069544096364126,0.0004083392911178608,0.005960141447321708,0.009098119704286506
1746444519.6112058,-0.054393706105216676,0.08097596650576754,-9.65947010966446,0.0005080283287185423,0.007504185038798732,0.01007825917237462
1746444519.6311963,-0.007019541365192755,-0.1524794153302699,-9.801212514905478,0.011887212987006254,0.015598677508405042,0.011135941682046461
1746444519.6511505,-0.12206616719580733,0.06279789746472081,-9.92034284374155,0.005276688533531773,0.015758318794999546,0.007739746565529134
1746444519.6713722,-0.10081302534453777,0.024298258840821377,-9.814547040175318,-0.008282203012073877,0.003230210384356675,0.010033393869070945
1746444519.6914847,0.09678937576500433,-0.14644631037739078,-9.58181696569694,-0.005926313923187273,0.00879276840292956,0.011696435027477761
1746444519.7112725,-0.3167912644903256,0.22512214213787257,-10.164662108950926,-0.0012314271943913656,0.00940159003247169,0.011898434179129972
1746444519.73133,-0.07202007189254006,-0.002242588254834772,-9.81404377673637,0.002263198206982365,0.00814631354115553,0.008630831151177597
1746444519.751134,-0.04046789044432908,0.007979676505498263,-9.819442367823445,-0.006830852946757024,0.007640820896251051,0.01313345447703711
1746444519.7712836,0.1388645294927666,-0.14151130432587988,-9.539410531864245,0.00033040294229704924,0.01344856393289909,0.007600066190569356
1746444519.791216,-0.0029999147577393845,-0.0939999127054726,-9.764987669066842,-0.005313178708903929,0.008197724549033461,0.009181391591937173
1746444519.8113682,-0.1397142989802041,0.09541363532166346,-9.956169677499346,-0.0036285470468016045,0.011765940147875542,0.01251860349266892
1746444519.8311992,-0.11474887329924552,0.09645434159019743,-9.852750484575642,-0.003005341321524734,0.011523677554787903,0.012120565026533683
1746444519.8510666,-0.22336190496838293,0.17247709739036177,-10.103489725268105,0.0028816080137259747,0.01566031939087842,0.010000079368432379
1746444519.8714929,-0.0909430360391775,0.06471241964225552,-9.83070797542489,0.007556000848913585,0.016627248216449945,0.01015628288947015
1746444519.891351,-0.04020512899166827,0.016118758374783392,-9.832496661900084,-0.012404136879928305,0.007600079367379066,0.011060608843461724
1746444519.9112358,-0.13913929441067344,0.15571751294335207,-9.878856967881928,-0.0007194896920347769,0.010564887222635882,0.006564697390057211
1746444519.9312663,-0.07976607003439565,0.016639557241048167,-9.904978376202223,0.0018714473229562256,0.015373061344261165,0.012209198540406297
1746444519.9511068,0.1204428246707037,-0.17840527819338134,-9.722808305451013,0.005661227638774609,0.02038997566948724,0.008738471601645897
1746444519.9712553,0.041106432835207665,-0.051486887888078085,-9.69629081205353,0.012223356680474515,0.02557111873820841,0.006584703675493971
1746444519.9913356,0.12338085810647342,-0.1876423004093456,-9.632148222953465,0.0028966337972440586,0.021517934705461574,0.01009342961316426
1746444520.0111518,-0.20302085836745837,0.1756008351127106,-10.032274955689015,-0.002048437861588237,0.016766293126728178,0.009083203637974064
1746444520.0312207,0.037370172333269884,-0.042591781496344676,-9.749272979527369,0.0062608013659929095,0.02045108478174923,0.005969335256917556
1746444520.0511825,-0.00733064710784587,-0.03263102028752225,-9.887989691180525,-0.0012460617716621458,0.01319088530693056,0.010543945286673328
1746444520.0712245,-0.0942136284254692,0.08994405975146191,-9.982467349288548,-0.007847062152826118,0.012746528874538738,0.012824500399335949
1746444520.0912137,-0.015093782414092207,-0.01926390480794196,-9.861781606153377,0.005381303007888484,0.02012645992197226,0.00920313398845153
1746444520.11116,-0.12962945637781348,0.08466672677891132,-9.95525156696493,-0.004864157496799516,0.011644060008939926,0.010116364558993758
1746444520.1312253,-0.023672097606375914,0.0536570868481827,-9.808997552598552,-0.008414201356279008,0.01019221336668542,0.008905661951286486
1746444520.1511645,-0.1688507095463144,0.15034178182251778,-10.067029951729227,0.008354075383411085,0.023314834358572865,0.0099172765000869
1746444520.171315,0.10271721564692794,-0.0456180759125328,-9.644320338186125,0.0022112170667415096,0.02009562687091197,0.008953550558167293
1746444520.191186,0.01301156451825914,0.0009787976219394344,-9.799853610611574,-0.0025867304848648538,0.015491534270393287,0.009372260417784455
1746444520.2112923,-0.13502105714843032,0.22195154001783593,-9.941412193457975,0.00316951617881121,0.0188786900296316,0.007871698047592078
1746444520.2314098,0.13465802366666507,-0.1213231797538513,-9.665171420677005,-0.0028773474774587224,0.014472523991329783,0.006152876362642989
1746444520.2510893,-0.08629095731458576,0.14151025664529449,-9.907901462615852,0.00966100049163984,0.020451645314204847,0.006112024301435017
1746444520.271243,0.1729812317431803,-0.17564903483709057,-9.702058718426198,-0.004612576098882126,0.010608296707173274,0.012941153218459015
1746444520.2912328,-0.13459188052350343,0.10634690486878219,-10.116124808307006,-0.00010796787863468656,0.012978916796870552,0.010576158782585908
1746444520.3112504,0.28401440115519033,-0.18610751798777325,-9.44873323522905,-0.002784713622711908,0.013174345979397512,0.008741211039536522
1746444520.3311994,-0.35195577345361223,0.375429195749889,-10.341231642694694,0.009038973916579436,0.022107030632037866,0.007642873681634511
1746444520.3510692,0.12271666760679037,-0.058383092801070395,-9.729560350792354,-0.0008486787388926745,0.011191873254944005,0.010273755271164003
1746444520.3712344,0.226392979402877,-0.15983276067665655,-9.564186668623028,-0.001863774783279908,0.009207846075410272,0.0121613880827623
1746444520.3912232,-0.0034329572847962564,0.07655586409855303,-9.873463053912982,-0.004039487896635398,0.012866960853454248,0.008852364077623095
1746444520.4112256,0.06945815415438607,-0.08665864071370509,-9.853979669432173,0.005788435113076945,0.016531583101590024,0.005654480165579243
1746444520.4312217,0.0973782290303424,-0.06686126818059815,-9.805566641345347,0.007708510306862787,0.017261347209583996,0.004071863899211329
1746444520.451081,-0.0031428290969887016,0.09739797163111658,-9.80725743607589,0.006552793832989524,0.020362391877392784,0.009984147527383816
1746444520.4712667,-0.05889155455786659,0.09105662303008578,-9.891597771758914,0.00996225375688109,0.023724334678737767,0.0052926356504408145
1746444520.4913502,0.19961431975117233,-0.10778605500354856,-9.57244917658059,0.011814087228869357,0.019206306127493116,0.0049183645189878715
1746444520.511384,0.1594405232120879,-0.09747259091011298,-9.685661340828977,0.008248649693171798,0.018403708515912852,0.005909061159600716
1746444520.5312796,0.55756613655826,-0.5180212024420368,-9.292120468106567,0.022987628523106828,0.02858574323872311,0.0034677278201846653
1746444520.5512218,0.04332451154784435,0.05772205499506374,-9.828349347107215,0.004884865964255839,0.01652140617852533,0.0075885535045146155
1746444520.5712814,-7.254074532769827e-05,-0.041540333289207046,-10.0341831600035,0.0032981813448978345,0.01237908300527053,0.006753130562177609
1746444520.5911937,-0.16908125792508888,0.20702784245513317,-10.158010994823387,-0.012809424334760068,-0.0025786097406097167,0.013794082188197753
1746444520.6114585,0.04175163111905671,0.06417201633599326,-9.855294376090882,0.005071493788014053,0.013431940266753213,0.00641854829789916
1746444520.6314197,0.11825962928881992,-0.12182594900364846,-9.809141994126184,-0.0010421641310424457,0.006869782296329429,0.00717845443204206
1746444520.651185,-0.008849925342619108,0.10735333253589648,-9.865743783949148,0.01567983847094106,0.01861441236452195,0.005907459263707213
1746444520.6712306,0.024661883187689804,0.06651234819128328,-9.890719479217541,0.008550745675760736,0.010882309250209315,0.005276237813203913
1746444520.6912057,0.10785001830480527,0.0500584043523553,-9.701439954042884,0.006097355205363292,0.008666201680718992,0.005019691486032369
1746444520.71131,0.10267978259141161,0.02788314314823305,-9.682987092771185,-0.002347607299231137,0.0048104589208998886,0.009657312935087318
1746444520.7312284,0.25696136113993856,-0.1844258311580524,-9.609878690977176,0.004244719766853343,0.005363892592933031,0.0075403420114803395
1746444520.7511332,0.2154302475288109,-0.12482650442540892,-9.68298225976203,0.0030814493278648277,0.008088200761344182,0.0061730014179155685
1746444520.7713528,0.30544832596410104,-0.1996980716301564,-9.570356160312148,-0.001712021303938598,0.0005359389913911963,0.009540277135240574
1746444520.7912056,0.2027438567016152,-0.11823261484978562,-9.699411575146332,-0.0054171828488047144,-0.0018888290939857695,0.008848750985617673
1746444520.811322,0.027743868678272034,0.09722079632752342,-9.872589939226055,-0.012636740724758327,-0.008352118737424792,0.010500326238572869
1746444520.8311362,0.11364104289792551,0.016370853738536542,-9.684089666074957,-0.008643212107442264,-0.0029959578008119355,0.01064947825044384
1746444520.851084,0.46821983507032466,-0.39070343491387616,-9.35328005249215,-0.005416986927266332,-0.003278335229492576,0.006427997135807877
1746444520.871197,0.02245566250426846,0.0682235283224907,-9.949203156219726,0.0024331535143893154,0.00494762392129463,0.006312862331081163
1746444520.8912132,-0.08054295201468753,0.20281909787377447,-9.964119364630953,-0.013003376696078504,-0.013339982287516792,0.012568456341600483
1746444520.9112117,0.07264282868428962,0.01313488542903015,-9.83047770538178,0.008331272203966622,0.007578806717105011,0.005422381223760781
1746444520.9312167,0.24507061378845582,-0.1714120213755657,-9.62844272861392,-0.008802304798466325,-0.0053763297390318696,0.009830001720767405
1746444520.9510853,0.1778958806798476,-0.11467745045163735,-9.667959079780601,0.0039523715255893625,0.0027943734004078186,0.007395443448883058
1746444520.9712656,0.1619820771300105,-0.16544633877664053,-9.757276952061769,-0.011237097062457485,-0.009451123923349002,0.011169715113921322
1746444520.991289,-0.03635665319126345,0.20481232065354418,-9.825289795255053,0.00023690563053419255,0.00015215299642494474,0.007331461417318546
1746444521.011316,0.0330248477497829,0.09472623124116346,-9.761744107026189,-0.00580168730391062,-0.007513744244443165,0.00873267554144868
1746444521.0312183,0.10087317708313893,-0.02034673653353228,-9.801715547972771,0.005901583217703488,0.00220743180130554,0.006392973573546334
1746444521.0511777,0.24422712659070986,-0.14244260750112667,-9.621254758286303,-0.0033948406874044095,-0.0038083956373756297,0.009917695405234619
1746444521.0715466,-0.038407982584596156,0.06517538439081051,-9.967016996795355,-0.005604603806112253,-0.013102108590420589,0.006200268029965725
1746444521.0912087,0.07429199088005108,0.0034890859239589617,-9.84042447880907,0.005520874465756925,-0.0006897182034808604,0.005551359658173051
1746444521.11122,0.14401734326831525,-0.11159763255341014,-9.756141032117755,-0.004648792441425483,-0.007995971304203871,0.009571911213206198
1746444521.1312125,0.22074845657294653,-0.13799154661316784,-9.585142443443841,0.0024537535373034326,-0.0038975785991676387,0.007199645452264684
1746444521.1511905,-0.2398068527393571,0.36423234318775594,-10.091837502304434,-0.00011427187629816938,-0.007464749803834062,0.005933722146103092
1746444521.171285,-0.21009800221531913,0.33092702966648807,-10.135725526740766,0.004569823310090743,-0.003851529912267478,0.00758261171474087
1746444521.1912315,-0.03931335051045996,0.10752063787151085,-9.95435559327698,0.006486500119502203,-0.0011631253661012197,0.007149258925698953
1746444521.2112925,0.26252923054270394,-0.24952554542792416,-9.604808378767537,-0.010292417760702192,-0.014272669961030299,0.0114321308646372
1746444521.2312338,0.43412863884972763,-0.29997012622548425,-9.300253284650289,-0.011091712342048204,-0.019733239485327236,0.01068956294685243
1746444521.2511327,0.19035608145986038,-0.15664365390388296,-9.599877071229564,-0.0080589276049865,-0.017091389191348155,0.004921549618877254
1746444521.2712238,0.08539824503952524,-0.022997491199309,-9.779862844133733,-0.008032518816799823,-0.01698197810513279,0.007073895705568543
1746444521.2911963,0.0811671309999541,-0.03472882588841051,-9.75734061848336,-0.0013131068119491092,-0.010719225371548131,0.0059058378246014814
1746444521.31121,0.2962482882135136,-0.24434960194652586,-9.503211084266356,-0.010260057202677246,-0.019403005094950812,0.006463386754720453
1746444521.331213,-0.03441578103860891,0.11001698545588386,-9.83151213987223,-0.006597611047101594,-0.014527170579669329,0.010042150230075333
1746444521.3510928,0.0880707848909659,-0.006499307199719332,-9.646290668119827,0.0069522442847504105,-0.009398402644664332,0.0030765894067703125
1746444521.3710945,0.024039603795757186,-0.028225904247807847,-9.855402068002752,-0.008691165633966972,-0.023107939369175448,0.009220749579139913
1746444521.3912048,-0.0017560911366579085,0.08454215200698012,-9.804746470537902,3.0168753112871124e-05,-0.01256389162867897,0.005724898540275408
1746444521.411193,0.07472709429666036,-0.0938264498209818,-9.859564752262035,-0.0036845895519186846,-0.014466519624072032,0.010885206504090927
1746444521.4314835,0.09127729753876662,-0.02474398194829522,-9.718019508589613,0.006839486627840208,-0.004739801319428992,0.006470969243183879
1746444521.4510634,-0.06565793946810353,0.16001339013136237,-9.858217914322305,0.009369643632407285,-0.005776982713114082,0.004469057369357836
1746444521.4712157,0.04349839644361333,0.032693602860326285,-9.759178222741866,0.006720862380150121,-0.007421500893960764,0.005451872154368011
1746444521.4913385,-0.11639112239328728,0.08301617632337267,-10.036587250824498,-0.011058662394164713,-0.019741885445821873,0.008939183479918485
1746444521.5113409,0.1025594868240976,-0.1129715664955425,-9.71619509011648,-0.009337218097552879,-0.02284828976924174,0.007316428906366048
1746444521.5312421,-0.1183164716342068,0.14506254066882793,-9.998629598777361,0.0018134580792485457,-0.009512028968044138,0.007220576221054788
1746444521.5511909,0.06439978928646131,-0.020303744115566735,-9.73503812906451,0.01003137779172692,-0.0075531155524567245,0.0022008268219255818
1746444521.571531,0.035818564785683,-0.014134990883571726,-9.761257760705243,0.007074539435907105,-0.009413662983504451,0.0022667649089159296
1746444521.591205,-0.1525939495914203,0.13578420905026994,-10.053975569295138,0.0045213217725784145,-0.01239904315804587,0.006907930020240779
1746444521.611209,0.0972544702270272,-0.0654777504076931,-9.609992596701264,0.0025536157623390334,-0.00969114985991992,0.006251705851943483
1746444521.6312158,0.12117650672158971,-0.1788363050903039,-9.736358279852764,-0.001456106349713941,-0.016666983438141877,0.0070483097784094905
1746444521.651154,-0.3274939665458152,0.3239409021787006,-10.184217699309063,0.008915079351472687,-0.0053976419544564044,0.002767475753829769
1746444521.6713693,-0.1186399860373866,0.1466481220631507,-9.932836225651448,-0.004630806158593701,-0.016971128446396058,0.00734653144424271
1746444521.6912017,0.1988023527099577,-0.2548644140090135,-9.600770252352335,0.0033817275627410024,-0.012968483676447078,0.007562782304735765
1746444521.7112613,-0.11575979238535644,0.12174853514826767,-9.921667567003626,0.009258692219659252,-0.006761246458816952,0.0043632117764420015
1746444521.7314699,0.06661257198734705,-0.07588489284458079,-9.648409719321803,0.012116886857128265,-0.010655576797661446,0.0016558843315315841
1746444521.7513697,-0.07370762123584697,0.11073333072360128,-9.820865742720935,0.01084584951304516,-0.004962885549214254,0.0024408617051513764
1746444521.77141,0.03299118315234356,-0.07652146753709113,-9.871019176193608,0.006084425373443523,-0.007607967754666828,0.005880011404572551
1746444521.7914352,-0.025021753842845162,-0.015003342284057477,-9.86987972141229,0.0016460876880537425,-0.012464790899816584,0.006672207079537691
1746444521.811437,-0.04761423620470982,0.002362452275889339,-9.939801355223223,-0.020804482317601798,-0.03051245231796544,0.013208755269091559
1746444521.8314598,0.2226336584600505,-0.2524238544009506,-9.60684615965588,-0.004349181928491584,-0.020646228192234467,0.008886910408826906
1746444521.8512714,-0.12458083365568255,0.09676479069573954,-9.9335318718305,0.0007498981616171954,-0.013598347121247906,0.004685655029548226
1746444521.871424,-0.1296863654621604,0.14943718297162292,-9.880610441886315,-0.0017336743225085905,-0.019919996922394857,0.007277712831814817
1746444521.8913746,-0.2502999241424624,0.19728640185473975,-10.156584607302278,0.0055062942841022115,-0.009615620684770194,0.0036975362521332817
1746444521.9113548,-0.13973419789307218,0.12526579609076297,-9.947722375470768,-0.0058939829912036,-0.014160952091265805,0.004692406097486954
1746444521.931325,-0.1921125380737745,0.13821013322657882,-10.02410393478727,-0.0011519356856668163,-0.01650875495950145,0.0072930075184920815
1746444521.9511442,-0.17463332855224342,0.12113649071509663,-9.944547725065265,-0.010179389857865298,-0.01927631401230826,0.00744158562899766
1746444521.9713814,0.012314088386455195,0.022923291810203524,-9.650829950492302,0.0031270088465328175,-0.006636596989954113,0.003967373909980233
1746444521.9914327,0.06944326004688602,-0.09302350568507677,-9.720535148010903,-0.01235060897240724,-0.01966023346150354,0.007179252428336291
1746444522.0113754,-0.252220995094871,0.24612460195952268,-10.096835624631657,-0.0007401900333362491,-0.010246360581862873,0.008077660140283499
1746444522.031445,-0.10001611035603554,0.015038468218440302,-9.91973673688246,-0.002428669517256545,-0.014368324444146145,0.006155043663757114
1746444522.0511656,-0.00915177930143897,-0.0273556973986904,-9.654835963371609,0.004903992201691701,-0.006609102856113001,0.005674486694357221
1746444522.0713646,0.0302530488758675,-0.04253481571030893,-9.633795696637314,0.005415076991660057,-0.004658013156235051,0.005741037057138085
1746444522.091433,-0.08882316627264457,0.058017318422328885,-9.800057544828812,0.006680444561345133,-0.002039661357595985,0.003784067935493495
1746444522.111462,-0.0664942706706676,-0.05597247189220466,-9.903836187727947,0.003689134219083738,-0.0079267575575774,0.00712522711127161
1746444522.1314292,-0.04463326359339054,0.021345512364281668,-9.825428704925717,-0.011713907330317633,-0.019246879791310033,0.010049677389840545
1746444522.1512282,0.04826744908074217,-0.05836164124325496,-9.587377212874934,0.007563310767301691,0.0013685442598358171,0.006036904067618796
1746444522.1714144,0.003976016652335698,-0.032861437029363325,-9.704284763329255,0.003646691985729082,-0.0034309305644473096,0.005148588577247616
1746444522.1914372,0.0193092693218294,-0.057699378980496326,-9.70684051337346,0.01330939578662295,0.00038364685176261147,0.001342619052726242
1746444522.21141,0.19792707907868934,-0.28581372524436544,-9.52249543539334,0.011221201596472724,0.004188961670114216,0.0016742747735189662
1746444522.231475,-0.17452261414305878,0.12542958355821626,-9.981516582134478,-0.0052041920463731595,-0.010582743227589807,0.0016112853463464655
1746444522.251239,-0.24588705720271423,0.20200975602225854,-10.024234986166148,0.0024278096278696716,-0.002523713138591803,0.002532025351463681
1746444522.271419,-0.03387055102430448,-0.02664887813581773,-9.791607427550789,-0.009860793208256838,-0.013844238746269135,0.0086616325500444
1746444522.2914214,0.004354557801239806,-0.05957348504669875,-9.72429646258995,0.00959570726575225,0.0014122436381746178,0.005213319480520643
1746444522.3114932,0.25128683281317865,-0.33911856876523905,-9.418336502522672,-0.003884078114744493,-0.00645707917263938,0.005236415757584895
1746444522.3316622,-0.15673207304215236,0.14056737482418796,-9.848749625970544,0.010507481788212711,0.004951192901678449,0.0027136917780170777
1746444522.3511808,-0.10753161659226132,0.06406656530344039,-9.894144574908724,-0.011031283787435366,-0.009414063320250327,0.007544258709899724
1746444522.371394,0.14922762168024514,-0.25098996887261443,-9.512580692626305,0.0007930857815170388,0.0005229847740742932,0.0057957644437697745
1746444522.391442,-0.20891470173179788,0.1469379962216738,-9.980319431071887,0.005864399584773783,0.003898269116614082,0.0017737006432547138
1746444522.4113822,0.14493685719257293,-0.20169210700319967,-9.534301833917002,0.0037999542535185364,0.0025908677995451685,0.0009390742643762165
1746444522.431418,-0.20717119642313753,0.1704507065216685,-9.883489203182059,0.0041347265631795265,0.002287002627564379,0.005562980598541564
1746444522.451136,-0.1132603240692168,0.014234793534854151,-9.915674956740007,0.01354174687975875,0.013223108620769527,0.00462999727979636
1746444522.4713407,-0.1457476795676486,0.08464968564700212,-9.84706666566058,0.0023678599093698,0.0027903391141603315,0.0026972854723723476
1746444522.4913611,-0.37415880828180575,0.36113654133268586,-10.085490059624778,0.002678299591713151,0.003754747259967559,0.003168180673128528
1746444522.5113459,-0.07828245306806703,-0.024746176870916903,-9.84727793577517,-0.0022421896144815797,-0.0017679185887752445,0.005550994726456026
1746444522.5312839,-0.225640918694197,0.1440428249126061,-10.022769116136637,0.0007084407219271553,0.004079344330441299,0.0031197678575835726
1746444522.5510547,0.12598598716221548,-0.2088965772065512,-9.640114972041577,0.000328783265232608,0.0020990335101351842,0.0069721719391187395
1746444522.5712347,-0.22567897640062343,0.23002347435244166,-9.950484362785442,-0.00116346762907931,0.005765961345347393,0.00445892572278808
1746444522.5914683,0.05953880790019096,-0.11415361908313616,-9.616485791218206,0.001682725594114437,0.003266922866997927,0.005837187431678198
1746444522.6112263,-0.25708409889988665,0.17241629063975655,-10.034744489309514,0.013937803335296753,0.009625323699911498,0.0009851622832443424
1746444522.63123,-0.05326461754857911,0.003994711077377424,-9.771924224884577,0.004242653125616365,0.007089879878219947,0.0029257097460788145
1746444522.6511934,-0.2228164687709373,0.15385390310790348,-10.032970108631092,-0.0062539499168206185,0.0012345601933257174,0.00463108083493945
1746444522.6712267,0.07953326207217869,-0.15582680888554065,-9.533108868216823,-0.007032850869837749,-0.001014219394768084,0.007101066196009462
1746444522.6912074,-0.16687936135681622,0.12212210589143012,-9.912417692391083,-0.008002580359687267,0.003985713927473197,0.0032419747334646435
1746444522.71127,0.05305520792572295,-0.1356800677807707,-9.666435667865207,0.010284482806696457,0.019022886776570422,0.002743544892911754
1746444522.7313347,-0.21475537575423903,0.11660693485660788,-10.034030881327674,-0.002588078778568002,0.004360641092251373,0.0019067330117432226
1746444522.7511747,0.07135503702234719,-0.11268452148475865,-9.605407440915638,-0.005928455215807923,0.008683965278199373,0.004404399796134238
1746444522.7712188,-0.08533145162493666,0.010546725953154796,-9.828669003042263,0.00424972139562893,0.013402705917080876,0.005949003947526985
1746444522.7914817,0.09757921600893575,-0.16486203508821756,-9.715843076617391,0.005198495342856589,0.012472872429236151,0.002578514121167611
1746444522.8112063,0.14808915088353522,-0.17693648134663634,-9.525806528553174,0.0008172045667536377,0.007213415905485229,0.007517357099182398
1746444522.8312335,-0.029349694666006027,0.00811240473550653,-9.728594177506421,0.0005014513710781775,0.012205869951212943,0.0038852282660426507
1746444522.8511295,-0.19776911267739525,0.09783250266874875,-10.02896120786819,0.0016913837470913752,0.014167808047211128,0.006286241150720769
1746444522.871228,-0.1300990647079709,0.10725723529637704,-9.84505341982869,-0.0014798212826151215,0.00769589676446313,0.004522700352163602
1746444522.8912034,-0.24166767458352553,0.18482087197742503,-10.12346279610151,-0.005312715634795256,0.005371483608359192,0.005272317702601911
1746444522.911206,-0.13044176269746224,0.11293837566583391,-9.835564780197407,0.008694979934649013,0.014780230410197796,0.0009170283029376414
1746444522.9311867,0.077884939716269,-0.08622194070357461,-9.648336533625239,0.007975755209288945,0.016351828747994155,0.0010070231055782446
1746444522.951062,0.0231519111748106,-0.06703941347910553,-9.7262368500476,-0.0023527386675452205,0.011202067555936047,0.001104006108238471
1746444522.971192,-0.009200098407088943,-0.016235585753568336,-9.784125233657194,0.0025858939443381235,0.015308708466895221,0.0037733864257361413
1746444522.9912493,0.23964112792324468,-0.29762560737977956,-9.52073941943947,-0.0008682684229816879,0.011873557446341988,0.003929282339609231
1746444523.0113251,-0.06665241944600434,0.03969901888022957,-9.912922511024343,0.0023338874470367568,0.015767915582300843,0.00346704150145179
1746444523.0312622,0.06916753699382783,-0.107406014278023,-9.73099905229102,-0.0009835821638326536,0.011915919119306374,0.0022829939685968716
1746444523.0510774,-0.04656182371469912,0.0826446104084139,-9.815235955073941,-0.00654442030875432,0.007957981055393897,0.0034284571074026716
1746444523.071219,-0.05504241361850587,-0.007568746218208336,-9.937194310531014,-0.0052807365097974944,0.006610564112200601,0.005014234823696895
1746444523.0912075,0.17644674570078503,-0.22298722711242955,-9.567929447006039,-0.0014682979512192595,0.010489380512913695,0.004328277705660055
1746444523.1112328,-0.20220753967597055,0.1709437060017951,-10.086878489852959,-0.0019070218375570847,0.007825758765891849,0.0057461086994527195
1746444523.1312017,0.24306210823035268,-0.25802029910616153,-9.49183708592471,-0.005178554557996927,0.008186177285632921,0.005378906263537021
1746444523.1511953,0.07011423005748037,-0.08556165589250453,-9.796761921507484,-0.008035157549875481,0.0035681897530786336,0.004907903817077337
1746444523.1712353,0.010568269377006674,0.01899161577132906,-9.722269321813982,-0.00012319997430657026,0.01519751506243149,0.0055552515189703335
1746444523.191222,-0.04594501770330919,0.05133580304477962,-9.854557407940426,0.002772430255650352,0.01795212720507514,0.002425884483605643
1746444523.2112582,-0.029355092833128954,-0.01331767727301927,-9.907660271333576,0.004317725379072146,0.01685497230578776,0.0005829128679679667
1746444523.231325,0.10039203898757597,-0.10737143162668314,-9.625944910528938,0.005521733272419936,0.019016334824168753,0.0032564957828777096
1746444523.2511854,-0.1028755921575411,0.0800903000051756,-9.976872084210413,-0.01064328651353378,0.00400389064676075,0.0035147109681390306
1746444523.2712212,0.06136814799419739,-0.07727994479168918,-9.772552394014824,0.00781806534742917,0.02142947113361572,0.0001090182460461277
1746444523.291204,-0.19599549742939726,0.2196996941989753,-10.053580889805232,-0.0008504518856913837,0.011652533203004155,0.0028563103766118046
1746444523.311204,0.18896855701376553,-0.21773205316773456,-9.690856595140708,-0.004498543048929095,0.005223037041206129,0.002992564279951325
1746444523.331228,-0.1109358855974708,0.0889568595383124,-9.882271322769174,-0.008468994400977438,0.0032020267665449215,0.004837669425814504
1746444523.351129,0.17737058230974143,-0.12895313710396736,-9.500271477605898,-0.00969656565152405,0.004019846528036155,0.003432390074215563
1746444523.3712199,-0.026432919123444903,0.00010260311877734359,-9.911620010846242,0.005956157239688576,0.017761934335257863,0.00420125957856579
1746444523.3912277,0.1769490214041613,-0.22061641473789492,-9.606712233731379,-0.0002092637681180824,0.0102676066206438,0.0006425493299489281
1746444523.4111621,0.09316762489280514,-0.10177202045478569,-9.728285171150086,0.004489991961386916,0.01526798689597746,0.0026821180824432313
1746444523.4311633,-0.027537591645682338,0.059685630275168995,-9.847684377434495,-0.0028038853761634974,0.0063577791487787775,0.00479804523713168
1746444523.4510744,-0.12385248890039394,0.19114060114109444,-10.003188489736225,-0.0016978574587741507,0.00989037404265873,0.0035191334154055015
1746444523.4711893,0.06813578190159043,-0.04848659206363668,-9.821965277970689,0.0035535433636658263,0.012586768335073165,0.00014491965908167582
1746444523.4911954,0.13362363991538098,-0.061119831178208205,-9.694382753961683,-0.015515519739441463,0.0017073963946105802,0.005723181862533689
1746444523.5113535,0.058535071001223946,0.033708992513167,-9.74622065423396,0.001975231761276774,0.012079160364723236,0.0017211823310597496
1746444523.5312529,-0.10357342108791491,0.1747455241410731,-9.944415357480322,0.009245031166760833,0.017635812449080003,0.0010343246203390073
1746444523.5510752,0.08265616858782956,-0.008159424267701477,-9.809707628623068,0.007870884425380281,0.016227967416909087,0.0005067630962677983
1746444523.5712223,0.09171091099476675,0.014172137043569536,-9.622785464268556,0.0038211590785659816,0.007635847931901867,0.0037138713890743505
1746444523.591155,-0.01570053138048015,0.015284011499033563,-9.925543142515927,0.0077778388806390535,0.013193294968668457,0.0022558755617009575
1746444523.6112316,-0.13763173587709832,0.20346868030681192,-9.978290262104606,0.009223182667271424,0.014249746981581903,-0.0015236129457585528
1746444523.6312337,-0.29144876270917636,0.4138895694471712,-10.149423190594707,-0.0001060643892909178,0.010757932677182221,0.002342713300435156
1746444523.651092,-0.02226731582649412,0.0527823542211774,-9.920555314649034,-0.005433319830576835,0.006629675535822326,0.0026639891841187284
1746444523.671501,-0.022578248036406526,0.04792470734540871,-9.896321807983073,0.0006817033319449954,0.005316624962753286,0.0017726515677395167
1746444523.6912408,0.07409422149818058,-0.043748844461648485,-9.79668496800598,0.003797019168831413,0.013687818225880338,0.0020090813112566513
1746444523.7112725,-0.008749427543141473,0.028668076086911423,-9.96129265252745,-0.012025015396306255,0.0027550853236248214,0.0060529622472842584
1746444523.731422,-0.22523076171220183,0.25527084255786203,-10.157783604143106,-0.006466654351268024,0.0034724644162958075,0.002110947401103661
1746444523.751295,0.08589977905432303,-0.024553944412919283,-9.75145143517063,0.00863726720686748,0.012669701277426622,0.0015515964711233297
1746444523.7712655,-0.19576395600531163,0.2685656299768631,-10.029352676758444,-0.004056831652700789,-0.001719815383855747,0.003713225398943301
1746444523.7912376,0.021276713471004176,0.00754017898691931,-9.910607357075992,0.005162272016483934,0.009043731802779204,0.0006609507507891648
1746444523.8113537,0.24071653077601202,-0.15126294377720637,-9.671174609672835,-0.004109020100781718,-0.0014416218497099367,0.0012120428045799912
1746444523.8312294,0.09240279877617404,-0.04436321753770647,-9.823639375515679,-0.01150591142179424,-0.004371265245650749,0.0023899380453352467
1746444523.8511488,0.07982678943276947,-0.044374621576505915,-9.794675805752322,0.008354193409151549,0.0073337086646737375,0.00021243128884559708
1746444523.8712509,-0.07213213605495404,0.15187271537378036,-10.035751179300812,-0.003935048204616723,-0.0018598443175540037,0.0036536437501672766
1746444523.8913507,0.06133024869388232,-0.0275357713277387,-9.845791328672334,0.002799561981394899,0.007009232385725147,0.0008548620362442006
1746444523.9112306,0.12967052963238757,-0.08649089877297853,-9.739753282710067,0.016642337674046517,0.015089694304675862,-0.0017636500511182445
1746444523.931279,0.2816612411179189,-0.21776138089656352,-9.499619696374712,-0.001802291927380651,0.002592041791345136,0.002792349157033261
1746444523.9510822,-0.05098629102365072,0.14825631719780885,-9.890614213927027,0.0018811006036720836,0.004093102111190286,0.0015178214598781698
1746444523.9713728,0.0991086704938686,-0.09334758864679886,-9.850149491738872,0.011879871966191304,0.00899932955582001,-0.0014978039876883795
1746444523.9912994,0.036982516070375386,0.017790669594919945,-9.883098526220488,0.001092890166965761,-0.00021105559888188704,0.0006497985526140201
1746444524.0113306,0.11630765097095204,0.0015236412181504353,-9.721654353042993,-0.002839114597755037,-0.000991155603589535,0.0023924558019833048
1746444524.0312252,0.16477381908329217,-0.12396046893771696,-9.750575337210503,0.012331866394180428,0.0120686797561095,-0.0022236591880883116
1746444524.0510573,0.19953272695117022,-0.12948474423176295,-9.635750386144053,-0.0013527902932521487,-0.003762273526908248,0.00010618268092477796
1746444524.0712712,0.03782059161602155,-0.007039151896982254,-9.866732046715576,0.009858040376817173,0.0027810063872316408,0.0002028034246856895
1746444524.0912805,0.054109252294240046,0.019152558779471425,-9.75553468609425,0.0024430317539784695,0.0012145080247105873,5.5697968723614514e-05
1746444524.1112232,0.19386663374357774,-0.10339094788915092,-9.650419917435647,-0.004000187444301622,-0.005592741395453311,0.0037438331857652845
1746444524.1312084,0.05012174234416693,0.05026804181500788,-9.716736490660383,-0.001743653613282503,7.715876612961279e-05,0.0004214349502222601
1746444524.1510699,0.02499154752131673,0.003516761832211027,-9.85781976648405,-0.005059376126097262,-0.006473952016234567,0.0038294359424249015
1746444524.1713874,0.014534163582468722,0.017720048490535736,-9.880622724731197,-0.0048822053583531515,-0.008805554279864989,0.005840570797389687
1746444524.1912048,0.03274799297229218,0.02050914248913981,-9.810426503998674,0.006434282729472524,0.00039935535162310444,0.000898311096399738
1746444524.211261,0.13778498926526847,-0.12821031722730375,-9.782472985501052,0.0031728774004122886,-0.0031740674892111113,0.0015982204983056936
1746444524.2312458,0.0905244079317804,-0.031345705360776986,-9.76379176350506,-0.01200425130174912,-0.01469436463484654,0.003529739702964499
1746444524.25123,-0.005734411555668256,0.04552343028913915,-9.826506270349677,-0.00554385139491879,-0.01625841680754593,0.0006863623610964984
1746444524.271389,-0.0980279209634019,0.25877793927112486,-9.844232883415238,-0.009648507867611815,-0.013269357049015452,0.0038723908171659077
1746444524.2912598,0.046155035178118226,-0.009525409328130261,-9.829689817801697,-0.0022507152153308945,-0.003764619820128578,0.0010141316064474516
1746444524.311205,0.12283438488108799,-0.06491659295719115,-9.733450540397202,0.011827002329416237,0.0035286981344762247,-0.0023351336377597787
1746444524.3312004,0.3087077470334804,-0.28165170277208507,-9.549733867908875,-0.006246851810293438,-0.01260714786915319,0.004775143231508841
1746444524.351135,0.05135277339961827,-0.10440886952830246,-9.856954336697179,-0.0018672618348411598,-0.01173520559784776,0.0035344679733174357
1746444524.371224,0.10975697990884102,-0.0728871212656697,-9.746300310535048,0.003067290186007785,-0.0062073239399957235,0.0017642285279336326
1746444524.391206,-0.11957365659454686,0.13730632628603492,-9.93634015183421,0.0038733654857700775,-0.005032667070364651,-0.0013178293473009898
1746444524.411228,-0.15502814874449897,0.18608418855016706,-10.039249248800918,-0.0031605327734310303,-0.01021142825383868,3.67381231232151e-05
1746444524.431218,-0.029682350278983666,0.07694268019891996,-9.914981392562643,-0.013097245696531928,-0.01799294306646807,0.001436759174610533
1746444524.4510818,0.3185782808110118,-0.3477953463655517,-9.526906457317766,0.00749990816361602,-0.004352954777751477,-0.0011019110004395472
1746444524.4713583,-0.0022676291704155083,0.022242399420271758,-9.823898558702185,-0.006916646068893707,-0.015396032857390869,0.005253855844427552
1746444524.4911935,0.16286251011254338,-0.2031649418548599,-9.809255709020695,-0.002518925908166989,-0.01248510860926532,0.0023827882928777926
1746444524.5112555,-0.03640044535171169,0.02608307636348286,-9.854654212163942,0.002688081590057499,-0.00857209283273986,-0.0014084597257256724
1746444524.5312462,0.09799079817391532,-0.05526352209443811,-9.688722720021651,0.008635882408856448,-0.005420202101426398,-0.000881539997758061
1746444524.5510828,0.002765494146021393,0.026681952596997315,-9.802632348535669,0.010623289852458319,-0.003648500946740434,2.9485115253702517e-05
1746444524.5712411,-0.21708217890236284,0.28136331303643863,-10.086009852120254,-0.0020723281392283402,-0.015382446753935162,0.0011170041647754995
1746444524.5913193,0.2111475200786619,-0.18431013319710035,-9.606041719738409,-0.00824156177401227,-0.018398996076428947,0.0011197229181876026
1746444524.6112194,0.04052031642950023,0.004939686015433642,-9.726485131813595,0.004213536680215667,-0.004730712046974888,0.0027398002451123164
1746444524.6314616,0.05211609934646175,-0.0658046704089668,-9.831671545739598,0.004190192799721435,-0.006258861646370893,0.0019327288929587715
1746444524.6510468,0.25193561683448495,-0.1855128921958624,-9.446630454649844,0.00027656854436633005,-0.009332857195354118,0.0012866662599854946
1746444524.671206,0.1586176167550201,-0.10660347327531004,-9.60080125963438,-0.008300687320111397,-0.019756273511818623,0.0018428785015973893
1746444524.6912146,-0.1360143602247711,0.12718998443414373,-9.922917756738508,0.014048445719103573,-0.0021592769402163058,-0.004510056530807256
1746444524.7111392,0.03791289150975795,-0.049562030318854436,-9.784979929061674,0.0031041897454131074,-0.011453492169942885,0.0026510594433486814
1746444524.731234,-0.0069782338180601235,0.02879780337180934,-9.790777084154477,0.012238131415216933,-0.0033290998861617276,-0.00015640804793284934
1746444524.7512033,0.049838375656139695,-0.055227116781172016,-9.746526581369626,0.005011734442517761,-0.008715777628879762,-0.001433225542563447
1746444524.771224,0.23536699268042433,-0.1965508326978264,-9.469029105103223,0.003287097518848521,-0.009669797744233394,-0.00029329457750732336
1746444524.7912314,-0.05316565595102894,0.03241989981446133,-9.919735174925155,0.005292451418801999,-0.006846018842168594,-0.001197322714923951
1746444524.8112369,0.05085037550355984,-0.020789834426184883,-9.656728994527825,0.0029783440649580576,-0.009064705327664352,0.000255979141186443
1746444524.8312123,0.11429921911320663,-0.1419506547489298,-9.68952641986844,-0.004727495187152919,-0.01701930127249709,0.0038657104017620833
1746444524.8511386,-0.0973635441654068,0.059791473439606106,-9.981399683167009,0.007337536272078478,-0.005002469216546482,0.0020083200090883764
1746444524.871305,0.0026897557810022926,-0.01621166696862989,-9.742907610640358,0.008068254719565586,-0.002722121417398665,0.00033781054444962625
1746444524.8911889,0.1487690928821321,-0.1537399842718222,-9.58826543290244,-0.00958082406150664,-0.017394646847898695,0.0018336070320836002
1746444524.9114664,0.171861177828226,-0.17312010359876098,-9.635666620449793,-0.0039031623483447237,-0.017047973127235987,-0.000902031518771169
1746444524.9311986,-0.014509591390673926,0.0324780704022941,-9.836061423409818,0.004467366769277343,-0.006606892344410713,-0.00041279272375922306
1746444524.9510949,0.1765228169939415,-0.21669198452910146,-9.585924511106082,-0.002725210165651694,-0.012402933269595413,0.0037578161521530607
1746444524.9712224,0.08368694922828346,-0.08975182035102607,-9.700196319516087,0.005191255228223119,-0.003911649512125773,0.002288919971522238
1746444524.9912076,0.01361468338087541,-0.03270154888354024,-9.729690179540432,-0.0008397887150100354,-0.007450842330435863,0.0011202783377801397
1746444525.0112917,0.012146786229203774,-0.02495990877142247,-9.76322499066477,-0.011938619474860957,-0.02018698398824183,0.0019429805467637304
1746444525.0312169,0.19835086080493938,-0.17273347898311622,-9.516102503202553,0.009361986864235661,-0.005081584520856767,-0.0012536495708622296
1746444525.0510726,0.004251222619300062,-0.018969045517574425,-9.76706141966508,-0.008353930528277256,-0.017100981031249015,0.006082525126899947
1746444525.0712068,0.1794022546218662,-0.2428236392751099,-9.501396311982905,0.0038733132115802327,-0.006191109241481306,0.0016531280951380786
1746444525.0911899,-0.10642054838050327,0.1186303618850381,-9.848192887048349,-0.0035471506227714254,-0.013436485371039105,0.00286737998089922
1746444525.1111994,-0.05591450287566642,-0.016606624998198108,-9.818220229543716,0.004457757011402755,-0.005481901433793006,-0.0025355458681913293
1746444525.1312037,-0.08914256670470219,0.0801928315850542,-9.927242130167503,0.0017682543069318874,-0.008884368452621232,0.0003448361420481318
1746444525.151135,-0.07406914644673301,0.024318818453106326,-9.852808568170337,0.008519393875289577,-0.0011941165060237848,0.00047402469704146944
1746444525.1712472,-0.09148059296872368,0.04930472109339518,-9.82613956805297,0.008265200056570644,0.002204530333336641,-0.0006061039400818912
1746444525.191221,0.16334084041973237,-0.16027490127947086,-9.508746537821681,-0.01592692369837554,-0.01742770477658251,0.005426348238769158
1746444525.2114072,0.29464749952307406,-0.35261143839746306,-9.306264404114748,0.0065378069269568075,-0.008200561435797307,-0.0045522791983693585
1746444525.2312403,0.0014402967953261805,-0.008110430180656259,-9.73363639425315,0.00787278254894523,-0.004034310012674588,-0.0013968361759148543
1746444525.2510884,0.03598080695781178,-0.08704248503409452,-9.631357240915374,-0.0070916365363848,-0.007599611187544361,0.0015299567179573965
1746444525.2711198,-0.09652496124694435,0.04896809523338952,-9.897556039547698,0.00655386821907232,-0.000202369335386891,0.00030787884253468724
1746444525.2912245,-0.07755176097209776,0.05771844951770021,-9.832506282426419,0.0011697306164928578,-0.007753024949205799,0.0026652976282387363
1746444525.311239,0.06103795495759077,-0.17862259027524266,-9.718239538142072,-0.008721347669819182,-0.01334803961513805,0.00320654119110667
1746444525.3312786,0.05868305824323414,-0.09609521900563717,-9.728879914784622,-0.0068528907419789275,-0.012225997610237438,0.002064785275761714
1746444525.3511448,-0.21366219489229,0.21889042459123612,-9.894075324768831,-0.0016629577563914148,-0.00398199126236687,-9.609051518064094e-05
1746444525.3712423,-0.07740906337065476,0.04488229043900107,-9.850558519088883,0.012673875227920899,0.00838020972568736,-0.000542150205639445
1746444525.3912241,0.02907175757755908,-0.09241871145610585,-9.678458771173979,-0.007883403764820496,-0.006259464009724464,0.003538815705731829
1746444525.4112315,0.15067491151294976,-0.182242095061812,-9.534261876812478,-0.007387972748749707,-0.010013903586740744,0.003664979048851545
1746444525.4312716,-0.12925882774555825,0.11219314835126495,-9.802791005458666,0.01068429691424999,0.0042291302884752005,-0.0017228488851923373
1746444525.4511113,0.03765783873515608,-0.06985196086983436,-9.684559598199906,0.003004054365647133,-0.0012814712615213514,-0.0029356440270562325
1746444525.4715447,-0.2545852322444928,0.22940810891741337,-10.035864243189216,-0.007691391597816404,-0.006257938283858813,0.005464659419420267
1746444525.4912577,-0.0516238016031332,0.032791819859941534,-9.737398697230521,0.0039021982058730816,-0.002545466367539056,0.0004576026439882183
1746444525.51129,-0.16696131266159664,0.12329189040176401,-9.982321033313754,0.0005408612955169971,-0.0011508443502575697,0.0022448045487680436
1746444525.531315,-0.06307723927939249,-0.022077905380312922,-9.795257151775758,0.001210747060018387,-0.00387932174257631,-0.00017921025275307993
1746444525.551076,0.04569390942009277,-0.08721984361001464,-9.666948761539544,-0.0005093471482040562,-0.0025905446342405977,-0.00042341679864161456
1746444525.5714056,-0.07239915023100288,0.04091674291196399,-9.888597961611431,0.0030432317096214592,0.0033453538588788037,-0.001658991693617487
1746444525.591419,-0.17336371641785583,0.033829884369219264,-10.035888767967656,-0.003548782066022874,0.00021141690297894397,0.004424816438484334
1746444525.611212,-0.02881413010394098,0.06371149965795017,-9.705475157780791,-0.005266622836132872,-0.0006091184547233851,9.964850309299893e-05
1746444525.6311975,0.023875882451167563,-0.06676204891428769,-9.667148620338212,-0.005655444845049662,-0.0007360805995051032,-0.0011960980770474388
1746444525.6511793,0.0640345294898099,-0.10537494213354417,-9.69726227736124,0.010382350484396724,0.013092549314556142,-0.0013915844684699867
1746444525.6711938,0.10136442819378641,-0.18147805724782726,-9.615508433996794,-0.00983480235540207,-0.002079551635576924,0.005879766852203125
1746444525.6912072,-0.103386723233363,0.12470011915793817,-9.681306333316389,0.0018718322726010554,0.005099921821968705,0.0008663563285812765
1746444525.7112033,0.05892863890213529,-0.07763019012413055,-9.621578462772668,-0.0024837173685091007,0.0026597855076962544,0.001105918214007991
1746444525.7314212,-0.19166161610317983,0.17344000513915644,-9.96405277325945,0.00733784843434971,0.009060298113490465,-0.0001223651877474679
1746444525.7513106,-0.07943610917320842,0.03676624327156141,-9.847802065451416,0.0032483185205465104,0.007275349623474785,0.0035958274282725943
1746444525.7715409,-0.03946930660131091,-0.025665043807814328,-9.796176869165082,-0.0030623062559371607,0.003963002228661695,0.0014704196925513307
1746444525.7915194,0.14649723167339831,-0.21657346604974298,-9.59572167287161,0.0015061332756990734,0.0031125505540346705,-0.001478648861767332
1746444525.811305,-0.23363424557643564,0.2311144512775784,-9.96530244935881,-0.0066821505544474216,0.0008557295366106816,0.0014824254450472693
1746444525.8312433,-0.07920083156337283,0.010918221441051975,-9.745622631523311,-0.0032658975933289387,0.0035809644566154385,0.00010722703711502763
1746444525.8511822,-0.03375219973369126,0.033455543151167645,-9.82841736389462,0.001393537805797262,0.007312709764554532,0.0035097300790477345
1746444525.8712285,-0.21929440036813377,0.14758288504566386,-9.992527629994145,0.00534710012503611,0.012497594211315499,0.0006785131358578893
1746444525.8920677,0.047815443603300624,-0.018448960381204353,-9.590949275335753,0.0035619191029023765,0.007988485390667707,0.0007253335251344082
1746444525.9115202,0.03395707317180337,-0.09408998058675004,-9.728468875631703,-0.00013046773162043575,0.00849591988498955,-0.0022955183258633006
1746444525.9314783,-0.10800000649643346,0.04056013123395866,-9.875411743457153,0.0005152930903186265,0.0063417757573849326,0.0019349471023077064
1746444525.9514072,-0.10733502614666175,0.03685250075035742,-9.989835963831602,-0.002557872194306908,0.005729848136682496,0.0014636663722746336
1746444525.9714315,-0.07716759081483439,0.008586832903810643,-9.830418377854292,-0.005508078091459814,0.006118637140176441,0.0015869399019929247
1746444525.9914544,-0.05068486793222357,0.0367709852757018,-9.761038067092551,-0.007737490163856036,0.00526866983995463,0.002497336198050875
1746444526.0115676,-0.06477376429329515,0.08896051785305703,-9.725744116401282,-0.005617881156083773,0.0011170536106844854,0.001108247654547156
1746444526.0314057,-0.09832753548757502,0.10004689168285358,-9.860111837011551,0.0004204390609200277,0.012512822394129361,0.001811145399879218
1746444526.0511525,-0.11331167121457991,0.07264656588600586,-9.906170741871897,0.001214348065775171,0.01154810654124468,0.002047403722009084
1746444526.0712442,-0.08642952882612197,0.07710893177111189,-9.839018367164558,0.002845291105435736,0.013954828352716796,0.0004178327766788236
1746444526.0914357,-0.044725801405649634,-0.01085147832421732,-9.86151945315119,-0.007552122531887404,0.006104347351804889,0.0003895750361793791
1746444526.1112683,-0.20255770015356817,0.16114300696486422,-10.032604973040725,-0.0013910067664665913,0.009075497299736153,0.0010925995652013602
1746444526.1313965,0.1889161543452298,-0.18711798593788245,-9.480367574391613,-0.006595486522761358,0.004659621072482451,0.001857550164451461
1746444526.1510928,0.09553502360349109,-0.2100911467330614,-9.780012143251655,0.009313738950269435,0.020051566797788405,-0.0007005338650893561
1746444526.1713896,-0.07761369304732006,0.08963383921859705,-9.889083673296703,0.004473700672360038,0.013191424221929584,-0.0016967748748373947
1746444526.1912773,-0.039856088918549484,0.039931843227889285,-9.829214232188066,0.0011354440585312979,0.013175884085211524,0.0007153507009064927
1746444526.2115686,-0.15082938272646249,0.14896439786945304,-9.921255075858614,0.01005424643211908,0.015280319824239543,0.0005957824535705627
1746444526.2313602,0.23088599030750293,-0.2578770387788002,-9.544022551513072,-0.006893741316649876,0.003293786737006717,0.0035764298472711685
1746444526.2511177,0.11257792756489486,-0.042941190672803595,-9.591656423304276,-0.0018390392509058271,0.009956897758943145,0.0006318441531579076
1746444526.271237,-0.07717439345979882,0.14718117162248046,-9.864321554212475,0.0013366597201820158,0.008078037510423644,0.0014999384621616147
1746444526.2914624,0.06285082166123715,-0.005048006720172589,-9.712826137788564,-0.0031980690583785906,0.00765318828231888,0.0032281671846334857
1746444526.3112814,-0.0858309996746111,0.13831517542892033,-9.901328023234413,0.005549948665162054,0.018062607072999115,-0.0005997152183752862
1746444526.3312588,-0.27546941199587244,0.320515239437859,-10.042414766695417,-0.011047954633440184,0.005297105896459921,0.003377623435471818
1746444526.3511815,-0.287259487720103,0.257404912674848,-10.209491943938737,0.0024875161363324527,0.014623422888895291,-0.00196559931995553
1746444526.3712926,-0.1859419950823144,0.15954872809360565,-10.065034089345644,-0.0038288167644445325,0.011686323085051322,0.0014808440461185435
1746444526.3914185,-0.09627603702217681,0.11164864951716426,-9.913244721667333,0.008325601488916862,0.016741444193209745,0.0001735418160861144
1746444526.4114032,0.24195917926797839,-0.24922842776861287,-9.553093266727549,0.019068950600948223,0.024639295165235397,-0.007180366837967402
1746444526.4314375,-0.0886381226004037,0.02214435385840221,-10.013474418905945,0.010611264588844387,0.021741543243365146,-0.004082538178927388
1746444526.4512339,-0.16378539685198445,0.1936249060984406,-10.068942687467489,0.0028058777834528525,0.012080459824260216,-0.00015952144930298022
1746444526.4712558,-0.09777563351240076,0.1088317445155904,-9.969491368574568,0.004493649600910869,0.015574215427716313,-0.0022754647638441646
1746444526.4913533,-0.04043263457794486,0.08081034794085523,-9.872999979559259,-0.001156245384458824,0.007069247227753875,-0.0005189934265616377
1746444526.5113642,-0.010612248661468534,0.09291567610797341,-9.749566732115888,-0.004246363400470965,0.0060804968678111505,0.001442197062404119
1746444526.531479,0.11855318873740107,-0.12412161039898012,-9.750219189556566,0.003980431704125507,0.0151360407507928,-0.0028279449243164643
