timestamp,accel_x,accel_y,accel_z,ang_vel_x,ang_vel_y,ang_vel_z
1746443793.1958463,0.38041810628676853,0.09102525182111854,-9.730316098400982,-0.004851400153579127,-0.03313056355606773,0.2167479414137971
1746443793.2158732,0.49804231413159067,-0.04471447424113306,-9.655916390917218,-0.010519153373437914,-0.036621667661959595,0.21689650053881687
1746443793.235707,0.3513028997473821,0.16393195251440607,-9.670415295187983,-0.008422090132548037,-0.037107007185849535,0.21929781082685126
1746443793.2554526,0.20928219008576593,0.20808255959843625,-9.914993865155255,0.006181311110220026,-0.033519512497290134,0.21181289774432388
1746443793.2757053,0.21581668237859825,0.2639676787036585,-9.88205795282209,0.014862087304762512,-0.027078922450401225,0.2166565958259989
1746443793.2954574,0.5111567512427273,-0.08691058924066455,-9.5002333706103,0.007497849456480136,-0.028565456857324503,0.21454600414920233
1746443793.3155642,0.3078639135995142,0.117379424745263,-9.770130422436782,0.0049677856916992644,-0.03632446971609287,0.21659530496918397
1746443793.33603,0.2138394273689282,0.2842168551677666,-9.808362305976408,-0.0039254733460703135,-0.04262022414065729,0.21884641694796664
1746443793.3555322,0.4269985131355437,-0.06081130284349359,-9.469716468964998,0.010173547908035223,-0.038293662696814765,0.2137277414778331
1746443793.3759298,0.15651302698121916,0.23507688129043702,-9.856664525492121,-0.0070780395770198914,-0.05893400688978405,0.21868232590607395
1746443793.3957877,0.1393682989232558,0.22946757044502109,-9.94034226452521,0.006292350417466905,-0.043997936053889145,0.21802278494819025
1746443793.4157517,0.1330085678654532,0.22534812837763007,-9.93025959012686,0.004632189766942182,-0.045903469869977544,0.21765418102309125
1746443793.4359102,0.23456552904357975,0.12082434075680894,-9.819413143126352,-0.007711702718424386,-0.0548357694446123,0.2184622290469299
1746443793.4555576,0.20171992648843065,0.17265130264855896,-9.721814852553726,0.0017594469427680802,-0.056105920388704086,0.21518677502122976
1746443793.4757702,0.13113037086855378,0.19882970301278058,-9.803582018626017,-0.006050420526798867,-0.06132869662929339,0.22065624085103822
1746443793.4957564,0.2919349897499319,0.09001706997033854,-9.563154998529122,-0.0010188396854561238,-0.05788709278811453,0.2158268716008019
1746443793.5158844,0.323912412880505,-0.008016945462467201,-9.65407415719543,0.019683655760670538,-0.03981403524724822,0.20976068094133893
1746443793.5357778,0.1699325626781822,0.2411432229077549,-9.657304782703484,-0.0025040508378687395,-0.059934365781963865,0.21883076252832137
1746443793.5555775,0.15389715117033728,0.19057887594891532,-9.636518025703978,-0.0011031972238606663,-0.06460903770899325,0.21726171338889091
1746443793.5758944,0.28669884553270475,-0.000383205620978988,-9.535787996078712,0.0046805627022384584,-0.05851805157519018,0.2149996600362717
1746443793.595718,0.05452311594798162,0.19477493373145477,-9.9043188746975,0.0008582607615237117,-0.06439996213268438,0.21651234157011978
1746443793.615701,0.03967986484959479,0.2804640219414707,-9.750630573162006,0.008754835795958139,-0.06020213903261179,0.21469220441348275
1746443793.635713,0.22375956398508964,0.05631687031595116,-9.646311590898797,0.015066782499019944,-0.053381094276254634,0.21565700269144472
1746443793.6555266,0.08382007254866933,0.12611962926007017,-9.747876946009876,-5.5978936652161145e-05,-0.06774939753797586,0.2120439634968227
1746443793.675732,0.3982446726015584,-0.18346317664548195,-9.315903189105402,0.005227746174429744,-0.062180241949275704,0.2143172765840922
1746443793.6957433,-0.08330528614196658,0.29238107737924984,-9.91392983799631,0.013963421454944037,-0.05476908451721586,0.2159647875347402
1746443793.7156444,0.21377746169899903,0.01719495989807321,-9.522995056526083,0.007578750114786686,-0.0636398463225242,0.2137037926992974
1746443793.735576,0.11250811869427592,0.06732277179345199,-9.74715603898121,-0.0012757556548876467,-0.06749765707343165,0.21833910624308833
1746443793.755432,-0.012204626730255682,0.0366847612818777,-9.924553363236399,0.011230882387135703,-0.05537649752242141,0.2117148698889253
1746443793.7757058,-0.1434573208373198,0.2280628814797603,-10.063304404227079,-0.0010841049849902125,-0.06496500343605639,0.21632363113591668
1746443793.795663,0.05132766309260719,0.15894225855064642,-9.540530966210223,0.009820074464709987,-0.06063502659709153,0.21521985904357335
1746443793.8157377,-0.3781742954138561,0.5160241197405325,-10.23257254945715,-0.0009897946278760337,-0.06819670258517904,0.21935698858830607
1746443793.8356001,-0.06264203611081558,0.21598772533082075,-9.842556747435285,0.008281058258494957,-0.06283114726893796,0.21524280136417157
1746443793.8555725,-0.1523591526632257,0.22662512478369895,-9.903879872944257,-0.0040229768980991,-0.07022342940667393,0.2137819692235396
1746443793.875747,-0.16556507893311312,0.24989499309191923,-9.893638116874756,0.006691828647086347,-0.057176555402324546,0.20855381485531593
1746443793.8959754,-0.2993488290686433,0.3807254015878211,-10.001020215768191,-0.000669073050605748,-0.06541587111489873,0.21326007636819103
1746443793.9158092,0.02490334727786042,-0.033887668347870215,-9.715994412893929,0.006697618604408824,-0.06156222262923281,0.21043069158818423
1746443793.935857,-0.039931592298494904,0.11676905857327802,-9.67783782288093,0.019913311285848147,-0.05089628220433372,0.2086417541095935
1746443793.9555743,-0.02766710930342814,0.03935488148899381,-9.594744541937061,0.0045196810212219,-0.055111299516333416,0.2120650268308693
1746443793.975898,-0.13303715481327102,0.10358755894957952,-9.738859406346506,0.0028383466606327398,-0.05979134970757086,0.21055326117111384
1746443793.995983,-0.2991262730001118,0.2601884082537894,-9.968691997631856,0.01867791755309072,-0.04302279981777048,0.2109550287840146
1746443794.0158417,-0.1690354852682852,0.19035294704415978,-9.789115713691892,0.005691115016276181,-0.051533479157939203,0.2097686397763517
1746443794.0358531,-0.006066780419391016,-0.004045340587807672,-9.699200638478825,0.01190236154523991,-0.04825647409275219,0.20956801575294398
1746443794.055541,-0.27262656198709206,0.20918805723124825,-9.826680618521994,0.018545336256540618,-0.03584209556804971,0.20498576395010767
1746443794.0757024,-0.22003253506396894,0.11141536162760272,-9.851066482649847,0.02755572067312606,-0.033310632425404635,0.2044248936598725
1746443794.0958383,-0.018053918403511254,-0.05345737308891399,-9.624108909539745,0.013014003542392282,-0.0427073690789547,0.20708389450302372
1746443794.115733,-0.2540758599485235,0.19872448895237121,-9.80731459732358,0.0134446487237108,-0.041246455657070503,0.20894478528633129
1746443794.1357505,-0.14995745810868008,0.15404290449844765,-9.646024823585368,0.010772503616805347,-0.04231333455972259,0.2095858614113352
1746443794.1556377,0.010467599362727287,-0.13527189075644994,-9.557253260326956,0.0153303518889751,-0.030510903631371086,0.20914406537088995
1746443794.175814,-0.23869307642536486,0.04875263237177618,-9.853262784579998,0.0025357469077308733,-0.03823114779147812,0.20570638336124403
1746443794.195629,-0.10532734359392765,0.03060117359888241,-9.61107038726585,0.010744598144508209,-0.03549955611368627,0.20764396921152317
1746443794.2156625,-0.42214607051850855,0.2818181767150437,-10.062664182549605,0.006197505372959504,-0.03757366035758215,0.20594138459351216
1746443794.2355983,-0.21101055388991494,0.10220281529502118,-9.732737454813508,0.008669631680095732,-0.033697708498446964,0.20738150922744544
1746443794.2554884,-0.016447744220681598,-0.14643396731198813,-9.565828507293334,0.0010918274756548819,-0.037250753503512674,0.20822859598716836
1746443794.275772,-0.12184754082586849,-0.0035769150173423636,-9.572354313841188,0.012483782814624074,-0.025698792098647942,0.20208201384521873
1746443794.2958412,-0.4426868337236981,0.33358098390684926,-9.95693328111786,0.02174817477449459,-0.014426043421496879,0.20384645029687165
1746443794.315698,-0.34551596163607945,0.20766301821867245,-9.934806292400843,-0.0006786846109311795,-0.03140686570412421,0.20748993721227071
1746443794.335693,-0.27784864675110466,0.08633258106615949,-9.877170652517776,0.015256534748677187,-0.017467929733313896,0.20393550956022466
1746443794.3554528,-0.3919584598975661,0.22092820783315767,-9.935270541035944,-0.002446447114386553,-0.024766661077493365,0.20707515232286958
1746443794.375739,-0.3464956068346422,0.22063151130501013,-9.823937771858324,0.0007033439201821635,-0.022455221276059978,0.2061976411845744
1746443794.3958504,-0.37753821616264704,0.17701626256393227,-9.929005712107301,0.010386432004048173,-0.012920063040222396,0.19763150182975875
1746443794.4157138,-0.20987568140083115,0.05207754568737373,-9.697442986954092,-0.0035537851914055757,-0.025006629100443184,0.2061155609204783
1746443794.435813,-0.19362511373219887,0.016278214385988518,-9.740969726474448,0.021784936300962898,-0.007167857475763468,0.1997436947435832
1746443794.4556065,-0.47465756805884385,0.2862014397151488,-10.045424137594843,0.005663855540510946,-0.008402527912128411,0.19964176451330518
1746443794.475795,-0.28798698791516875,-0.0012910284468147237,-10.000600795204681,0.012063884124600728,0.0004660058594570236,0.2020610067027852
1746443794.4958463,0.00619486886972237,-0.2177157241745442,-9.469333908253532,0.005419635263752358,-0.00896257109670572,0.20404890800741038
1746443794.5158362,-0.2743198386933004,0.08135251564726334,-9.777940723781713,0.0025643188496924044,-0.004605953687616831,0.2021031876073587
1746443794.5356822,-0.33823351545933344,0.14761545897372413,-9.806996390874856,0.01877855465779686,0.001934750306537478,0.19803373388235015
1746443794.5554388,-0.10511672564952049,-0.04290721121286023,-9.530176129400425,0.020250349080025057,0.018976346369543713,0.19638438698855973
1746443794.5758333,-0.48800700396452995,0.2853939889341345,-10.091493064428532,0.01633438413393672,0.012805680779625276,0.19791473951698973
1746443794.5955815,-0.1872185336659407,-0.0013898836143867166,-9.644390919930323,0.01817643710438692,0.01183340404688573,0.1966391322359142
1746443794.6157937,-0.5474118299457051,0.3671933674617965,-10.10521844705076,0.005304305666105432,0.008742483663610029,0.19899448230894823
1746443794.6356637,-0.36849812584917363,0.16309882343851237,-9.968242755498377,0.018710520381865176,0.014814650421980874,0.1957943781536045
1746443794.655564,-0.18511626155410696,0.07119486649838822,-9.655504537081598,0.01994571510802623,0.026985843894027077,0.19187148927940084
1746443794.6756773,-0.07477494271060972,-0.056694108078630345,-9.537148984616298,0.015011355259742152,0.022092693327133386,0.19380291085532164
1746443794.6958315,-0.1131566209635067,-0.09367228360019868,-9.666278081377625,0.010478898886914518,0.019646606532011678,0.19331472389019164
1746443794.715813,-0.5433355616064016,0.3227347646189641,-10.188592192082778,0.005448831400004313,0.016886462053876505,0.19514571082751256
1746443794.7357376,-0.03286055023662282,-0.20216066791228327,-9.56549749757889,0.007203813208859378,0.0153519898922302,0.1949137738468505
1746443794.7554576,-0.2786652923086585,0.08061832527183668,-9.900342878263096,-0.0020887854353355117,0.019201361272604814,0.19120260180976018
1746443794.7755663,-0.47711714219328905,0.31771622424579327,-10.076735382904412,0.005788279132170425,0.02781312602463451,0.19098519742143366
1746443794.7955415,-0.4479889439766668,0.2694437053666157,-10.094723004639167,0.00442516767380932,0.021253482470165612,0.19230905259560863
1746443794.8159082,0.019225100432577996,-0.17814907015512726,-9.57059663754413,0.019867409245678244,0.032707551720616235,0.18976635674480224
1746443794.8355584,-0.13086419398873456,-0.010342405004286445,-9.602769461706156,0.01099031764172316,0.02971612009296287,0.19143179347637646
1746443794.8555522,-0.19721736809279938,0.13539227232492979,-9.743345035772345,-0.0010735962056820942,0.03258829956155538,0.18996234128282524
1746443794.875796,-0.21156660213209855,0.05601867367994183,-9.884342776981374,0.002088747463759623,0.03680887226146597,0.18753951104790464
1746443794.895535,-0.0731585904676828,-0.06974833966639896,-9.667358535435154,0.005322605238483864,0.03565835870784911,0.18952652651884383
1746443794.9155521,-0.13113626281838436,0.04205808998639328,-9.711053636613983,-0.0009072800615810735,0.028125237605184927,0.18879397150835647
1746443794.9357216,-0.4814151282210193,0.3158442250494903,-10.240092038695561,0.021317080371532654,0.045732723076686174,0.18434470250681914
1746443794.9555619,-0.03263863131509315,-0.06213209625049279,-9.655872628161084,0.01880953098982755,0.056220014086498356,0.18121256210928166
1746443794.9756722,-0.1587499190755082,-0.008778604388467226,-9.906993727690098,0.005755036224549778,0.0426450460285589,0.18332539512347437
1746443794.9958777,-0.3349009895224988,0.17384434903470988,-10.097293790533106,0.014888248395078893,0.05228966539150673,0.18273873114004963
1746443795.0157154,-0.1289844575940674,0.009260702428100523,-9.832064908535106,0.010231478350073497,0.048367856158471376,0.18572044184618947
1746443795.0357687,0.06306213776814401,-0.17774980749227087,-9.59690364037703,0.0041567491467924406,0.04680238938448054,0.18724899540657836
1746443795.055605,-0.14944904141160079,0.08465103882442274,-9.901396083697405,0.008491592234436032,0.050105669217838704,0.1819413750922861
1746443795.075738,-0.0817282592249397,0.009677456110364219,-9.808853482441986,0.002540844248971312,0.04873581768820968,0.18061952208793966
1746443795.095618,0.07910590564585608,-0.08623016283574632,-9.635310784123279,0.012703189264182003,0.054742534259021015,0.17993987910990736
1746443795.1155596,-0.2685757211338038,0.1781998694430023,-10.120449995621605,-0.0007060008445813944,0.04772805974453239,0.18153673722575922
1746443795.13581,-0.38875545326624017,0.3353923368668966,-10.067146842021025,0.011921620053834356,0.05896069997784234,0.17734725533916554
1746443795.155463,0.06443960020373041,-0.09173460871031958,-9.726765164935165,0.007539039326379494,0.058699881534217485,0.17760964252872838
1746443795.1757674,-0.01230635947707421,-0.04562427765502471,-9.900634578995097,0.004307554710828606,0.05313270117935473,0.17743806773118337
1746443795.195877,-0.17850886620425999,0.21242207102114813,-9.950190870908484,0.007724949718031982,0.05924699586239768,0.1756559153256956
1746443795.215802,-0.1920168713554183,0.1666945573149192,-10.126912236460404,0.005817881145858301,0.0549103280602616,0.1766068279916607
1746443795.2358277,-0.2342449768344175,0.16916307448286697,-10.112834292056442,0.015373587343447473,0.06309392304228927,0.17345132928410245
1746443795.2554767,-0.008651226762972546,0.06465464053563928,-9.91666836424177,-0.0011513443656631177,0.04944205037601646,0.1729720707575315
1746443795.2756736,-0.14365975398433645,0.23445149483676875,-10.038485268913046,0.013872677036485979,0.0656472253407984,0.17130188486261447
1746443795.2956235,-0.01329524614740462,0.1713063605392481,-9.786846618302487,-0.004146302932082452,0.04464771952966658,0.17544216834832696
1746443795.3156195,0.08608203736958224,-0.032361347816597115,-9.771875952750554,0.010074690537047012,0.06084610639519199,0.17409988723504088
1746443795.3356318,-0.02853777137844212,0.044096495025699414,-9.884983013573706,0.006611962774066101,0.05672475479846524,0.17254491470860753
1746443795.355435,0.1798673127344053,-0.08141601875660208,-9.672869977724126,0.0071136694155103115,0.055071909821876604,0.1670185876235388
1746443795.3756504,0.36367569030603314,-0.24847847799460077,-9.50282733749342,0.017133046641392813,0.06813311197816702,0.1659846162002145
1746443795.3955886,0.18280196290701217,-0.09371767599943778,-9.699282189292758,-0.003627837301906441,0.05024099134842896,0.17180094748562919
1746443795.4156628,-0.02489813107865002,0.14228780334608315,-9.852466723248684,0.01177739150887425,0.06104038195454445,0.16989115342977926
1746443795.4356377,0.12778272017949815,0.010167077056065253,-9.763635593972072,0.001789826762343679,0.05470834909437993,0.16990763593633834
1746443795.4554322,0.2929030141230658,-0.17992417740739186,-9.62971097954007,0.008017566936834052,0.0555716735251041,0.16403624272009706
1746443795.475741,0.0499945706551757,0.13980221887164826,-9.921955878447813,-0.012554689036779329,0.04286426134070449,0.17326642643090018
1746443795.4956744,0.04443465829007996,0.08582086559196711,-9.995509907239555,0.004005852359570258,0.05069842476622926,0.16443299311203025
1746443795.5156255,0.05140431613014161,0.12792113203434163,-9.883868728417257,-0.00027181045568144027,0.04706485048918813,0.16394231941759252
1746443795.5357153,-0.01668403222208671,0.1804195389236706,-10.022703931208566,4.7720472191249436e-05,0.051286958043161295,0.16405519871038896
1746443795.555615,0.16648300860711063,0.10773195512445055,-9.763568757439865,0.001123984202182794,0.04519877671757782,0.16137417061308057
1746443795.5756316,0.14838536062609242,0.12288930141021323,-9.756327540350153,-0.00110749800496467,0.04268802547569677,0.16126206396783174
1746443795.595626,0.07758612118537558,0.08077732399929366,-9.879663065646222,0.0034202195746917538,0.047881853090322134,0.1642029135479752
1746443795.6156642,0.21080229234091719,0.021256585119882192,-9.755347369870105,-0.01863369524521923,0.030253762371719627,0.16538304051327854
1746443795.6356823,0.22385938504829828,-0.014200989185361473,-9.770845771792539,-0.008431500127838939,0.035148833983816186,0.16600963164776322
1746443795.6555486,0.21972508426884568,0.02539411222678948,-9.77291438542867,0.002212951305208396,0.037583848314184945,0.15875021004325046
1746443795.675809,0.02582897753778754,0.22270734591344304,-9.99170581495656,-0.010801352691543132,0.03126891435092432,0.1599666053457432
1746443795.6956973,0.38859810901941805,-0.14727067565434515,-9.515464472015815,0.008075208747076337,0.04372600762116017,0.15793308769606682
1746443795.7156641,0.38682564753597454,-0.16414284947454488,-9.668743707174482,0.00020925235001034953,0.03759715127593813,0.15864057253423267
1746443795.7357278,0.34997026540011494,-0.10729511318838625,-9.676518173439776,-0.012445607452063781,0.02911943285505574,0.15914191278735537
1746443795.755775,0.26068420910861884,0.06208558238336773,-9.827323753858243,0.0072297107732276576,0.038487147203173616,0.15407577387051635
1746443795.7756405,0.2580967831799576,0.0918815699482817,-9.652928514867709,0.0006586442789645805,0.028667360651372757,0.1539349894284845
1746443795.795834,-0.009570485375654914,0.27638169869834994,-10.191900550701138,0.00010385102750649152,0.02997324211920826,0.15442699480110364
1746443795.8157022,0.3617618161741417,-0.11103416067791697,-9.616794139433573,-0.0020850685069243205,0.032285262040433985,0.15340433425236313
1746443795.83562,0.19820565913700608,0.09323786621644684,-9.844287062789743,-0.004019444332920705,0.02892493296170017,0.15548772947955364
1746443795.8554528,0.2108617607461141,0.04295266880642917,-9.964248515432146,0.00952572566325215,0.030947818287453722,0.14616932802097085
1746443795.8756664,0.3035839583034703,-0.005094578684480461,-9.753034509948305,-0.0031604901068192233,0.01826127649203019,0.15141010844403918
1746443795.8960016,0.1523325191630425,0.14053122350699934,-9.954293300660805,-0.0006596991097040164,0.021629252292783042,0.15235958032310484
1746443795.9156423,0.34762715078827217,-0.0561320521923644,-9.818280453187285,0.0026696033222496883,0.020435839889724503,0.1486566204723707
1746443795.9357393,0.10139123574071807,0.15434645258056678,-10.097389035647877,-0.005590786002838589,0.016879170142890625,0.1538808236113389
1746443795.9555585,0.0791333338297113,0.2504266443978234,-10.04659689938921,-0.004073258531689873,0.006036395236795593,0.14775531393544358
1746443795.9756722,0.11883040882355012,0.2200609562994029,-9.94790945446116,-0.004576919210169261,0.005839455547754358,0.14506458138219275
1746443795.9960663,0.21176290640872064,0.16249138850831332,-9.802628979465911,0.00895100063706021,0.017096016590834776,0.1456013426872519
1746443796.015611,0.2628398618644135,0.029533546339106473,-9.882913060928677,-0.0033663307188026032,0.00758402401051023,0.14847378839647385
1746443796.0355783,0.0459810595374871,0.30302365050238833,-10.04736352610498,-0.0033156342076484874,0.008421676753561218,0.1460098361879238
1746443796.0556324,0.28272377161648277,0.014762020382641631,-9.843278423899543,-0.0032290271991328233,-0.0028247470021129243,0.14396774559444678
1746443796.0756671,-0.050624605208968776,0.32789347752120734,-10.2250624516088,-0.004318628356005417,-0.0015796211546514703,0.14297925485468932
1746443796.0956054,0.18239723242498868,0.1078317223065744,-9.901430855593771,0.005424828539704723,0.004666516063354893,0.14089638177738975
1746443796.1157892,0.13255949126693142,0.1577334258961836,-10.04014006164472,0.010838383656653046,0.00833917482654212,0.13791322550435095
1746443796.135766,0.39703605873492254,-0.023929377331483148,-9.604969111478713,-0.004098249396084385,-0.0004154108586079375,0.14146702972508188
1746443796.1555564,0.2635470269041079,0.09942758923608544,-9.656567486019757,-0.01362857335279188,-0.020313357420967623,0.13915432512875744
1746443796.1757073,0.18610577677882625,0.05904887964418634,-9.993977984566312,0.005105976064648337,-0.008904455008131286,0.1391235282230835
1746443796.196086,0.4076017983166793,-0.08066561736628709,-9.551775942387481,-0.00018082426476551442,-0.008895761436712531,0.13494527000313852
1746443796.215693,0.5122904738615386,-0.205329095970182,-9.48447594512542,0.0031904410174433077,-0.007565064635139395,0.1358119065544706
1746443796.235781,0.2725834272695264,0.023641787608639678,-9.760166603799554,-0.003953157239405477,-0.010616325946261863,0.1399185860742574
1746443796.255497,0.2683860766516369,0.03441915455736033,-9.803713634156008,-0.011655739174163052,-0.03141581499928005,0.13674224159846002
1746443796.2757082,0.13936837894067,0.1211656716029311,-9.969259147370247,-0.01333032568286231,-0.03079045837466144,0.1316321234993299
1746443796.2958763,0.35500448380665944,-0.03297887419289873,-9.536456379761471,-0.006861323049001405,-0.02285774056675478,0.1330086334292096
1746443796.3156683,0.027645302486505263,0.2544207464049314,-10.060972565418108,-0.004599271827889042,-0.02473345609921019,0.13233777244456435
1746443796.3356242,0.3690554957722772,-0.11419561256209179,-9.608990602300567,0.0003449744011193021,-0.020881009476331033,0.13262035040205591
1746443796.3554602,0.2243162141776314,-0.011814108598452847,-9.835181966274876,0.00785412328215831,-0.023258763729429435,0.12705472485647218
1746443796.3756232,0.34582440699767225,-0.06410088049844889,-9.579522962849994,-0.0026142722585297245,-0.032680549289124304,0.12726556309273004
1746443796.395626,0.06587542315990544,0.1945168250920082,-9.87893760661739,0.001495448698680937,-0.029350650821723848,0.13044091787974985
1746443796.4156423,0.20771914827257604,0.039389518857905495,-9.752463188085141,0.0023217936522579906,-0.02842916938821072,0.1305346550956741
1746443796.4357393,0.30276014631968806,-0.07694453420263088,-9.715639884567366,-0.009656778158595255,-0.03629777609078935,0.1303304242651827
1746443796.4554462,0.2009253631386445,-0.0889811341583521,-9.87195883583677,0.0030379467715630423,-0.04107708079940398,0.12292232588497654
1746443796.4756875,-0.05518847231122734,0.2616388357784026,-10.099842168589285,-0.0043455199702069295,-0.042863640131311324,0.1212356611112027
1746443796.4957173,0.06839254312534555,0.1415701408439467,-9.84210376241948,-0.013345676059666791,-0.049283136343753794,0.1250809260583113
1746443796.5158017,0.16220281627281669,0.02938196907427644,-9.864987556090343,-0.006103136706205445,-0.041049243820720796,0.12339065679796789
1746443796.535814,0.16426862564765807,0.033207441879093184,-9.785910511632135,0.010390386544356419,-0.029640506019953876,0.11959163387289724
1746443796.5555859,0.20787685969491976,-0.09286932069808997,-9.812858993883982,0.015258609791435798,-0.03164538413532959,0.11604373518501396
1746443796.5759616,0.3291015020790439,-0.17309211000017755,-9.476767394106142,0.006892643896450787,-0.039233440687568004,0.11937747100517779
1746443796.5958984,0.142386678333876,0.06052164902858584,-9.718915541097319,0.0010967299619906476,-0.041538495325602484,0.12013307030676547
1746443796.615777,0.32222850288320015,-0.16776157438536157,-9.55283481379863,0.0019753373282809057,-0.03879564624915145,0.1175451768766747
1746443796.6355064,0.03261463229846774,0.14541605407063884,-9.813685965051755,-0.0003590025996183129,-0.04371362670621174,0.11901068486658278
1746443796.6555154,-0.13110197672143326,0.22729797202165894,-10.007591444762413,-0.007288017981257664,-0.0558639984668079,0.11601487402452823
1746443796.675732,-0.1949993942298111,0.3084639426293509,-10.142062080970513,-0.0009430576582835912,-0.04795343894455904,0.11462808983467303
1746443796.6955478,-0.004028071793857765,0.11893590651407134,-9.958269563770227,-0.007354303381085576,-0.050797516364759904,0.11589343877126261
1746443796.7158272,-0.0711609063496152,0.18525648915119547,-10.014480397298966,0.004367729652003248,-0.0392426020222968,0.11397440519149726
1746443796.7357256,-0.09948666888518652,0.19867737746597564,-10.047840847173848,0.009819147088662362,-0.040285068572600315,0.10919081288575178
1746443796.755476,-0.21524485392243065,0.31688792270748767,-10.032014044916107,0.0006334873936925051,-0.0448244649099322,0.10962373648062544
1746443796.7756257,-0.013898644263861618,0.06003836723050898,-9.790880173662337,-0.010896843306688875,-0.059783868328128376,0.1129668515345211
1746443796.7955503,-0.1942064564660001,0.1812229985485238,-10.264920270431706,0.0064325367424125125,-0.044394516065282226,0.1099464264142074
1746443796.8158336,-0.0656916435972226,0.11432202268971436,-9.919198968437952,-0.0021042492266278977,-0.04472182316386953,0.10941206516152964
1746443796.8357203,-0.08400197633199186,0.1951146294549977,-9.827981017537814,0.001428391076656375,-0.045293648329096756,0.11086341462487646
1746443796.8554637,-0.002242758875396527,-0.006791735605062462,-9.79604114343198,0.014519838612359141,-0.0401960543917777,0.10192654478947553
1746443796.8755786,0.09489843212765295,-0.11719091773410692,-9.622159968528749,-0.010386825493442395,-0.05661297613003264,0.10878938915198916
1746443796.8955514,-0.020821475295108208,0.015177999673401214,-9.810365921944332,-0.0016779281854032184,-0.05047067939573549,0.1066609514698038
1746443796.9155452,0.0417759763488164,-0.06129742945445237,-9.67592923570257,0.011342947264791426,-0.04218394788160956,0.10480545533995266
1746443796.9356544,-0.15401271107343306,0.17812917365071104,-9.94000196894982,0.00515504885603091,-0.04757763602265983,0.10292016733400232
1746443796.955454,-0.19898176235443735,0.17019996084834324,-9.894576223999614,0.003771385060853594,-0.04409727250443485,0.10373563254447628
1746443796.975717,-0.2536208424415796,0.18723598570363317,-9.973500370369232,-0.010121316708591378,-0.05688162233217425,0.10341014403636926
1746443796.9960036,0.05295703539018416,-0.14410088407545793,-9.598291266952979,-0.004843718625666941,-0.05140472232475484,0.09939872661297795
1746443797.015699,-0.2444632453773129,0.18982572146719562,-9.97598520128758,-0.015853686203288874,-0.05876925904862637,0.10351287221412646
1746443797.0357754,-0.032055105759106736,-0.04340656146798257,-9.753813812076084,0.011881503425135439,-0.040489841518938155,0.10322999367684085
1746443797.055575,-0.05513105273262273,-0.059380043818763,-9.792103505472946,-0.004856214494166841,-0.04764006098917383,0.09913279587352483
1746443797.075794,-0.05016157214543178,-0.0806619813372742,-9.77720770699614,0.006059294763394658,-0.03604863563325139,0.09917753251889391
1746443797.0957494,-0.1598610205918488,0.014951308140446266,-9.951524870600283,0.00025327343115377223,-0.043010358856920165,0.0953105152895484
1746443797.1157806,-0.031627453522024104,-0.05498779212131289,-9.71464380956942,0.008487633457062414,-0.03749557072455029,0.09524016042508482
1746443797.1356516,-0.055806618229507235,-0.01748953954272453,-9.729483454395856,0.016223073364464886,-0.03223564477007614,0.09830491112025617
1746443797.1555572,-0.10884169488968694,-0.038841756509118926,-9.648661778779694,0.0025393436816975846,-0.03730733520034727,0.09384673348070013
1746443797.1755693,-0.09216769979182762,-0.015624987384519003,-9.69052575182375,0.007612459639971578,-0.033061085920718804,0.09039233049246506
1746443797.1957557,-0.22968496960971935,0.07355909799919175,-9.807627555292305,-0.0018966310895607622,-0.039216302417064225,0.09373884470583362
1746443797.2156155,-0.06331729692044914,-0.07374038631191598,-9.651114274433684,-0.0024382163360440125,-0.03814907573763863,0.0962145386704547
1746443797.235675,-0.2912362305517686,0.071727596848699,-10.066144994429846,0.0020211257807843776,-0.03994060348334334,0.09318654041627096
1746443797.2554965,-0.4697472178870257,0.30845697366508845,-10.06185100667914,0.01343519690313644,-0.021790122688325073,0.08552749051307398
1746443797.2755637,-0.17704082551699019,0.014027188159266827,-9.836679230399232,-0.004788704152484085,-0.03323755793306071,0.08936008571151446
1746443797.295917,0.15169637019588159,-0.34699114618652,-9.398527948755742,-0.005837689673945344,-0.035279311483265983,0.09329174826796499
1746443797.316076,-0.3254511947579981,0.13284424120685917,-9.971417260251974,0.0010834898664399838,-0.028215491620324818,0.09064908116405215
1746443797.335988,0.039718210502798945,-0.23411291700191028,-9.505424747555828,0.006543082433726978,-0.02381498496947869,0.08768738694558281
1746443797.3555965,-0.113648441537561,-0.04071243811510651,-9.670833823942166,-0.0061332928048874295,-0.027047603687756133,0.08846090355679782
1746443797.376353,-0.4449475606004002,0.2382972173920423,-10.083400237461007,0.009414161403876253,-0.01178500813683521,0.08452175417333455
1746443797.3961887,-0.35496711934357084,0.20892513223526485,-9.900778703448344,-0.007006698650242558,-0.027472437750939455,0.0884409134199015
1746443797.4162755,-0.21755938276105707,0.017538044946996255,-9.76970102108355,-0.012759266307884633,-0.03439443340372453,0.09024882283276231
1746443797.4358006,-0.5770692944604144,0.3509257094747692,-10.233245687517815,0.006070486242962022,-0.01721748904269642,0.08492221644343109
1746443797.4555163,-0.09073674096462792,-0.08509633607331923,-9.506366380494098,-0.005159742715514564,-0.013710957364322858,0.08387667860446285
1746443797.4757419,-0.24954581310452156,-0.07352854142961233,-9.924275580821794,0.0005365768707797391,-0.013694866632232669,0.07855163849634743
1746443797.495984,-0.3534293228085222,0.16589030603851018,-9.884158343008835,0.012911118004831641,-0.000982860221257792,0.0770761642136806
1746443797.5157971,-0.35401167494080527,0.1482244364355923,-9.889739983104526,0.013059047735362636,-0.0028922385533402956,0.07912576105600289
1746443797.5359104,-0.19511755519587437,0.016491531375168143,-9.655940365432565,0.0024537986534350674,-0.00897661938473075,0.07854549223378175
1746443797.5554767,-0.09402667064696599,-0.2138735958949114,-9.693051441955244,0.0026973068573480185,-0.0035718291024289008,0.07708051853089268
1746443797.57593,-0.005056961267093929,-0.3135813507472691,-9.572030297950947,0.008704576890935449,0.005983650203870955,0.07413104109537907
1746443797.5958304,-0.2803994890647589,0.08984658438493204,-9.82171566661363,-0.00240199427586418,-0.005784407418353712,0.07822427966207149
1746443797.6157115,-0.00580938952723431,-0.24631910740531843,-9.551626945113403,0.010550735688089872,0.006114769110669123,0.07472359429037342
1746443797.6357956,-0.11710045196164608,-0.08242709635987613,-9.587224630371692,0.00912958494041624,0.005483063302948453,0.07608330374455904
1746443797.6556091,-0.34677135061835385,0.08795133589435296,-10.00579577915986,0.014044093533009876,0.02012408649804311,0.07054001689598152
1746443797.6756577,-0.15552133329208567,-0.1260993157417538,-9.725752584471808,-0.0030419759883353204,0.0015316687927080823,0.07088310194376114
1746443797.6959853,-0.2886118167837029,0.05281973109879745,-9.840210739246489,0.012115672248096045,0.01207903645756122,0.06968538230366085
1746443797.715838,-0.46979167001221356,0.19875845885180318,-10.208474196349693,0.006517631376088281,0.01138145256477202,0.0700308340928523
1746443797.7356982,-0.2200720331131237,-0.02141783189263738,-9.796696896467267,-0.003346401339089692,0.003745433830323671,0.07403947655603016
1746443797.7555294,0.08113633219893782,-0.34408267496223904,-9.430634477512895,0.007940725794999779,0.023766720609513535,0.06864531416366375
1746443797.7757874,-0.3303568009442928,0.04963634421322999,-9.981777665953166,0.004871866234405717,0.020269268094457324,0.06863595252117474
1746443797.7957044,-0.4048235326965989,0.19995228763554126,-9.978528708656606,-8.655633178804843e-05,0.013361236101330262,0.0674877563804814
1746443797.815804,-0.30911431405878365,0.054813409091768135,-10.031749403468654,0.006941339987645583,0.01876255859040315,0.06784387275200814
1746443797.8357687,-0.5525134327417477,0.3491036152266531,-10.149667984717983,0.0028586444380020986,0.01547442208280894,0.07020157080944123
1746443797.8554847,-0.3624009072493152,0.16967344411935525,-9.877081259919242,-0.011457056939421433,0.018452020009549694,0.06778519874176742
1746443797.8757684,-0.1688306411570304,-0.07119552794714473,-9.802455354193043,0.008936856528738211,0.033443696614183796,0.06394577122240391
1746443797.8957412,-0.02681969682238347,-0.19208421953919488,-9.613441473454131,-0.0018067365016425194,0.027581977343100778,0.06594325920492128
1746443797.915681,-0.2608530052127424,0.05044131461167677,-9.879599835650037,-0.0034253640667768646,0.018756138495570084,0.063742492172509
1746443797.9356606,-0.026862030853178537,-0.12502319824095368,-9.445748038425053,0.002271529521790869,0.026307246956675825,0.06286843840145762
1746443797.9554334,-0.04025597867032912,-0.12384052526480638,-9.619121820691149,-0.008489217682205945,0.026500110644158678,0.06247850789482691
1746443797.9756484,-0.3608754779168887,0.17884553018313468,-10.051717643612676,-0.0043162122383541175,0.025757803578688968,0.06249701189723893
1746443797.9957933,-0.047954362173629195,-0.102088915639044,-9.634796535112496,-0.0036386625192514127,0.032671445590196774,0.05928986352057717
1746443798.015673,-0.2810012750038837,0.07551361821576509,-9.931804490346352,0.0029860697421978883,0.03166788357540969,0.057972361618764116
1746443798.035667,-0.1397574523721899,-0.03448003666881825,-9.78478206801703,-0.004767594864593395,0.026190905636808374,0.06312870455222033
1746443798.0554497,-0.122677933695806,-0.05409706071248802,-9.827896380386012,-0.004023893010636641,0.03307145343774029,0.05795902243432561
1746443798.0758147,-0.4043261130613026,0.33411903816369226,-10.100523252905315,-0.012654357513750292,0.028717612461956973,0.05994989500038145
1746443798.0959072,-0.2911669628032224,0.18106208062286405,-10.01786249457771,-0.0007248629415718228,0.04085650922186418,0.058700084811026156
1746443798.1159294,-0.405578127859038,0.2467762357738463,-10.149357807577422,0.004709535798899008,0.04012333013471218,0.05495886215471424
1746443798.1357737,-0.21319656712456347,0.0798043121656028,-9.877033827925725,-0.000793428209061889,0.03593845588990846,0.05706967832045364
1746443798.1555717,-0.31382933955394077,0.2529509903117251,-10.044328953667526,-0.0103058949978715,0.03151344037252836,0.053299836380651056
1746443798.1757655,0.03432867980528044,-0.10691511535949921,-9.645110531571829,0.011612187535141594,0.050151670628445354,0.049206674499568455
1746443798.1959002,-0.07797763522002742,-0.013071764110032651,-9.837037220332553,-0.008089486707008875,0.03527131462101624,0.055610369380292804
1746443798.215715,-0.20327609961097393,0.08191038608402304,-9.855496592905919,-0.00549935449857276,0.03400678876259772,0.05515279487753329
1746443798.235813,-0.17074887659605784,0.02583331481167863,-9.941353260548713,-0.004191530848423414,0.037564396894633235,0.0548117494327089
1746443798.2554386,0.09213702690592518,-0.15538615720488266,-9.682918549555255,-0.0003250778219131067,0.04331419658089336,0.04972276862702435
1746443798.2755947,0.06923489722205828,-0.1795480530988575,-9.797856547992597,-0.0030206864545027938,0.04106292919346775,0.051820676468826175
1746443798.2957423,0.14167238346697614,-0.1655252233399857,-9.666158198310733,0.0029791721786062344,0.04917519881335345,0.052273075288513396
1746443798.3156703,-0.09865904112010128,0.05827914511271254,-9.884695684858949,0.0055733226507711075,0.04589789455265664,0.04919684269462554
1746443798.3356612,-0.12819290400477706,0.004419820830095966,-9.999870403115263,0.012629296014007722,0.05485704794706307,0.046839215080150515
1746443798.355466,-0.04763353985688705,-0.007702217278123067,-9.923478740884242,-0.012146712280345948,0.04029727464919646,0.04965141966173674
1746443798.375663,0.015863146950990906,-0.0778941898240193,-9.840295946839712,0.00012706084385879287,0.047109762003937225,0.04661838706458105
1746443798.395766,-0.21084504611328836,0.17298298292896785,-10.069212035660483,0.011995329237430304,0.05151992094854067,0.04317842821292175
1746443798.4155922,-0.02840183201620411,-0.033378710532357074,-9.96688283390748,0.005484719724893853,0.04729850843958092,0.04476177909575064
1746443798.435601,-0.4789664521385863,0.44741351008538044,-10.434495461415592,0.007633340314948023,0.050598764423628304,0.04372752389231474
1746443798.4555583,0.0768569128130375,-0.06451079937643958,-9.784164559310646,0.008096072638591627,0.0539389482850961,0.042417915520339224
1746443798.4757345,-0.16712390671920435,0.23015681423958353,-9.934911160684932,-0.003969692240898183,0.040937558445281665,0.0431451608169605
1746443798.4959161,0.023655637234037765,-0.0010746170844429907,-9.800103090375346,0.00511515764351442,0.048052393309451324,0.0409167048425851
1746443798.5158064,-0.11569967205904708,0.14431043470683907,-9.965397446091327,-0.011868066606045446,0.03626357788157966,0.044964208980823185
1746443798.535773,0.2907838211004311,-0.3058934594358668,-9.627319334785307,8.537413300466234e-05,0.042561292472946065,0.04199987982888887
1746443798.5554607,-0.03259813734214766,0.10268434490858735,-10.009510118251319,0.004769226598871546,0.04585643030080532,0.037921840339127315
1746443798.57574,0.07513624537125346,-0.06563940450946094,-9.916521078966712,-0.0025747193066907224,0.03667965379533526,0.04003929544263877
1746443798.5957956,-0.04039387274313891,0.13388484157279196,-10.003602406877931,0.006025894272722312,0.04595867472836628,0.03790050671127749
1746443798.6156533,0.07784433834276705,-0.07869921955641182,-9.895293364039926,0.012284872449807284,0.049747849328530686,0.03358885871235419
1746443798.6355798,0.08108437475234141,-0.03019222808909399,-9.806438129140572,0.002703648591310471,0.04589446070109157,0.03735411791848114
1746443798.6554565,0.031560981379377184,0.057905144685769766,-9.860732224336566,-0.00019556986522956045,0.0380520191919154,0.035971384778200645
1746443798.6756048,0.0028993499755965157,0.08859620594349135,-10.066603022050842,0.00135792133681306,0.040132723085916824,0.035831920743975364
1746443798.6955154,0.0924666206434939,-0.0008194326106314952,-9.940199262018004,-0.007772219213865353,0.0315759757682102,0.035569960887059486
1746443798.7156453,0.012279935598687244,0.11651334798637922,-9.953549216636373,0.0033769956831906237,0.04115270168434332,0.03461803554790909
1746443798.7356396,0.1534370703812352,-0.05235498881353817,-9.834463588935652,0.001313833685716351,0.04042327871782722,0.03993894421967856
1746443798.7555556,0.38926902757268766,-0.26778947474898446,-9.642062762016064,-0.0015407040498577136,0.0271967271320425,0.030914680400709386
1746443798.7756546,0.3025743127922519,-0.1820197476927518,-9.677666109967193,-0.002846047174264857,0.030448963552933025,0.03259619305788799
1746443798.795534,-0.046219789799174404,0.15300497177229722,-10.06187231202957,-0.016278392441859572,0.017749463409816486,0.035123140445864905
1746443798.8156166,0.19018012308483892,-0.07946741852727204,-9.819740251282273,-0.0023803011587442565,0.033410167947388256,0.03274750577273373
1746443798.8355348,0.09567459343133487,0.0017560805668385693,-9.933371024279989,-2.5353859401298483e-05,0.03362347063894359,0.03334456559105495
1746443798.8554265,-0.14239363533997326,0.20724656534557662,-10.338797057981632,0.007211226804388298,0.028541835534984437,0.027867079889591622
1746443798.8755424,0.27286634337135085,-0.1575757654218182,-9.716869693934113,0.002745490956949399,0.02476362431098808,0.028587620799046056
1746443798.8956156,0.3470331539455841,-0.13855647236068275,-9.582244478361542,-0.012041195162916466,0.015011375366254583,0.0300271254180558
1746443798.9156065,0.16352776260569243,-0.023730278694316126,-9.885618637059553,0.005465953643933142,0.02891206180431221,0.030240987080469642
1746443798.9355025,-0.03508246978155319,0.23450485353171752,-10.035060957637011,-0.01120241782208518,0.014770684662719483,0.031029321578752496
1746443798.955387,0.04718188728447609,0.20675279185153872,-9.923885068603564,0.008868001429818301,0.02389559190790237,0.022249686810302982
1746443798.9755223,0.2262923152934724,0.027075241818122896,-9.726743742731195,0.0075338994769610125,0.025413164882494288,0.025096417892321407
1746443798.9955335,0.26175060328196753,-0.05489138724217613,-9.6946778885439,-0.008933356546908832,0.010563477253913716,0.027800327846331727
1746443799.0156825,0.334321514073497,-0.18797595692369395,-9.664817611391411,0.013725551618454054,0.02480022905414686,0.02247402185439156
1746443799.0356033,0.40357003449461293,-0.2971208630042337,-9.700667907818685,-0.0042839690465792885,0.010605336284979857,0.026146796145236472
1746443799.0556033,-0.02591147023947349,0.20639799556617583,-10.125856760736978,0.009715308150286314,0.012134922849292667,0.021764038980762245
1746443799.075622,0.42622264309740415,-0.2778139860951772,-9.623975174025244,0.005250069016095766,0.010906027899122053,0.024529812748838163
1746443799.09564,-0.04657941037108149,0.23099381798485963,-10.079316064212199,-0.015282546976532533,-0.003403108525995645,0.024346201681662853
1746443799.115514,0.4169551756802117,-0.25055722556041726,-9.593871465250206,0.0070665583590316565,0.01466024271536955,0.018162142079541744
1746443799.1355126,0.1500602407962195,0.038859646120824154,-9.840053156152134,-0.0005805321116843984,0.006463090132076755,0.023878590656879608
1746443799.1554644,0.2670588793774979,-0.18373193041573077,-9.88174484857935,-0.014240944328965277,-0.013930016609311986,0.0215865228202473
1746443799.1755269,0.20470713254368667,-0.053928514878972905,-9.879054797171367,-0.005237638773041995,-0.0020906669757258392,0.022753084930588665
1746443799.1960332,0.23595439483934114,-0.032506920832277436,-9.759988792226153,0.007587776606528656,0.003775440839754891,0.01854222192551561
1746443799.2155359,0.3789765890433153,-0.15813061875511134,-9.559366448704209,0.011826050281621748,0.003295254710337814,0.016286081828953518
1746443799.2357442,0.37749587144783386,-0.17971087237038794,-9.629027327736628,-0.01580978981272276,-0.017153706944574798,0.021717187551649243
1746443799.255471,0.029147696773593468,0.11523626370412685,-10.069687523084678,-0.009253854946759538,-0.01607940649736573,0.021491971318155934
1746443799.2756314,0.19065610532966723,-0.002270303859896631,-9.781221679328333,-0.007800118002024753,-0.013604463239859069,0.019263737582296794
1746443799.2955282,0.13592141246846876,-0.012447497440677333,-9.99890012217475,-0.0067391820321584025,-0.015521277709937178,0.019635383698305434
1746443799.315497,0.16473274046043218,0.045013130514046124,-9.802616603831652,-0.0054994541062100165,-0.014419171318252544,0.01736896242271459
1746443799.335458,0.44587316171681646,-0.2610345655944234,-9.467817032334805,-1.7134219076779316e-05,-0.008542347964668136,0.02000307281074936
1746443799.3554404,0.0786710800654669,0.13840417608619388,-9.83925315744078,-0.006364531263899542,-0.023527324318359785,0.018887895280446983
1746443799.3755448,0.16304707516933847,0.03445635547678138,-9.786654510569514,0.0018606311808933272,-0.01391798366939627,0.013160284167902358
1746443799.3955116,0.44299138294056345,-0.293988473462633,-9.51315810493433,0.008215119556541148,-0.00823546780338078,0.014878849098291949
1746443799.4155934,0.3562246548144475,-0.1381423865576978,-9.459434688480512,-0.004015088671074382,-0.020214104308980744,0.015338811320002494
1746443799.4355192,0.19336832422314093,-0.00497558031658858,-9.816743684202443,-0.004469924258090442,-0.02253432661881548,0.015607450443687998
1746443799.4553854,-0.0812132531350857,0.24719187785056315,-10.133623112791515,0.005951787996601995,-0.020061908878632295,0.013166043001362409
1746443799.4755921,0.054578003327693386,0.06243809672711219,-9.97920708762373,-0.0023826469841189304,-0.02720470963220194,0.012391185294754432
1746443799.4956038,0.04552118702857466,0.12757930249603402,-9.889896105703677,-0.007115921021196836,-0.03129237391582784,0.014470004149545811
1746443799.5155392,-0.05975380729072827,0.12952214592300348,-10.181489196718314,0.011174892468104807,-0.017316498373506094,0.010662157091974466
1746443799.535527,0.24997347232277242,-0.1365661453119344,-9.724141320726739,-0.008161659810172302,-0.029781277179044992,0.012217601788379405
1746443799.5553904,0.17635090659256702,-0.04517905919855805,-9.718754083282207,-0.010587927181868056,-0.03862882853181653,0.011788427294683186
1746443799.575679,0.19915482071867793,-0.0681538725986691,-9.71315404941793,0.005514496146745301,-0.027469657455927648,0.007661904740641992
1746443799.595584,0.11251550363059656,0.005237297347200465,-9.890435918952745,0.0013439122969153513,-0.028474647238381837,0.01002853457421389
1746443799.615651,0.08855735734455208,-0.01645516323098288,-9.887122663402943,-0.007376215737689377,-0.03616157774306679,0.012564868293114302
1746443799.6356194,0.18368327440855592,-0.056572858413543176,-9.677278036058718,-0.007338831698790137,-0.03558085234212876,0.006941964690806999
1746443799.6555567,0.03013473966138809,0.00013214533990524302,-9.924314709848055,0.002579655562476141,-0.03136103251322809,0.004701737921828781
1746443799.675665,-0.0064822715913032125,0.0982774108565917,-9.838450639328713,-0.005452057319821066,-0.03917283236125082,0.005987957126125231
1746443799.6956992,0.29338037541626755,-0.20791132418986802,-9.545097888517132,-0.0067722403707900615,-0.04317839628324358,0.007924736912033955
1746443799.7157102,0.002865256358446047,0.11140457890735736,-9.831464393754619,0.0014900355422353168,-0.03555794694489637,0.006429068335241003
1746443799.7357807,0.30705050872179873,-0.2233293852277067,-9.522757642427079,0.0017456189116860444,-0.032496963614617264,0.0032011852642893565
1746443799.7555368,0.16719339171290204,-0.14098439759365705,-9.730422325421731,-0.008396685783218113,-0.04527173432441968,0.007741664243570633
1746443799.7757227,-0.15692508157779492,0.23470576727582448,-9.943290517162625,0.006395480598058528,-0.0355105121634275,0.0031114712276382214
1746443799.795535,0.3498708428706233,-0.28851749469164345,-9.373127958917001,-0.000725199488664855,-0.036583524827789704,0.00592086145996638
1746443799.8156533,-0.003508283985130367,0.1022254473432565,-9.782320434443522,-0.017053419379495813,-0.05072579959617027,0.008560645736159667
1746443799.835577,0.21115339283536355,-0.20379977414280184,-9.593248275034439,-0.00019259190916231172,-0.034990389777393764,0.008036443793853716
1746443799.8554893,-0.07510489486334582,0.029951968863609665,-9.935324238803068,0.00024310728872451392,-0.04114889427924521,0.0025696349487292366
1746443799.8757224,0.015881337752842173,-0.1638415121948114,-9.912523465442696,0.009469536669656366,-0.03214854544595941,0.002419971704868915
1746443799.8957136,0.02670159592564944,0.03469420912449785,-9.715975402030807,0.011312781736146662,-0.029162569973769918,-0.0016799432403594855
1746443799.9159045,0.12984618921640567,-0.07819967525219,-9.599744908432944,0.0006502992820276122,-0.04135483749332394,0.0021917577173901463
1746443799.9357364,-0.03625161668850901,0.07675231574450184,-9.82164049041808,-0.003636928742536241,-0.04805756606747417,0.004482844844884625
1746443799.9554176,-0.1714832081146686,0.16487829666272152,-9.8950460247949,-0.0021193032758336583,-0.03964467662197365,-0.0006973851357447696
1746443799.9756324,0.141133014853123,-0.24260719368767106,-9.649668460420052,0.00012127376814927984,-0.03958985589118237,0.002234708773119859
1746443799.9959111,0.2215470736555088,-0.273559473780293,-9.506450517554338,-0.00752728902868645,-0.042545141552062175,0.0008176142064644501
1746443800.015778,-0.01568991163774868,-0.007177312697487703,-9.722086023592325,-0.006368533011057526,-0.04192991900660741,0.0029693814015409117
1746443800.035703,0.003011046584129661,-0.06293394786032269,-9.740406233725567,-0.0012247446866973722,-0.04081099375335035,0.0006596898682753207
1746443800.0554223,-0.05550092916122917,-0.053778488999579356,-9.765886816368763,0.008376643724025547,-0.03449027071103672,-0.002330542544807938
1746443800.0756872,-0.20314652206174896,0.0732863048155456,-10.02159203745942,-0.010922513665368182,-0.04862911972616876,-0.0005474580214617781
1746443800.0959406,0.11032946329772333,-0.22127675782320444,-9.567942404925466,-0.00027760874457659855,-0.03876573145953924,-0.0010501613485752344
1746443800.1155956,0.02004753697769429,-0.11543908564181832,-9.68028804837623,-0.006375332024414489,-0.04423189647455358,-0.0016450261299196629
1746443800.1357367,0.10053798260397918,-0.2518776356638715,-9.670179365469247,-0.0009572183301595367,-0.03669070481135349,-0.003581436651326114
1746443800.1555321,-0.19847523718498777,0.051762285371927605,-9.91193106690656,0.006215429836939273,-0.032756603652047356,-0.0035395135550155797
1746443800.1756334,-0.12906627681581834,-0.0033065208554945574,-9.819086459936653,0.0031891993950444587,-0.02982671306452124,-0.0018171737412403357
1746443800.195837,-0.05095505633061526,-0.07957112044764653,-9.71160184039719,0.01273287219412475,-0.02631676451017139,-0.00370289841474298
1746443800.2156768,-0.07265889277336238,-0.05827180639352322,-9.686949947733611,-0.003598143363760949,-0.03267952040495357,-0.004534898039647511
1746443800.2356756,0.00244934250995113,-0.08779111403371748,-9.616019576397644,-0.007188341521427621,-0.03985228290113595,-0.001779448155089621
1746443800.2554936,-0.2585161054815237,0.0744194431356471,-9.915378174320582,0.007884858049179272,-0.024169261811306665,-0.007545426839918136
1746443800.2756467,-0.2343329710964727,-0.03812526152649674,-9.983449965483702,0.002111306039944621,-0.02936213732282442,-0.004957778877927157
1746443800.2957242,0.06714489807308342,-0.20696172805987587,-9.512140909775374,0.006221002046306555,-0.0224230057238068,-0.007058815595869233
1746443800.3156097,0.08297030469595826,-0.23987836207013657,-9.54910783493693,0.0011525923129686423,-0.027805672037586805,-0.00581144556028356
1746443800.335582,-0.2815813046002523,0.10452361562789292,-9.89962943934374,0.010410749332664579,-0.021786731369710568,-0.007357498028441565
1746443800.3554623,-0.4021593968756542,0.1603630989521171,-10.14828345767263,0.006535450526753273,-0.018847203220824227,-0.008149572769044799
1746443800.3756568,-0.15964584014687994,0.002432491806657538,-9.754613279603886,0.0006784886705554708,-0.02207618994057216,-0.009134608601365873
1746443800.3956647,-0.4382477632163544,0.1770609154503822,-10.214629686262214,-0.009165655723709072,-0.03176630216398744,-0.006726039653270501
1746443800.4155939,-0.3318041784479838,0.14088700083273398,-10.005118137729964,0.00598401785467693,-0.020356959998704,-0.008188324500372131
1746443800.4356346,-0.2276483023235564,0.11430943386188076,-9.816548864179241,-0.010864218656730509,-0.03248821360619445,-0.006099356444469587
1746443800.4554014,-0.2914606072381948,0.22276611109669545,-9.820959328757116,0.0006752536250700357,-0.01697385838667901,-0.008571017202943136
1746443800.4755874,-0.17706130176525423,-0.013050925124103819,-9.743884221807786,-0.007903424198366761,-0.016327775434414223,-0.005954747195998888
1746443800.4957607,-0.18523383366388935,0.0003524315356345162,-9.799303930696645,-0.008434131258626727,-0.02112307829117382,-0.007886251556311664
1746443800.5157146,-0.19221789448390333,-0.020338887151623086,-9.757020073042023,0.005750134223833567,-0.011272537300054111,-0.013485106545913252
1746443800.5356376,0.024372454286623574,-0.2711714914934719,-9.644104160224447,-0.0037874722446380677,-0.01891798433982905,-0.008762480430381685
1746443800.5554433,-0.09040287623738325,-0.09694494233751488,-9.601498430332391,-0.002472166010077685,-0.014990994068430616,-0.009405770093742572
1746443800.575758,-0.4506922401460113,0.26160387733899415,-10.059065822058468,0.006532921435084219,-0.0024674759152648563,-0.011750150079729267
1746443800.595833,0.004324534811704611,-0.24618050539993167,-9.618869798282352,0.0006176358423242564,-0.010291905529902619,-0.01051239242826705
1746443800.6157575,-0.3003278529761163,0.06230611689405224,-9.948036903679773,-0.004288920641768105,-0.010324133838698353,-0.008778330646061691
1746443800.6356828,-0.051713716757621514,-0.20292894332501704,-9.612550732748243,-0.009218752134181675,-0.01583746440956868,-0.004884612656308549
1746443800.6555228,-0.5033361044456148,0.3170841449330275,-10.129652561102043,-0.009040091724096548,-0.006223371563350839,-0.010649857106834634
1746443800.6757052,-0.10934928522555412,-0.18401768823315967,-9.780171730225547,-0.007739831155774271,-0.0029093426439799623,-0.009468482084063222
1746443800.6956537,-0.36179883830897586,0.1470136304517441,-9.980607149196807,-0.005297192563304354,-0.004279373197954886,-0.012195398124392888
1746443800.715778,-0.20033188236615573,-0.05165637017219993,-9.78291475426292,0.004379362161700092,0.003893641846981848,-0.011175472834475909
1746443800.735646,-0.34202026761404464,0.1390003438413789,-9.975526869931057,-0.008754522049171695,-0.008194767574910123,-0.008195537326955172
1746443800.7555087,-0.42244433451044616,0.16066464537840935,-10.083654750962527,0.011095047021758704,0.015762415611194423,-0.015564467922801853
1746443800.7755609,-0.39388187227386384,0.09253585558855743,-10.071380406962303,-0.0023045191834519772,0.007583302150477417,-0.011582405283584426
1746443800.7956102,-0.09460360846785561,-0.05973585981230531,-9.632092716988604,0.005269718618794493,0.016179420442124715,-0.013998373688753523
1746443800.8156753,-0.16610626635198625,-0.11299398714317258,-9.876382378920644,0.011083950354192686,0.01931731328062996,-0.01714668597909319
1746443800.8356616,-0.23496251949646535,-0.019637432776209062,-9.93336505767693,-0.0023063270829802615,0.006742411891314511,-0.01237233020447513
1746443800.8555136,-0.2695715875069992,0.0939344470479432,-9.902979801138061,0.005303674085868631,0.017740918853520644,-0.017763762575043064
1746443800.8756218,-0.1087709027418174,-0.06556238616269187,-9.71761948537271,-0.00700648057925567,0.00799585741108477,-0.014325882645166026
1746443800.8955479,-0.07467226802692666,-0.043772042284921694,-9.545442157795957,0.004057810834066786,0.01807646524710977,-0.016536375551438373
1746443800.9155533,-0.015065317770647707,-0.18851595864670673,-9.610737242244664,-0.004564961579118194,0.012687229724763691,-0.015514373455880392
1746443800.9357245,-0.15132670467822373,-0.05147373174246195,-9.711937745479908,-0.005800439421749549,0.011490670118410228,-0.013811447338107873
1746443800.955466,-0.26889132346159844,0.01965626437105738,-9.982296616447247,-0.011786103730868514,0.009184802672286036,-0.0116406413526343
1746443800.975637,-0.1825867666223201,0.020859594639274073,-9.80209275707532,0.01806980803859115,0.034921139852404706,-0.02175687731586294
1746443800.9955816,-0.08707806439858796,-0.04623221096015184,-9.617705760432052,-0.009968951753558294,0.011767998724805537,-0.01716089845435822
1746443801.0157082,-0.26060276688068273,0.061425427450316324,-9.92788780785695,0.009038694578439274,0.026602323949580134,-0.014516895151842601
1746443801.0356424,-0.012408797314751141,-0.2119785096754689,-9.702600755141312,-0.001643717612422577,0.018964331667362323,-0.012977149353224622
1746443801.0554159,-0.020714351749694562,-0.2045366306867123,-9.723942881494962,-0.0020115287071550258,0.026701916281373347,-0.014767350458301859
1746443801.075651,-0.3345868525615373,0.17646052741473922,-10.020725863600424,-0.00291254871236631,0.025601673048034696,-0.014904971828496236
1746443801.0956352,0.07811299247386636,-0.2720399352551205,-9.640492906003786,-0.0023688133548717388,0.025445838738327772,-0.01751770110932337
1746443801.115616,0.010514102198698888,-0.17169796465991902,-9.605623571979187,-0.009110609720901936,0.0173325558923446,-0.015617388370027957
1746443801.1355987,-0.010755933059542422,-0.07849249976627312,-9.541582295218374,-0.0029390709859574062,0.0251110747380251,-0.017639086175089136
1746443801.155512,-0.022996075787396306,-0.12208726019889876,-9.677513440415458,0.002462335527687729,0.03038712135256892,-0.020718322306428276
1746443801.1756418,-0.14859140925664632,-0.011468863420915503,-9.878251743872902,-0.007877274312223183,0.02496269254403512,-0.01658550386878193
1746443801.1958482,0.22461122482088447,-0.3092989400649615,-9.335557502012634,-0.007461716553325935,0.02588920142793767,-0.013628845077954595
1746443801.2156188,-0.10687058272909045,-0.01594113937945598,-9.803382408036569,-0.01747550123319225,0.01548930870364766,-0.016102740822535374
1746443801.2357848,-0.2176348389734384,0.06142784226754539,-9.964856700493703,-0.0019050102225865715,0.028705148642829303,-0.017853388321218508
1746443801.2555501,-0.25991178574669105,0.15015622732731262,-10.045840965026002,0.0024460059707491688,0.0377261391629207,-0.021931596041715677
1746443801.275554,-0.1524401105988603,0.0575594152408334,-9.922996159584635,0.004386643424142469,0.04010166941709774,-0.017558857784338133
1746443801.295664,-0.2572864631327761,0.1401442277015715,-10.077997097607044,-0.0013711820526613357,0.031838822312377155,-0.01689516792522636
1746443801.3158422,0.06684936174783221,-0.216743194106307,-9.725831888523633,0.0033368477800069596,0.03897305051637592,-0.024075839153181046
1746443801.335546,0.02488486326858226,-0.19432020610543627,-9.765551499997413,0.0013807594838244495,0.036424944857982935,-0.021270719080261593
1746443801.355502,0.04312119555789262,-0.10664108028093125,-9.721362261351267,-0.011835708252459146,0.028571073931711453,-0.01741011881543867
1746443801.3756044,-0.23243330429164452,0.13283932532583628,-10.099547294885092,-0.0024582243988051766,0.03096699431394333,-0.016822672111061414
1746443801.395542,-0.023358381181394848,0.01080575045182007,-9.756616729866511,0.0030391439912803783,0.036682743916188414,-0.022271583099453332
1746443801.415513,-0.08206809017041826,-0.0671532526122266,-9.959399022838548,-0.005971370651207018,0.03266881437445541,-0.018517890534316475
1746443801.4355884,-0.11272675636511759,-0.005521449146190682,-9.901369916047667,-0.0005808409657374349,0.03447577117458457,-0.019658309071890853
1746443801.455461,0.08194909598683481,-0.1401956039956646,-9.77161058925744,-0.008464441264714455,0.02959975653601679,-0.01762562312632001
1746443801.4755738,0.18400763712722262,-0.20856452351540297,-9.636379490142456,-0.002503559664948108,0.03334597096463547,-0.019889148794169576
1746443801.4955204,0.12632152898497762,-0.17849235381903655,-9.688464789259639,0.00931024833992914,0.043347484513549604,-0.02280843204288115
1746443801.5156276,-0.017791066499185753,0.015431259374050946,-9.792416369687858,-0.0004072416861628981,0.03606988540586164,-0.023006958696561504
1746443801.5355446,-0.1355355374211207,0.13834886106074035,-9.948563931141733,0.004777081523275323,0.04359190577288097,-0.021277678557810476
1746443801.5554879,0.22934950611604016,-0.22415812136524726,-9.598815401043094,0.005913211217742607,0.04472919038310064,-0.02023371746795974
1746443801.575548,0.09158754385830972,-0.08193263290414732,-9.697863384115124,0.0036430589960323896,0.04280243817138267,-0.019205127181147755
1746443801.595646,0.08143221207008908,-0.08645981849317344,-9.78509358634059,-0.005660684158398793,0.03170102758827369,-0.019227871175338477
1746443801.6157362,3.897003121544618e-05,-0.002747652470452392,-9.888449369477348,0.004791118640062728,0.03872992048488823,-0.02276607072312634
1746443801.6356366,-0.041353266733174715,0.1157741220730389,-9.872757428735646,-0.008094770693206665,0.03157519034278406,-0.019979524792186315
1746443801.6555254,-0.09215819900802201,0.10623443569189842,-9.981096549247905,0.0034185145475766608,0.03396577798946484,-0.023735611923793826
1746443801.6756127,0.05666809448509699,-0.009156767192770966,-9.805407006404941,-0.01665980299092993,0.01719330143474044,-0.01963048722590517
1746443801.6954951,0.13635239387770615,-0.09540193109122223,-9.800295084461355,0.013126255608472406,0.050491319735361605,-0.025864078949243616
1746443801.7158356,0.03911213266018373,0.01775213825530778,-9.801271210104025,-0.0018370981886433528,0.0330356173302759,-0.02334821382192883
1746443801.7357576,0.14784176932094814,-0.05937716925050365,-9.678345290657369,-0.002734098124679312,0.029236714684026294,-0.022881378805590536
1746443801.75561,-0.028485989400893183,0.052228204623542655,-10.020647287740841,-0.0014199136941333373,0.03064115332585371,-0.02421240082249858
1746443801.7757266,0.07679153146584534,0.06335514964971894,-9.762579693264136,-0.011595277195398495,0.017900554814828197,-0.020146650051840444
1746443801.7957551,-0.0806001037556239,0.2185195665937167,-9.956049970546525,-0.013255980358962107,0.020689437682573586,-0.020619224944891962
1746443801.8157794,0.00636490889451366,0.1016701648654962,-9.904791332191335,0.01097678570771671,0.035751413733181726,-0.028223279100579667
1746443801.8357654,0.13078065492815902,-0.04032935922760422,-9.745832418389007,-0.004798662340976631,0.026885971400029362,-0.02210335430454055
1746443801.8555617,0.11941226922457815,-0.012542114666781831,-9.824281617516977,-0.012471328324824688,0.014245380101983453,-0.021717556889418923
1746443801.8757346,0.24065288224904136,-0.1743499301131629,-9.71018886840854,-0.007522549221409469,0.018082298223568924,-0.02042160864238195
1746443801.8957455,0.17502943364299256,-0.09537656019888255,-9.729044336833972,0.0143849797308706,0.036330268181890016,-0.027639895613855346
1746443801.9157844,0.24030993437076018,-0.14451034585998712,-9.775846593097304,-0.008338575706714264,0.019209218869640988,-0.020148096856075916
1746443801.935814,-0.07393049456109163,0.18241162691385174,-10.105646109957506,0.005151117317041151,0.02554391929815472,-0.025139191733059625
1746443801.955602,0.13018225520410817,0.026768973065456957,-9.862361671789749,-0.001637935145907367,0.014786485041952596,-0.027832499999463176
1746443801.9756498,0.012922601752226093,0.05347344559162659,-10.038250103588926,-0.01211564648967923,0.011109673064048066,-0.019972179167149252
1746443801.9957047,0.3085613442473255,-0.1708260664436178,-9.667252979559379,0.0030288255116261323,0.01997453059461326,-0.023229629063722862
1746443802.015775,0.12789843942103038,-0.0021723661961733573,-9.84519783652272,0.01714414985866028,0.0331387581996884,-0.02658697571946737
1746443802.0358353,0.09564742164802685,0.021697001663040526,-9.887831384627926,-0.0019444801493850225,0.016511294820153774,-0.022413303055164306
1746443802.055467,0.23286498777969988,-0.040468787286917066,-9.73754065312472,0.015292848817310996,0.024667217863424264,-0.028862216079785338
1746443802.0756671,0.03524712546712491,0.17198992250710168,-9.945476217366322,-0.010182856416704899,0.003964962405691384,-0.020885230461150928
1746443802.0957406,0.07580701833753097,0.026456499232527055,-9.978405048657462,-0.0075162416984597075,0.004356418520315283,-0.021209426264130506
1746443802.115838,0.3438105374778252,-0.20016579331630846,-9.607961785207843,0.0011186716641594435,0.012373334555026342,-0.024007535424143717
1746443802.1357658,0.0647591461881609,0.053691883113192174,-9.869194516197881,0.0013484347047930528,0.01257948830208153,-0.026401778630829768
1746443802.1554902,0.18200885055841348,-0.07430151903249933,-9.803234318776017,-0.01278985433370389,-0.005540438710486083,-0.02487419398259896
1746443802.1757796,0.4024625899333032,-0.22896462147385743,-9.50274229206888,0.00910431514691983,0.015340518590255953,-0.026572872414117144
1746443802.1958208,0.20989639322653167,-0.021438450486798384,-9.723009225477966,-0.00031602607655913995,0.0011306181180246464,-0.02194155316006141
1746443802.2158117,0.3142523737938071,-0.19855428171682232,-9.706537701369504,-0.011946045745746823,-0.00482838140255577,-0.020924199993085778
1746443802.2357337,-0.05912077553690162,0.25226316236723917,-10.074235276227707,0.005060691679615537,0.008572429290718643,-0.02316673126872356
1746443802.2556207,-0.019682699424930616,0.14519032070964263,-10.071695633952787,-0.008476479885403908,-0.0036534725090585714,-0.023807442998608114
1746443802.2761364,0.1493098866127783,-0.0122291772667737,-9.843896689932853,-0.005574799053780038,-0.007996443114286293,-0.023152293566317324
1746443802.2959578,-0.07801830885409869,0.24275369555366988,-10.061218782491222,-0.007353003172456157,-0.004252448440265683,-0.02616005561277233
1746443802.3159997,0.25175087540117147,-0.11303582865545858,-9.684658256711451,-0.013054514069451925,-0.011014545355480005,-0.02164221654505238
1746443802.3357446,0.011760790979363084,0.11621315061720251,-9.996960198827129,-0.00176345974133203,0.001187442034286959,-0.02382473623775334
1746443802.3555732,0.26758875194108933,-0.17869733761142162,-9.68684276883564,0.010435696614420302,-0.0016913670907444285,-0.029036332945810713
1746443802.3757586,0.21144872713455198,-0.10830666151203386,-9.7388623496864,0.00036392113257274186,-0.006810678105173625,-0.02346916764773469
1746443802.3956885,0.2785076374464008,-0.14815720375048644,-9.668892731459673,0.0027146365910717236,-0.0037691597548487003,-0.025240178619468864
1746443802.4155507,0.40540157617080663,-0.23422245248591067,-9.437115424680405,-0.0037923751269658633,-0.008647123719873017,-0.027854468592902297
1746443802.4356115,0.20230561579492407,-0.08728590747611958,-9.791438213819552,-0.0006184044079149091,-0.00947962475991852,-0.025068766905094082
1746443802.4554884,0.22616847518602368,-0.06828109745235617,-9.650259640727288,-0.005584208830447348,-0.0187006404084607,-0.02537403838807995
1746443802.4755268,0.09966445156548108,0.07373447101325424,-9.798156844446007,-0.0030109120290618776,-0.020260256419910153,-0.024700775733146746
1746443802.4956164,0.2486487820087234,-0.06032089957151235,-9.69090467016416,-0.0020603397639451554,-0.019576198228273646,-0.0227731609703462
1746443802.5155551,0.11094161756858557,0.1355618694757137,-9.702769394586618,-0.007744972287457251,-0.019890477915228792,-0.024687529617721877
1746443802.535588,0.2223112260882728,-0.07791910244634528,-9.720912765914585,0.007310684378317203,-0.011661540916252999,-0.025922800090957498
1746443802.555398,0.22588343483548104,-0.10441328597604024,-9.632101899386772,-0.013903077556274568,-0.03507908825816512,-0.021567522954821148
1746443802.5757728,-0.08750532872500535,0.18079916020435097,-10.195171900929095,-0.008202288159301267,-0.026724798109685102,-0.024629023506842346
1746443802.5957108,0.24580885625655047,-0.19212236388734638,-9.721273148293921,-0.008353167984512553,-0.027616194097631705,-0.023807715482017478
1746443802.6157084,-0.17707668282712158,0.28785773775911017,-10.177585338775188,0.00874916056118106,-0.015585060375029637,-0.02821662360388913
1746443802.6355407,0.11579056457790388,0.024406144767629513,-9.908698779319646,-0.0004842970003730058,-0.02133217839432909,-0.02403174665939354
1746443802.6553986,-0.08252858112791839,0.1743724014110698,-10.05988113582273,-0.00571281638792625,-0.03145181987722158,-0.02412082420561747
1746443802.6756103,-0.08176870797471353,0.2019180725799304,-9.940913234185357,-0.004890459807691823,-0.031778028183473285,-0.02518812524580921
1746443802.6957586,0.20889555051304237,-0.1347018753252138,-9.734871094513213,-0.00352635402152359,-0.032320177436851845,-0.023920689491369808
1746443802.7155163,-0.09489039712400717,0.17056847337140033,-9.975920798677521,0.005510697352551821,-0.019579512232440123,-0.02645787518304187
1746443802.7355435,0.17597090668944054,-0.09692907308686978,-9.717864118454008,0.005600334883768095,-0.01940681594613013,-0.029702218252055657
1746443802.7555463,0.039492968777583966,0.06149702954765888,-9.835784963089788,0.008411537844531901,-0.024567620780414398,-0.028126270378826337
1746443802.7755466,0.1483551123256841,-0.07369392554625148,-9.626308363774825,-0.004193032067134112,-0.032593462045230934,-0.025961821164360806
1746443802.795538,0.1506893474976725,-0.07359596898650486,-9.673373115290612,0.0016052909805528823,-0.028257915673464175,-0.029727802402332654
1746443802.8156235,-0.018876697181277158,0.09826715917011052,-9.862053718404008,0.013199890635409562,-0.021588665503064694,-0.02681021402441628
1746443802.835513,-0.04662765205913351,0.03713499646482388,-9.987056664171819,0.01391354416861731,-0.016129687990723906,-0.028131907393231747
1746443802.8554678,-0.04731136108511209,0.04909130775223164,-9.953662031136735,0.008603070146763134,-0.02511405637940984,-0.027936342791348958
1746443802.8755474,0.14914693606791107,-0.03154675106017679,-9.671869290072229,0.008855061842350204,-0.02546574477459345,-0.02949311529504178
1746443802.8955975,0.18313834389908504,-0.17775542081852974,-9.701943169001733,-0.004750259036464196,-0.03291434007575126,-0.02501434968852494
1746443802.9154997,0.015003889173749438,0.08376939651744278,-9.838588768153457,-0.0004839774156480132,-0.03184903542348357,-0.025369176758739294
1746443802.9355872,-0.04527449380053217,0.11516701878828517,-9.93555945292744,0.0045843655987161044,-0.03369338993827823,-0.028212340096356037
1746443802.9555328,0.08402779195397471,-0.06011931865741023,-9.705288116153277,0.003755912109813148,-0.028604425273572456,-0.02815685440832135
1746443802.9755223,-0.01758616087636932,0.03524721188686212,-9.823365543055491,-0.009094726958019972,-0.041623707592898455,-0.024926396421865123
1746443802.995496,-0.0039060978070888305,0.0815907857194527,-9.719269496846216,0.005188792055005454,-0.025915715114895214,-0.02644944519101714
1746443803.015511,0.023031158568919807,-0.008323854695124156,-9.64812585039029,-0.002734228197607436,-0.033925113224572534,-0.024336336240471476
1746443803.0356538,0.0077623505159255465,-0.004871105000346938,-9.790857433831306,-0.004389045268474305,-0.03981357835420616,-0.026876021113073426
1746443803.05539,0.13870796162960736,-0.1649684237579314,-9.648721924280798,-0.003919619286934162,-0.03453509567457417,-0.02542935534836106
1746443803.075503,0.07767703286695432,-0.1866499211585668,-9.776455627253274,0.00016497057992109505,-0.03331031213327557,-0.027498484941962324
1746443803.0958064,-0.06603534779764438,0.07523798559364242,-9.816557676447314,-0.0029181199145997825,-0.03876661258786667,-0.024093513114185644
1746443803.115838,-0.10341624294368776,0.03799194840572151,-9.942849665272846,-0.0014310382107947696,-0.03487732578276454,-0.026300470686401754
1746443803.135873,-0.21387684369680451,0.15318188972694818,-10.026837648938033,0.007996364069405428,-0.02734480793316577,-0.029817615499674332
1746443803.155473,-0.0977523191102257,0.03596384162837963,-9.808798991418596,-0.006684604045346075,-0.037323377550920876,-0.025119105829373427
1746443803.1758997,-0.00017119290948365562,-0.05909739984213659,-9.717620910824596,0.009318768981455406,-0.027784990175858053,-0.031294775356030015
1746443803.1957757,0.04608802428619456,-0.11470270369709731,-9.71379193736661,-0.0020361718843833177,-0.03385024491914468,-0.02595215901204581
1746443803.2157083,-0.017871102043625957,-0.042873102440931746,-9.76446305938723,0.011189383602398476,-0.022153829304159878,-0.02567339862624294
1746443803.2357666,-0.062039871723605707,0.05606856561388568,-9.842744155768113,0.008874060111797772,-0.022955456796888533,-0.03021857839427411
1746443803.2555885,-0.09339898040904354,-0.08234991962729576,-9.906741328237223,0.010834195303005034,-0.01819772344018926,-0.0258469404980212
1746443803.2758284,-0.14087288814378476,0.013588555819713147,-9.867055532554458,-5.029119672024561e-05,-0.026631324683126456,-0.02690855876181907
1746443803.2959926,-0.13816956655167026,0.0239733660421471,-9.891092277012289,-0.003897878036584943,-0.030891526892442484,-0.025062164787760098
1746443803.315773,-0.018761407462847005,-0.10985357011743,-9.745511520339354,-0.00452856733146077,-0.030469200952435944,-0.024351643978707843
1746443803.3357704,0.05357853781132005,-0.11154162968667038,-9.564000191602794,0.0006907225602962989,-0.02646476722796678,-0.027289272601644363
1746443803.3555198,0.019089313944076966,-0.1132004560652781,-9.630388968238872,-0.0038514191551689662,-0.025390232731389226,-0.0231985100124231
1746443803.3757608,0.00604930855294307,-0.08032683545818434,-9.683987543736574,-0.007289996618671498,-0.028018570603375214,-0.025638981301116963
1746443803.39567,-0.34101524560424346,0.20492401948615852,-10.038723818524396,0.006289812290654728,-0.020674235055097266,-0.02789820211386576
1746443803.4159849,0.05689694232046086,-0.14595257083833404,-9.52037687245427,-0.0010291318262077034,-0.022651744448670127,-0.026351917447441118
1746443803.4356203,-0.014963206525148098,-0.17934558901705272,-9.7712840062799,-0.001816972339738305,-0.022033052133234598,-0.025092046564046514
1746443803.45581,-0.029914297479304963,-0.14341961898261182,-9.68263426313229,0.006952822317976983,-0.016469501139194306,-0.02464947985554596
1746443803.4757776,-0.016368339181993125,-0.17761748044644002,-9.644085811618842,0.004776853633471345,-0.017722595142117978,-0.0278329989471631
1746443803.4957488,0.09439785120451888,-0.23483134409342274,-9.549163914306,-0.009536207234904408,-0.02935013545770749,-0.02352647745491469
1746443803.515476,0.04992418154155839,-0.2652389219816907,-9.586776103672703,-0.002773938273219793,-0.021920987523195896,-0.026029512641382577
1746443803.5357664,-0.132284521129793,-0.05758415254992409,-9.80988389728872,-0.012953550185802876,-0.029191557860838022,-0.02214159992735918
1746443803.5554416,0.15674874369591188,-0.3396810495419945,-9.436491706291541,0.0018509216510878286,-0.01228030456926721,-0.029038574402133054
1746443803.575641,-0.19638156475476368,0.0368754382205759,-9.850037721341252,0.004459473873726466,-0.009895797335779236,-0.027569627288110736
1746443803.5957322,-0.11582804893531815,-0.057460403086258924,-9.823686550908759,-0.001317034653906415,-0.014275135411831034,-0.02538480920464086
1746443803.6157134,-0.31287375756125246,0.2060097553560026,-9.985943215774443,-0.000556892642105214,-0.012540131630404176,-0.02584833523049629
1746443803.6357558,0.1713240259319379,-0.3449555472531517,-9.453453999258258,-0.005192090605485279,-0.019505504363196334,-0.02467271111016457
1746443803.655382,-0.5190841071129568,0.33112625137412316,-10.2809595506922,0.007707765809796103,0.003498617433808386,-0.02938252396192335
1746443803.675599,-0.2008501178495588,0.046724229566963295,-9.860571791730038,0.008219126636956767,-0.004584509006457443,-0.02786561912713323
1746443803.6955247,0.15066966376106822,-0.32360940844685704,-9.425032062261286,-0.0007730711398860606,-0.0017407494637361161,-0.02580084415533116
1746443803.715727,-0.023535292395509583,-0.184865764096226,-9.686426949947274,-0.00599463342288723,-0.013093517747928302,-0.026426136322675212
1746443803.7357354,-0.2936101909346689,0.14162186177490024,-9.92718205279274,0.002843612943029983,-0.007642994593565999,-0.030467392531693414
1746443803.7555401,-0.1639554378799254,-0.02052697694367754,-9.868942037934655,-0.017869830141223546,-0.017323762312436534,-0.023434098152789604
1746443803.7756689,-0.01964067816822926,-0.12526230362905152,-9.609632222900077,0.006211729973452272,0.0012534710064671943,-0.029094706510154982
1746443803.7957268,-0.4656670659772751,0.2605630871919738,-10.151839364839956,-0.0030784645633319015,-0.0037887478862033493,-0.025102314093964007
1746443803.8159478,-0.2082927965978537,0.03004370717551693,-9.877192051513136,-0.000985035192589743,-0.00023993303032438288,-0.024480508192255376
1746443803.8355443,-0.2741338083404831,0.14950544067781849,-9.943264580190707,-0.006532687170471873,-0.00567220333606898,-0.026016892742698815
1746443803.8555453,-0.34804755939805976,0.16226099347715242,-10.070283403069395,0.008694875399171643,0.014461390449310139,-0.027685486461888564
1746443803.875542,-0.19502766689279757,0.03784755650025923,-9.76137546568661,0.011754782970325822,0.016040944356609448,-0.027377867593507403
1746443803.8955152,-0.11572183971057401,-0.10483139721170488,-9.856688736908735,0.0019827163000145625,0.007878999216180944,-0.0252387971952273
1746443803.9155667,-0.2971067822821702,0.10459061054041387,-9.971413906681965,-0.002078425437432375,0.003756155104964951,-0.0238010259763665
1746443803.935663,-0.12941425368955506,-0.03869457694777291,-9.807657763891369,0.0009515023178569564,0.008758950549746746,-0.025828326137398994
1746443803.9554665,-0.05170926520192988,-0.035129592336790645,-9.580349502046957,-0.012735827220151527,0.0001504281663458392,-0.022286628746492936
1746443803.9755282,-0.10284278432484852,-0.09676651833361916,-9.773429053677022,-0.0033260780182554905,0.008624835446217312,-0.021935657541791814
1746443803.9955163,0.046635383637114974,-0.20247424490486382,-9.547333667500725,-0.010342192224133193,0.0020520498041978873,-0.023846200061444885
1746443804.0156405,-0.15093702081069046,0.04159479276854606,-9.671771820759332,0.007431094905427538,0.02063277958495159,-0.023762382440872788
1746443804.0356677,-0.08954089719513529,-0.12060382569030438,-9.834216240479122,0.004208499035145859,0.017702586241154603,-0.026660527458592435
1746443804.0553708,-0.11388074724213718,-0.10315250921874067,-9.884318847740314,-0.011695354153750396,0.00826722806211323,-0.02203061907600086
1746443804.0757172,-0.12457451876762357,0.016461189551167797,-9.72403904871848,0.0059156787386819105,0.022678890154427207,-0.029291454328691544
1746443804.095748,0.10885724901681773,-0.28357313881024876,-9.520584630584215,0.0074787683920740575,0.0211520211987476,-0.027905069256838687
1746443804.1156638,-0.20515062438792805,0.07846913189192897,-9.876424412053767,-0.0025046033367015757,0.011922770366632678,-0.02494365939919762
1746443804.135641,-0.3255101472784333,0.184610553661121,-10.010587856750936,0.0034753101235003537,0.0176236175251397,-0.030187378807555815
1746443804.1554818,-0.0508979940563112,-0.06006815696955706,-9.692782162670236,0.01164289200990309,0.026925320806506756,-0.0286373987477686
1746443804.1759293,-0.028793283079804693,-0.16939316908963192,-9.769306820402647,0.009829454797665662,0.027338678388494568,-0.028136992894746613
1746443804.1956758,-0.2957367827006322,0.1840613757973648,-10.044760821070621,-0.0080431649679878,0.019406223933336877,-0.02372213355445204
1746443804.215685,-0.3246124469721652,0.21184247629212036,-10.095776203229159,0.005426359974004248,0.03063240016633627,-0.028180514416930622
1746443804.2357335,-0.17865821299422108,-0.022923353298635707,-9.961052473243438,0.010436115697574752,0.03162567954814426,-0.02743847406319328
1746443804.2555878,0.08287830247592898,-0.1859325010075721,-9.56696249920216,0.009870416585983194,0.034462753170299794,-0.026893280654673054
1746443804.2756476,0.11690959842025968,-0.2145305793785788,-9.50986027321277,-0.0009964200801206122,0.02755636936332684,-0.022406043324222694
1746443804.2956455,-0.03561737607357711,-0.10929478292211596,-9.857940064715239,0.003965160806829136,0.027347084925229897,-0.025258335265231618
1746443804.315795,-0.2944610620913263,0.20589006346512584,-9.986965171721051,-0.007267327036736392,0.021520424807883083,-0.023885641307904697
1746443804.3356915,0.15690140845745748,-0.19578600300590074,-9.422628300558783,-0.0017713552277618069,0.021476945722946228,-0.025116273166893174
1746443804.3555808,-0.06900513154692732,-0.08409935137811583,-9.970327412841646,0.0042017032359811515,0.030245860499423148,-0.025393192939067957
1746443804.3757267,-0.06517859110192427,-0.06902012973285548,-9.88351203675335,-0.019080067268284876,0.015972300546352194,-0.018761825581815415
1746443804.395572,0.17962560889031148,-0.22540361445161963,-9.437756702155552,0.009035448848688179,0.03663692609602921,-0.023618438706035253
1746443804.4155598,-0.22188058260345322,0.24357980546428912,-9.906994508724457,0.015561176230101751,0.04118491461099788,-0.027818706380660092
1746443804.4355958,0.1214568746045839,-0.15337938716872485,-9.538415329836596,-0.00035052458080407644,0.027397083382999524,-0.02513950149100564
1746443804.4554498,-0.2987671927967141,0.24204339016692344,-10.184750159693069,0.006840721646698604,0.035862560309211804,-0.02428672203119615
1746443804.4755208,-0.10616180445775474,0.08129161473477717,-9.964910367873129,-0.008926630813022828,0.025042456274555366,-0.02024391934833806
1746443804.4957347,0.0757822720973793,-0.054412141343026126,-9.753537982872327,0.012481572734961855,0.0381190481436075,-0.026086754565677373
1746443804.5157564,-0.15065630528652169,0.15518166275870932,-9.968575736823322,-0.0047146327238195875,0.022577639371441867,-0.02646739101168894
1746443804.535764,-0.24717267407074994,0.1875254228490027,-10.065622254988678,0.008023450677677317,0.033516161643673784,-0.022489895586594227
1746443804.5554583,0.28380568133160283,-0.2991496460349901,-9.491124269358393,-0.005553666417083909,0.029209329080035457,-0.022942854856315503
1746443804.5757508,0.07675173425726242,-0.08634059682871989,-9.670391476190598,0.00012800812704555142,0.02787771150288451,-0.022230134161758577
1746443804.5955935,-0.12599203245323465,0.16163809431975207,-9.926027800113985,-0.005460410245074899,0.022170575025896515,-0.022936165657044674
1746443804.615528,-0.1478476600975617,0.1203325912096427,-9.990615623196556,-0.00068287991195926,0.02634487302767926,-0.02712449874984255
1746443804.6357236,-0.009018753526003167,-0.03283266260884475,-9.843971775441219,-0.0007719453306883172,0.028386176792151135,-0.02042750317847795
1746443804.6554146,0.1149061896551834,-0.13039145777108951,-9.747116456611895,0.0014443635677997492,0.032887637679402455,-0.02463893556612212
1746443804.6757946,0.1949084740037978,-0.1053781469710813,-9.624630758394702,0.0058699697569327,0.030244630274242,-0.023617046212189477
1746443804.6955154,-0.23161431446996394,0.26855432880572877,-10.059789572749224,-0.01067359364535672,0.020267516455923444,-0.017996858607740446
1746443804.7154975,0.03522490927917652,-0.03495563727901822,-9.916493827402048,0.0052682530865429044,0.033092528082384054,-0.0197507254686293
1746443804.735635,0.11876666222890259,-0.10094876229586268,-9.72698825918227,-0.0015994910570682431,0.03215283726825836,-0.02169582308371015
1746443804.7555575,0.14174495942092738,-0.13265329795096717,-9.827578535967925,0.013139387474786884,0.03599125746848885,-0.026080786911160683
1746443804.775538,0.10840114389092603,-0.04467493903087376,-9.720280842505488,-0.004039204983933667,0.019946938710267592,-0.021917370543256834
1746443804.7955132,0.31097462087249284,-0.30011961674582854,-9.582759558332636,-0.004766584671161423,0.024720595046059064,-0.022799169958115425
1746443804.8155363,-0.1600992072656453,0.2663093146498553,-9.991453628227417,0.0029938011819770987,0.031788173292060996,-0.02567212325462658
1746443804.8355088,-0.03720221363097552,0.10400180523471529,-9.908770368160042,-0.0030588859664137866,0.02221716382268664,-0.019107459105866812
1746443804.8555048,0.14876870356289834,-0.07373187073326441,-9.66135280702895,-0.0029064277701753116,0.021127496048017558,-0.022218248219047623
1746443804.8755236,0.07091797492330182,0.035888087620161935,-9.842900995879473,-0.001632799046287136,0.02081487805441842,-0.022123041819736716
1746443804.8955352,0.15492801490510905,-0.15006046507389267,-9.761002156123304,0.00685934153872285,0.02979106887607985,-0.0241867444252154
1746443804.9161572,0.21363142413798655,-0.06089980974536528,-9.608075013661818,0.010133434913847692,0.031495829634037804,-0.02501407416918293
1746443804.93575,-0.02978242751253614,0.07003152177691353,-10.00472111596223,-0.0025895725666673906,0.019340262474503957,-0.02090875817142438
1746443804.9555652,-0.040246747094213414,0.1416308813247347,-10.03399060567911,0.008806090257750093,0.024489426686811006,-0.024779503536783796
1746443804.9756382,0.25842173927521406,-0.1667993433712405,-9.672262121561767,-0.004738706356587101,0.015310030916828511,-0.0205817750627112
1746443804.9956872,-0.03365856295077495,0.18197561709777768,-9.93798417771248,0.007085408885387029,0.022489826167358506,-0.02299546320236889
1746443805.0159395,0.026986827236836777,0.11708948502200116,-9.823400042033867,-0.0067842387198148455,0.017007267957445515,-0.019592959439124837
1746443805.0357897,0.20007418030921784,-0.11796137969751883,-9.65213995682612,-0.000997805507700359,0.017698562455636387,-0.022029063792610628
1746443805.0554957,0.5618185315000093,-0.5096964833499451,-9.446551656892526,0.0034766904054366397,0.01507302211512233,-0.021195629115759045
1746443805.0756614,0.37083778938100265,-0.29628937612302475,-9.56934806672469,8.950952405035449e-05,0.015026419008370128,-0.023774051963611206
1746443805.0956626,0.014393970317027785,0.19875996985244737,-9.815643487471533,-0.009505011273984187,0.005524808553200273,-0.01927207365857943
1746443805.115643,0.1277709454381495,-0.010481786605919615,-9.87150943809832,-0.00020643515533191734,0.012697621662617295,-0.018402317803096306
1746443805.135664,0.13808404051456552,-0.03236284734230951,-9.87710182174468,0.005863370415292482,0.01942296919750694,-0.020498621019176322
1746443805.1554914,0.013294904172144517,0.11557891705681636,-10.022144433884549,0.014935002706022061,0.019570230221349853,-0.02310882969936321
1746443805.1756341,0.12041045199914768,0.03809727023829466,-9.796428284696333,-0.0054420913758231925,0.003271747389324427,-0.020268769864494558
1746443805.1957674,0.23246937403568474,-0.08670728968471766,-9.720055384018826,0.0013737908487257095,0.012312630571908323,-0.02159146129305217
1746443805.2158344,0.1837096303885281,-0.12085925199782648,-9.801442871194627,0.0009384385346068845,0.01040931827988938,-0.02265293396311491
1746443805.2355924,0.027414429460552003,0.11101692311810667,-9.890517088194025,0.006030409523871711,0.012350298336989156,-0.022213416461120638
1746443805.2555485,0.42577899462925417,-0.3107731193007944,-9.50002911368963,0.003973507039352851,0.007141391566075262,-0.023132163188098243
1746443805.2755942,0.21447585767319965,-0.12703407256923419,-9.74467521025431,0.001544460142005412,0.004694397735124141,-0.018826818162307746
1746443805.295504,0.31692006555415475,-0.15361328931231708,-9.520584747804008,0.007262936963223006,0.01269587345044657,-0.020103276752385678
1746443805.3155072,0.11319156015425166,-0.0029703222951426205,-9.824113304459976,0.005026396083742642,0.006315919280966839,-0.021137590374247926
1746443805.3354275,0.16580255958206966,0.05117938534514274,-9.673334789208177,0.007791000149613754,0.009135495420867779,-0.022839062853789956
1746443805.3554997,0.0381440084255148,0.08350203681910735,-9.93897061974865,0.009637085238430102,0.0013171771203994839,-0.02337523364761526
1746443805.3755605,0.010316130602379348,0.16171299266405326,-9.930131401868989,0.00692060020159003,0.003017875406915502,-0.02077622161567127
1746443805.3956091,0.10957421878315628,-0.00039543299773494786,-9.86009379898097,-0.0008239429171474888,-0.004859430306776452,-0.019224727911270334
1746443805.4160044,0.1666610730607953,-0.004698962656702094,-9.727311844372311,-0.01255789623895746,-0.012995277875653112,-0.013927057344137055
1746443805.4357567,0.03421018576756105,0.07970531463158768,-9.95819312362221,0.002344636052116837,-0.0011379805609622682,-0.01951267279963865
1746443805.4555175,0.16284648324372647,-0.04942627937522749,-9.766058502790802,0.0021128064449940274,-0.008045945601975541,-0.020847610630391
1746443805.4756846,0.10435751389636633,0.041595354954615395,-9.804246447978262,0.003718123602453937,-0.0028372419764464704,-0.0195780185011674
1746443805.4957726,0.20276965753006299,-0.03974501839294396,-9.732573284336908,-0.001242253833633743,-0.008938638608274445,-0.016445890907810345
1746443805.515835,0.05747933833495633,0.13595351987353263,-9.79916730893914,-0.008154593253568225,-0.012769094828402962,-0.016917923671726193
1746443805.5357668,0.2630513452108383,-0.11681311095103407,-9.690899731995742,0.006525806843186453,-0.004994797289544705,-0.021146630543655218
1746443805.5556085,0.2677659252881057,-0.11690140745046029,-9.648176612962043,0.0005672483052521636,-0.013391107880080987,-0.019494293326447705
1746443805.575867,0.11765045239730465,0.05809912696068087,-9.731067252861584,-0.0012858315016227855,-0.013248168863830545,-0.0204512578058405
1746443805.5958831,0.3438710047527431,-0.22314133293080135,-9.592673218719824,-0.0021298777103426494,-0.01348471584819689,-0.02013921212246874
1746443805.6161323,0.1503794968399596,-0.01833589236186253,-9.731698898627547,0.0027650629548668162,-0.007169209250315711,-0.016646837793255393
1746443805.6356926,0.09640302175860387,-0.025644926102794008,-9.947690108388773,-0.0019944901399348625,-0.016424956188513234,-0.021732287024764554
1746443805.6554763,-0.16140175406588186,0.29902952154761064,-10.092762726257552,-0.0006748356539585201,-0.022161746370977793,-0.019642401106761093
1746443805.6756012,0.0641194458559736,0.03309425987601906,-9.827982618564535,0.006130730725193643,-0.01169016760905408,-0.01870751407068017
1746443805.6958232,0.31852447173726656,-0.23348789513428672,-9.60893874881192,0.005015412716429226,-0.013403928310730954,-0.019288024966606962
1746443805.716132,0.16575504253507534,-0.04047011512157417,-9.819160287552998,-0.008403973567775067,-0.02215840195290508,-0.015621051864596827
1746443805.7356646,-0.01590230382694227,0.10059089511984275,-9.986425818184491,-0.013055405520732378,-0.029582118509903634,-0.01442791994691028
1746443805.7558587,0.002289133665828655,0.06772721022918006,-9.903254131490824,0.004304701345632466,-0.019057879179763402,-0.01933737212790368
1746443805.775816,0.501103840298593,-0.40083699423704144,-9.258179890310519,0.006271512744540223,-0.017017406641728933,-0.019893490588574494
1746443805.7956161,-0.015043402301340686,0.14442776822235265,-9.864160124816992,-0.0006728482490107431,-0.022314602080597462,-0.018257617051099642
1746443805.8160613,-0.007880331104675342,0.1321421389466355,-9.848717517329224,0.005636780665833805,-0.015334651232614752,-0.015336416155360058
1746443805.8356707,0.05279508196134368,0.029770090336972022,-9.825037868034796,-0.0005259465986632493,-0.021098019411456895,-0.01788882669964027
1746443805.855478,-0.21503916302037704,0.2428228433727198,-10.150591533958677,0.0061867428710359615,-0.019874357198019978,-0.019507686242051757
1746443805.875803,-0.10507326403506587,0.06619185049180625,-10.092935243242824,-0.01905364711557702,-0.038478167536450864,-0.011202859713982008
1746443805.8957698,0.06661784099161552,-0.0854965584230903,-9.94056381077071,-0.011033100473046866,-0.03366307563823668,-0.015599404282816432
1746443805.9156675,0.15918946350513877,-0.12623453206101326,-9.61193145884096,-0.005303882111590181,-0.026775504230548523,-0.01624572096716588
1746443805.9355736,0.30622669167684513,-0.23267277496188832,-9.494220978455267,0.007268324887544085,-0.013111201263033567,-0.016573136557358543
1746443805.9555833,0.18140826307877966,-0.21065232079564936,-9.632906457108623,-0.0003274058633716658,-0.027390773738419534,-0.016309698035228578
1746443805.975617,0.09716560889285081,-0.05035066208597922,-9.762981597619397,0.0029099706824883185,-0.027054098621049384,-0.01568716075344868
1746443805.995564,0.07800386363692874,-0.02643307559178792,-9.715915979640222,0.007148977421961527,-0.018454065222574853,-0.0175301609909606
1746443806.015659,-0.23598024452895744,0.29276094402882535,-10.051069487300094,-7.163477248830698e-05,-0.026619015350913336,-0.015353790289339985
1746443806.0356946,0.03287674219667219,-0.006563737725987838,-9.81438530153471,0.0009187328238472121,-0.023684861448913956,-0.018574611212486943
1746443806.0555255,-0.23328692161990236,0.2414911120214225,-10.111210029605363,0.0011286165481186488,-0.02717836965959341,-0.01847698563500526
1746443806.0757315,0.024503653641528535,-0.08369995896863991,-9.903325128532138,-0.02363033672142101,-0.045066404608387636,-0.010239195260816293
1746443806.0955708,0.09617199988808667,-0.07800562478521308,-9.76075210326356,0.011103791556450497,-0.0165714865895599,-0.019284086497042913
1746443806.1155427,0.03921877610786047,-0.017317109389825107,-9.727161692469165,0.003501905074626332,-0.019178905865492327,-0.019475316088271823
1746443806.1355965,-0.05382064420047592,0.013252730243195033,-9.930553473270724,-0.004145180140895156,-0.02562367773499155,-0.016865373604184927
1746443806.1554978,0.22987981053933632,-0.2687781980632231,-9.571437957877052,-0.011916820883247952,-0.03538528441075049,-0.013983345111100581
1746443806.175627,-0.053258474660274786,0.01934822406407521,-9.843595228041393,-0.004667625633057836,-0.028372999578007443,-0.014682218294017241
1746443806.1955972,-0.08814770877748536,0.08569649550652238,-9.882966976665776,0.006097072519406411,-0.022489784637748776,-0.01701155500470561
1746443806.2155733,-0.16075685181552452,0.15408709167730275,-9.961116538675299,-0.003835703582058046,-0.028745957626558773,-0.017432853807995828
1746443806.2355652,0.06920102524022598,-0.08449843926070495,-9.609301029904147,0.001692246598602505,-0.023772518173889236,-0.01678846973809526
1746443806.2554655,0.09491234002479979,-0.12369564365007629,-9.67782935377428,0.007937686875952947,-0.0192614279824756,-0.01697163581397904
1746443806.2756045,0.06055132361184896,-0.12381033990371597,-9.65497693395065,-0.001330147885961825,-0.02749102989459819,-0.014168478654987472
1746443806.295567,0.04819987948019958,-0.06384748321862571,-9.644005341631937,0.0035058067086240776,-0.022848712654818804,-0.014346426974479754
1746443806.3155487,0.0854382949966693,-0.17237545353163003,-9.677373632491287,-0.007839100696711454,-0.029030610602197734,-0.01591044258368032
1746443806.3355474,0.16733269677875456,-0.19363600054369362,-9.515279821808077,0.004030733894262359,-0.02283106910263861,-0.01594751361257105
1746443806.355548,0.009200672069622218,-0.06394616112495707,-9.693217248366551,-0.0013891364542409153,-0.025306251820861003,-0.01572861979362281
1746443806.3755655,0.21526710460864554,-0.31004340069430375,-9.471694669231857,0.011038245936515782,-0.015727052230013944,-0.017812149713666972
1746443806.395545,-0.045804320709468174,0.01653114589328436,-9.681636527559252,0.000774125247880728,-0.021178502962255003,-0.014953894882189286
1746443806.4155457,-0.2214751649302084,0.16444744987602175,-10.005488491691658,-0.005003111016606778,-0.026306298053531657,-0.013812815190805988
1746443806.4358823,-0.043221867079888066,0.030254015710653562,-9.698612159811859,-0.010499173655732556,-0.03188304432952733,-0.010586338835761723
1746443806.4555097,0.24863419423940517,-0.33475845953590516,-9.418777778700285,0.003755900669292717,-0.01620689640306496,-0.017002027133249192
1746443806.4755719,-0.04030403327471738,-0.034236177849724075,-9.687335587316394,0.003356705539643467,-0.014692771654538453,-0.014131799456648825
1746443806.4956453,-0.36791314617881915,0.24331019677613822,-10.208033999898154,-0.002950339718242545,-0.02341144581910494,-0.015967687675238207
1746443806.5156584,0.018164280634294178,-0.08322928794284805,-9.711357399967502,-0.016766567264486085,-0.035578852270003826,-0.01270406420658703
1746443806.5356352,-0.1037498267032825,0.026103341606287345,-9.830140884322773,-0.0010723319381230993,-0.01827660275150566,-0.014952510044223006
1746443806.555521,-0.04936679780542927,-0.01842065387013226,-9.755085043222497,-0.004901010442417016,-0.014553665177939233,-0.012549858475766876
1746443806.575642,-0.2488004283460742,0.19792081256997313,-9.857756345003153,-0.006615159541713493,-0.01998004263049849,-0.012025567434625455
1746443806.595546,-0.22146309532055536,0.17784231751409948,-9.84722403355291,0.007660548272966393,-0.006507313750304481,-0.017521689946633185
1746443806.6155572,-0.31609630704002023,0.23335340909611668,-10.079729546722987,0.0024121684490715414,-0.010270103801005388,-0.015219421413004065
1746443806.6355407,-0.26995561062383955,0.13875940219126912,-10.017247960083655,0.0035635740416561376,-0.010459707222939638,-0.014690561454723958
1746443806.6556013,-0.12250393405474543,0.0031859668515850786,-9.821194356899985,-0.016239951047269455,-0.01987098437185661,-0.012643609081717586
1746443806.6757414,-0.2191620509187871,0.052246786929102965,-10.009380353298324,-0.020235111454969,-0.023974346910915007,-0.010930856275728285
1746443806.6955166,-0.21387478002408836,0.1714465654637817,-9.76069511506354,-0.006146837696057783,-0.016954433683696483,-0.011284678735781775
1746443806.71557,-0.1886622198972826,0.030183571567479653,-9.869330208371004,0.008450028714813755,-0.0038188629039127373,-0.015815398405718852
1746443806.7356346,0.15987727659947207,-0.27647595631149957,-9.370444237486788,-0.005287629554596792,-0.015968495223742357,-0.012160003484156894
1746443806.75545,-0.013461344662232644,-0.05509524540024078,-9.54741447738816,0.004511292021298334,-0.0004068064122900441,-0.012262682258402607
1746443806.7756088,-0.15384176185310156,0.07101243137860487,-9.788197490318874,0.0014942209486045015,-0.005114797957511843,-0.013047540822068483
1746443806.7955623,-0.3021224526955299,0.2202332317321141,-9.914015662785614,-0.013695039053093777,-0.017407719471679066,-0.00904165418953109
1746443806.8156946,-0.15451043342157672,0.06654284957739476,-9.79903879167713,0.00675774751883368,-0.0017060140319003865,-0.01125000635729487
1746443806.8356893,-0.08093578793164444,-0.01685495371321306,-9.673087238457953,0.00030312100046788994,-0.003968481793131806,-0.012250367364566988
1746443806.8557842,-0.15253367494817524,0.021591248779205412,-9.880021772671016,0.004743393779651173,-0.0002453342652256591,-0.011330215363256865
1746443806.8757262,-0.11427613165195365,0.0018252000217148963,-9.775896474294893,-0.010342406783523394,-0.009485329650673583,-0.010757516769154164
1746443806.8957148,-0.24009812169939188,0.10932704332358474,-9.944925482084571,-0.0106070669159473,-0.007962025201887142,-0.01357237684414621
1746443806.9158204,0.05580198639567105,-0.221776618380134,-9.626857861000397,-0.008347596398791854,-0.007089185381733901,-0.01206303991938118
1746443806.935753,0.008312738358053684,-0.10573317263423838,-9.539484796047214,-0.003916204199606893,-0.0010122471216744428,-0.012220702818448673
1746443806.9555926,0.08959379911026846,-0.2434548209395937,-9.595274993500048,0.010155255323243066,0.010370445947964163,-0.016166611796224774
1746443806.9757795,0.22861828242491303,-0.3795783943136409,-9.435420963395796,0.009358952511029875,0.010145126717490629,-0.012316769373709987
1746443806.9957416,0.10705406816660393,-0.20869180380722813,-9.533801161715376,-0.0026061957602847652,0.001892877841692773,-0.01145872651729295
1746443807.0156865,-0.16745502761995235,0.06296115115915887,-9.843663087356246,-0.009827924405016269,-0.005159426329841685,-0.01097765209525272
1746443807.035576,-0.07266297541400353,-0.08309747378408716,-9.755224535045288,-0.006412898693210963,-0.0033587438098697468,-0.010939926612483664
1746443807.0554538,-0.053137616868464146,-0.09535592201475113,-9.766123742350814,-0.004536563451514164,0.005734999667937989,-0.011255314563511452
1746443807.075573,-0.059512904113319304,-0.06811518923955368,-9.741584899798289,7.572368463148896e-05,0.006870511251091503,-0.013872575846827908
1746443807.095549,-0.07750911697574558,-0.031176532452094837,-9.730244654003691,-0.0026398042556076977,0.006550220441136659,-0.011090183377012819
1746443807.1159806,-0.21703018685003994,0.04533460967051995,-9.9729140423424,-0.0006263745695754009,0.004624641894428124,-0.01187138612813743
1746443807.1357574,-0.1554994432045515,-0.01388074318160408,-9.991904384561666,0.008366102193396681,0.017423117072792663,-0.015684433520226738
1746443807.155458,-0.17579787902854985,0.08461012116728114,-9.836700556908172,0.0006580365006411363,0.01465150000202082,-0.011632346973806806
1746443807.1757476,-0.11536536614904311,0.028305010538686143,-9.79965322808902,-0.003476668956100102,0.008807764302457867,-0.012585983346175795
1746443807.1956458,-0.07205077210192631,-0.09280230103782404,-9.861804658693956,-0.004799841211582861,0.01033958506062628,-0.008817974774303653
1746443807.2155364,-0.34099741569146047,0.17474314296685203,-10.13209968404631,0.0074221261016608935,0.022257130447006,-0.014531410579725828
1746443807.2355218,-0.20161467244521808,0.0904875038932254,-9.985835976993032,0.0019161424902134547,0.016343073341294367,-0.012492416174956408
1746443807.255559,-0.27062929499471194,0.1420461898204768,-10.025499331926293,-0.003649287147215357,0.01593005434051892,-0.01034300946469871
1746443807.2755995,0.23588775132085218,-0.30828625467977855,-9.39103700399365,-0.001055790616104195,0.01632269471158753,-0.012686748342099064
1746443807.2955282,-0.008253343369102245,-0.1055823995889012,-9.701287910417795,-0.012165376921153511,0.008145655842840804,-0.0097072225402375
1746443807.3155982,0.013034200392848444,-0.07213710468588919,-9.612499340846902,0.0018342311418543989,0.020311528168468776,-0.01183390313289455
1746443807.335601,-0.05090228254530031,-0.1028468496270092,-9.847575059407625,0.012092918135336481,0.02566997937612743,-0.01271191998545975
1746443807.3555133,0.10285112461601902,-0.15491308625790873,-9.675077280079247,0.002266055639759467,0.024786673552553512,-0.012710069979153376
1746443807.3755565,-0.2129933133462621,0.07967901829610849,-10.034596554223187,0.004436208800969305,0.02224682823163807,-0.011932923856226412
1746443807.395521,-0.1104517783864063,0.08602841176243983,-9.835097814876008,0.0038945074496456312,0.026664610865802966,-0.01149578407042832
1746443807.415687,0.10838722937198972,-0.19196792412098518,-9.574949858044995,0.003039026883715057,0.0205474604283797,-0.013609073963452737
1746443807.4355206,0.0012520665153697985,-0.12203321407223706,-9.825980722283756,-0.004758048173022055,0.017160984178155418,-0.010359947876830252
1746443807.4555023,0.20041607073078407,-0.22190994861972796,-9.535256034439891,-0.015840863994240017,0.010480190839559164,-0.0062024709067090575
1746443807.4755373,0.12066296358998771,-0.18319103406346487,-9.573134762781423,0.007137023826580742,0.030586814199009972,-0.01230454581602387
1746443807.4955244,-0.08524036965417443,0.06411081971093055,-9.897417485789942,-0.008010084059863679,0.018028913533667628,-0.008721393549002029
1746443807.5155191,0.2309410040576675,-0.22661317574563297,-9.265072099951638,-0.00913909561710682,0.018332974938309442,-0.0071771593958000635
1746443807.5355003,0.1060800478838064,-0.17271339329303806,-9.671693266278114,-0.0033470283955404213,0.01962254371945757,-0.00808423126297459
1746443807.5555103,-0.07489351365406807,0.12585787734327308,-9.814790974088073,-0.006232155673791064,0.020410460695227412,-0.009538805572547942
1746443807.5756543,-0.012427334805543675,-0.0012826602540604707,-9.788637610047425,-0.009010146886574389,0.018141333182528252,-0.009703802710916094
1746443807.5956268,0.018648901357110795,-0.035663744271770687,-9.895196943848026,-0.009338970717498686,0.019138237564802683,-0.008369677591008939
1746443807.615448,0.07387976212922745,-0.11088673566787605,-9.71517066914993,0.002293314802454294,0.025938414273970006,-0.009542526675960861
1746443807.635515,-0.07780226927899547,0.022513441446284036,-9.999744821090289,-0.001312432344788732,0.022945243502256553,-0.009223241019825452
1746443807.6553888,0.2878520213272843,-0.2548556471005876,-9.432805577585265,-0.0068362844289658,0.01778329409910214,-0.00761335590127915
1746443807.6756182,-0.05036033820386065,0.0275236733218112,-9.920943700571971,-0.00607696037405679,0.019899658000124616,-0.00931930029722123
1746443807.695517,0.11699024212786167,-0.11658808809537778,-9.679925821263115,-0.009668856082385123,0.019486178060066438,-0.008020924066741326
1746443807.715513,-0.043927554450854216,0.00695309355484049,-9.931083423978677,0.0056050706123216545,0.028843527618882935,-0.010302488608305613
1746443807.735504,-0.1152123981432829,0.08208489714889448,-10.054848486798717,-0.0025084249364375004,0.021166249657018302,-0.009280506310021234
1746443807.7554085,0.19037618118459462,-0.12053118106677871,-9.566986993098771,-0.005477145488853107,0.01860848248182336,-0.008450854549289613
1746443807.7756188,-0.14148902404708452,0.15992299544472616,-10.031087120741724,-0.005592970646579686,0.018079799657329004,-0.006638917538186894
1746443807.7955334,0.003960323634308375,0.00902863308188859,-9.87248011194663,-0.0005227710735022672,0.022678226223462283,-0.008032911190521947
1746443807.8155386,0.1018350175010191,-0.08097946354388101,-9.75285200541366,0.008659660484481949,0.03494122649444406,-0.012079259285621785
1746443807.8355012,0.0016482690658853154,0.03761475145036723,-9.941907825982112,0.001384551252322377,0.027336489370640336,-0.010080101058246343
1746443807.855468,-0.10364483068274824,0.1874683188860122,-10.006968520507385,-0.0014650180172463875,0.022283369277590566,-0.009567869611218468
1746443807.8755646,0.05112398668530007,0.0021452491461483297,-9.80484522167629,-0.006011538573280485,0.015661267760059112,-0.008313383042166465
1746443807.8956366,-0.2637015883464935,0.36736952141511225,-10.138569540290138,-0.0001604740403846454,0.019070578975221696,-0.008021638569194493
1746443807.9158933,-0.15152892238531734,0.2078787139610083,-9.949775519827062,0.0022230445709876135,0.02055482960150737,-0.008758215667488661
1746443807.9357355,0.1021038136932284,-0.048117800031294615,-9.818260925362331,-0.012930138375849285,0.011600473042612747,-0.003604259939287568
1746443807.9555275,0.0005240481470888542,0.0645452201628296,-9.890244594959611,-0.008565308857834878,0.012111079867268637,-0.0065186291957528165
1746443807.9755995,0.1271097003555086,-0.0491602557953905,-9.72984858856656,-0.019268689612164425,0.003563440676451309,-0.007687294577282378
1746443807.9955385,0.03075249546261269,0.01165254969913903,-9.89979020575555,-0.01415719088234358,0.010505646117737848,-0.006725546704533215
1746443808.0156612,-0.0924411065390323,0.18153854852146373,-9.952465714338722,-0.011425330849602622,0.005361102896902538,-0.006567226259790941
1746443808.0357616,-0.17580981987329602,0.3022599424473558,-10.031580592443,-0.008200196140864086,0.011668909233385871,-0.0055824488548342
1746443808.0554943,0.10924765786119911,-0.026067085355305657,-9.808674381691523,-0.01377097898550677,0.006019547698017899,-0.003371335497365289
1746443808.0757709,0.05467722815911176,0.042711086586593464,-9.810677588718104,-0.0016040105282007164,0.014787327237416357,-0.0065575184520781085
1746443808.0957432,0.14175739007403812,-0.006559602116895049,-9.677619486291276,0.0022883437103815244,0.01941968626251624,-0.009096999675177473
1746443808.1158946,0.03452760197626778,0.07279468747149402,-9.901308930895857,0.00587004686202634,0.02306809229304781,-0.009074578762153266
1746443808.13569,0.3487628943967706,-0.30511968954232876,-9.549049375306126,0.0006092698866857542,0.014879729558242011,-0.007657984085367555
1746443808.1554704,0.22365509533195752,-0.1634064757532616,-9.773129084740871,0.009154850244122135,0.023455750236917497,-0.007658867784310422
1746443808.175742,-0.15510153438068036,0.2613527222800311,-10.177679166659818,0.017641046650986668,0.029328530079241286,-0.011075030283757965
1746443808.1957247,0.05597213008514569,0.06653214909353702,-9.83808711651264,-0.013726303941013755,0.0005249453076431824,-0.0037880930469612484
1746443808.2156677,0.26546863974094226,-0.12371394442996277,-9.617686054482036,0.011759871324904836,0.022683898025949348,-0.009242882016525178
1746443808.2357605,0.18249960883368566,-0.09597424845644495,-9.727433972289678,0.0013422359348064365,0.012771460697370543,-0.007438168270636658
1746443808.2555132,0.09578055264849913,0.03568033583228775,-9.753602017109415,0.002259559186501566,0.010145928490470767,-0.008141241963483472
1746443808.2756717,0.12445846040064942,0.06594357352255999,-9.666669507491592,-0.0004987487934137059,0.004045131813549303,-0.008459677674712503
1746443808.295644,-0.09657762756308567,0.20219815789888793,-10.071707266788776,-0.00677113375223736,0.002067587549016517,-0.006424731612579441
1746443808.315719,0.16291104364037645,-0.08798480008738782,-9.834320547207183,-0.0009430463028360691,0.0036257527062794463,-0.007615375152293465
1746443808.3356187,0.20852699358078539,-0.04579812400151783,-9.728209146544772,-0.013676787458989129,-0.001291303694640109,-0.004956568712139802
1746443808.3554251,0.07011578867473663,0.05855117871315675,-9.917285527027593,-0.002959306889110092,0.0008720769374686438,-0.008087385442093394
1746443808.3755858,-0.2430650958564376,0.3222761887208812,-10.266736032068984,0.008781393595158189,0.009538390645488297,-0.00870843200482441
1746443808.395555,0.2868658623890612,-0.192121668409667,-9.581244136185546,-0.01176275102601123,-0.006579291274015724,-0.003881528338929392
1746443808.4155145,0.022274606984965722,0.14272240415710474,-9.832458784948308,-0.007154776644314189,-0.0006888091853068283,-0.003729943369614501
1746443808.435536,0.08056959095771891,0.011642669907392733,-9.911886288209072,0.0018848308997489872,0.0023928289667758903,-0.006815171627943649
1746443808.4555066,-0.17916449905286536,0.26555475650279253,-10.245503542959737,0.003120542966375657,0.002330084402305037,-0.010888399655460308
1746443808.4755406,0.03875998808419892,0.021320681974783928,-9.985266519410304,-0.009702531609606229,-0.00889982710465498,-0.0040182277425795405
1746443808.495506,0.11318881855235181,0.010520381736759472,-9.790078404342706,-0.005374739595953678,-0.0028165627001923823,-0.0020159867920860825
1746443808.5155034,-0.15412433884995153,0.34066248632170837,-10.081502091203665,-0.004664560139675817,-0.005370507721821866,-0.007533771210425435
1746443808.5355122,0.01451083861576001,0.10249916596538813,-9.921676710979835,0.014896376748673543,0.007772971902280931,-0.008418071126790442
1746443808.55555,0.1335930905351452,0.06382786340240014,-9.647875875032433,-0.0010354861535457676,-0.005633921586705317,-0.004000049884135291
1746443808.5757003,0.23019375933126504,-0.06020628582821779,-9.558696521538407,0.00952919177953446,-0.0017034938339439741,-0.008243910349541627
1746443808.5957477,0.0191764776061797,0.08452938799328151,-9.917559523412711,0.012143947951664152,0.0009737758029674352,-0.010194467525127468
1746443808.6157973,0.2914548158130122,-0.21430519081360955,-9.704237015145418,-0.016250454881325954,-0.015770107439056102,-0.0020454523692335427
1746443808.635745,0.005031760056762216,0.09130456753568553,-9.857392640041667,0.0034303292699173586,-0.005610023672326041,-0.008171939803662308
1746443808.6554708,0.07252540323685233,0.08494121414713919,-9.809000253330282,-0.004923375296990854,-0.012995745873471137,-0.002021163783668049
1746443808.6756027,0.06650489200860724,0.02263522832579045,-9.868004922086026,0.0023868665922362696,-0.006658949284075672,-0.0038058940015481086
1746443808.6957843,-0.02903338271364843,0.0856566431950454,-9.925640453316284,-0.0002093948020656287,-0.01042744558277058,-0.006015865805805167
1746443808.71566,-0.04420230736552848,0.16319234120909565,-9.986530007610988,-0.005359928586245529,-0.015854300245761847,-0.007313485590947004
1746443808.7355006,0.09077042218232641,0.04410218917696856,-9.805453869929924,-0.015540617369709303,-0.018190473223291356,-0.004762133386044776
1746443808.755373,0.2996127652137709,-0.17561792312833602,-9.459109290576484,0.00815307607359868,-0.01002653765933542,-0.005684697995627152
1746443808.775598,0.06546270112454441,0.034864554600570676,-9.807034561428514,-0.0007182340264687376,-0.011097437898195159,-0.004940523626385745
1746443808.7956254,0.39209152219445853,-0.2923010392600401,-9.45248626454908,-0.013401963056074065,-0.024009680531565387,-0.004190296529747206
1746443808.8155482,0.058410173634326906,0.016180178563532946,-9.78346537512171,0.010930732991947387,-0.0013466083712343532,-0.009735904852372388
1746443808.835503,0.210936298728856,-0.14770020003245884,-9.678645024519756,-0.0039627399916507475,-0.014764597003973522,-0.0053446248065920215
1746443808.8553898,-0.17148224896447664,0.2648298772352496,-10.096053329729363,0.014420093431984228,-0.004752201181449613,-0.0075951714967102905
1746443808.8757758,-0.04307890615978158,0.12218474600388457,-9.886950759280744,-0.010371519700572401,-0.02397736960814683,-0.002417672844698135
1746443808.8955078,-0.0034338684248516466,0.053691778632867185,-9.956105057351238,0.0014011519228032195,-0.013915597107485096,-0.006128304119851496
1746443808.9156458,0.08940700100486162,0.0018149271873384464,-9.776863671977843,-0.0011169150573450235,-0.01901061150843988,-0.005986411958317026
1746443808.9355512,-0.12749489795302282,0.19874868549888547,-10.064621818491679,0.014639288506208856,-0.006596088047777745,-0.0102777993119826
1746443808.9555125,0.1926033306587658,-0.17208646764530244,-9.643993266701914,0.0003644989045682486,-0.022636508715751985,-0.004373072610283801
1746443808.9756682,-0.2529737415003829,0.3026141300129922,-10.146103804738551,-0.002289925975147748,-0.01871017173633799,-0.0040367634590762255
1746443808.9955363,0.1728373568277461,-0.14297873442416117,-9.664175984652331,-0.01131232703007258,-0.029641506661295832,-0.0030090092347603973
1746443809.0156198,-0.2873659849913818,0.34371048187615466,-10.199400164119414,0.0027204197887711486,-0.020478711576125918,-0.005812923823538629
1746443809.0355108,0.22604637785820286,-0.2135700826122115,-9.657513464803417,-0.008458928839386728,-0.02716237128028355,-0.001090212187778404
1746443809.0555422,0.2547796009771212,-0.20169459555138702,-9.592602917199892,0.001017223547672546,-0.02080602519427319,-0.003760799353186979
1746443809.0755618,-0.05977424376741762,0.03626784920429915,-9.99127209345322,-0.018425762778925305,-0.03422708080968742,-0.0031851404625168386
1746443809.095508,-0.005623890388520649,0.02361983960424513,-9.787851386199154,0.017578236040788224,-0.01024674438817376,-0.009723895676869307
1746443809.1155145,0.07830959301939341,-0.12631438677874607,-9.812037574828747,0.007489668345675161,-0.015950507850813,-0.007095779693302925
1746443809.1355076,-0.008835974724557136,0.030486640377969526,-9.839187397073562,-0.010393572602667302,-0.029969490478091998,-0.004162484378024404
1746443809.1554298,0.00998395725024162,-0.02639755069299688,-9.76333443181158,0.0019628463469907754,-0.01756385119227042,-0.004817679495439072
1746443809.1757739,0.2208637027652027,-0.20085688463597998,-9.521424411132848,-0.01221433837974642,-0.031188019884628392,-0.0033706717385397636
1746443809.1958187,-0.2747848668727356,0.31312823367087095,-10.078642048079521,-0.003794586047947948,-0.027009813032291913,-0.003367513755620567
1746443809.2162862,-0.07229457169154396,0.08728194851241597,-9.955123631649464,0.012244694897004284,-0.00980069500088713,-0.008963029872221567
1746443809.2356677,0.15896188841061248,-0.18797015957104338,-9.699360115760035,0.000417107641994697,-0.018477703565495635,-0.0032772251707105255
1746443809.255454,-0.19056482588274967,0.22499475706188501,-9.90784858025144,0.005532691590384412,-0.019255632418783107,-0.0070193007034751375
1746443809.2757802,-0.01950769823878977,-0.00965576677140935,-9.811740338147334,0.0009511971895243877,-0.022886887487264414,-0.005835167513415411
1746443809.2956152,0.15616150547054108,-0.2074406177036817,-9.613091988262283,0.007227646740148025,-0.014378171326263756,-0.007357395859466911
1746443809.315551,0.1767271297582723,-0.18950980597347547,-9.560015720798646,0.002996733256061686,-0.018941984114731653,-0.005934916934357634
1746443809.335571,0.06614661527752284,-0.11670715783270445,-9.83332680674463,0.0021831522968844014,-0.021567668320248173,-0.004549743148514217
1746443809.3554132,0.045382269740591785,-0.07694181410072787,-9.675670139619482,-3.424697462753418e-06,-0.018850209081585908,-0.006374930960497276
1746443809.375641,0.09273361875475519,-0.11777203187802046,-9.651694223327368,0.008487643946799022,-0.014827701127304574,-0.004024338958606893
1746443809.395782,-0.05908359640871815,0.08376433081704965,-9.758732809913681,0.0006361879394354198,-0.016922843264499925,-0.004821533754225199
1746443809.4156458,-0.07770849711796618,0.033929107207838864,-9.834617565789086,-0.005862207919180594,-0.02266338589240527,-0.0038817100873816844
1746443809.4355097,-0.08798654866865326,0.0071558388502007365,-9.991551193011114,0.00998215847103036,-0.014630055790213533,-0.005245983496288654
1746443809.4555495,0.14406624038114346,-0.21349642523089046,-9.535538691718514,0.0018827265869976483,-0.01815526477359173,-0.003265132194877133
1746443809.4755092,-0.07716492536550672,0.045406694353469154,-9.807405191619623,-0.00530576578186345,-0.02082327223112107,-0.00170056655434214
1746443809.4956062,-0.04782895707002123,0.0207212540258438,-9.716728453754131,-0.012685754965519996,-0.0280424377925386,-0.0032110862610027686
1746443809.5156264,-0.223796917612251,0.10860675956214863,-10.101029040310673,0.005603917158687877,-0.013602206085472131,-0.007426939627430824
1746443809.535503,-0.08827916018769891,0.025706813753599796,-9.850848402805582,-0.003041229315769624,-0.017067428000581086,-0.0004147710076494778
1746443809.5555081,-0.10391012149171394,0.06798790552908447,-9.796119830168697,0.012239318434482335,-0.004868436659704463,-0.006490331990713192
1746443809.5756042,-0.1321436077282893,0.03284761515372013,-9.900992873516007,0.0062025865915279355,-0.009523558628508896,-0.003852828067653957
1746443809.5955176,-0.0036810982925608443,-0.07207365064837112,-9.736342489176485,-0.007142915527707141,-0.022564520585639923,-0.002410162020212791
1746443809.6155226,-0.16956111673552615,0.09538775930041317,-9.889410169787299,0.01126807216277231,-0.0057094717608768535,-0.008404939270330192
1746443809.6355321,-0.13199432494331137,0.0694186187690863,-9.850457986738085,-0.00043911221327307294,-0.015010910372073636,-0.003080070185883588
1746443809.655528,0.1504276998794533,-0.2145789150065099,-9.49696811604292,0.008345768165754969,-0.0031654972449689095,-0.005349575183097813
1746443809.6755576,-0.040775790874502386,-0.04960103365014388,-9.770702367627317,-0.008483328473629594,-0.017949889490908196,-0.004097186788253216
1746443809.695801,-0.03738354473026245,-0.018318250452087237,-9.733080870098442,-0.0005550212504028893,-0.012737940438393304,-0.0040326937968185195
1746443809.7155263,-0.200879992376171,0.15382649387280067,-9.951006589989323,-0.0036441937693779455,-0.013112554463816038,-0.004086151001788936
1746443809.7355192,-0.24718889832194296,0.1766100058879902,-10.003761133846595,0.002148278055827984,-0.00919222338150025,-0.003634672330703098
1746443809.7554142,-0.20685751921913642,0.030641957473917954,-10.057251602416187,0.007563821900932321,-0.0010548885615807432,-0.003505120037656466
1746443809.7755978,0.052932188718060394,-0.1238736021152274,-9.538523040607492,-0.0022115697760044413,-0.008793256371476219,-0.005149639918216719
1746443809.7955337,0.043578082879980815,-0.10709210492247943,-9.550952507404714,-0.004284113086173755,-0.013101284875869045,-0.0020397921916753613
1746443809.8155508,-0.05362609377526707,-0.09922427871356573,-9.8225405828195,-0.005576997960138233,-0.012032907918869046,-0.0031008446192973558
1746443809.835518,-0.031027843027113033,-0.00984753460569391,-9.645949547180136,-0.008595081099890123,-0.015137344187458802,-0.0025789992378186482
1746443809.8553824,-0.09470439155514129,0.0011806628715641237,-9.803555336309051,0.009911675368634293,0.004238393740832073,-0.003589619587493185
1746443809.875526,-0.04913411834905926,-0.0244565748881656,-9.665329368038172,-0.0013777188581134052,-0.0024263251341265515,-0.0029932749014431465
1746443809.895561,0.01876573637262284,-0.13303679208330263,-9.661133343394722,-0.01433808121548266,-0.01579842479896225,0.000552829236135578
1746443809.91551,-0.16352267759446099,0.06548095387709654,-9.84005029582637,-0.006721953697535682,-0.011536961271799333,-0.0038785131989227837
1746443809.9355483,-0.037911536510046764,-0.11186495249737104,-9.74667591347379,0.013514362767423535,0.0051417437510267155,-0.0051306832013952725
1746443809.9555054,-0.06370631175869843,-0.004359997690155559,-9.70460350912698,0.008741714360230274,0.008749697872366513,-0.007679400380976371
1746443809.975523,0.1294533729965205,-0.15984743798781428,-9.368304547156209,0.0038776873247416254,0.001889134169168906,-0.005019456755481738
1746443809.9955378,-0.0988905017615962,0.016123498399610192,-9.786830859123139,0.009667269723001668,0.005273466631114929,-0.007601991664749145
