timestamp,accel_x,accel_y,accel_z,ang_vel_x,ang_vel_y,ang_vel_z
1746444920.7474678,0.3928860662866842,0.025488750121270456,-9.77746339010428,-0.003725083734054227,-0.04767915931111809,0.1801804464516232
1746444920.767547,0.33224355200345357,0.15471364473132845,-9.740156683748598,0.011853267164076935,-0.039168626595431855,0.17843425996704765
1746444920.7871974,0.5246074769062926,-0.2001260121877704,-9.612202988696266,0.02320835481258767,-0.039276015592370817,0.1725418458527622
1746444920.8074038,0.49141349334877715,-0.17684856703143906,-9.61202178057792,0.009610811102055725,-0.04969832701259561,0.17762895528173184
1746444920.8277352,0.4469419497181214,-0.057584647687487237,-9.58745434206082,0.003035384351846868,-0.05522009361974893,0.18092490273425912
1746444920.8475244,0.20809763281053287,0.2388860342917643,-9.770074728766282,0.008910853206303481,-0.05117802710616347,0.17704210461696263
1746444920.8676474,0.3131958900305113,0.10149651562491954,-9.646947743100002,0.000762553814981087,-0.05332569182071829,0.17622758848655365
1746444920.8871763,0.3035656499977377,0.026814988774068266,-9.650177060578518,0.008759563928347616,-0.05981161183020667,0.17085874784264007
1746444920.9075286,0.1279709794191859,0.13511981141650223,-9.901481527036339,0.0173040892946641,-0.05266507373676589,0.17402338837610967
1746444920.9275994,0.2617800561501664,0.018742798779056435,-9.778611732815083,-0.01624953246340599,-0.07977551482689166,0.17958688539630496
1746444920.9475672,0.27463987517924016,0.11590865001145756,-9.730718557830414,0.00039068024212613947,-0.06112418774186973,0.1766782952833281
1746444920.9676654,0.13867793059858186,0.18517898462534452,-9.840789916693822,-0.0013250366077602947,-0.06706312241873756,0.17576506455322827
1746444920.9872403,0.1533529818337607,0.0598465832203505,-9.882663874983601,0.004657065039328602,-0.06269782320069837,0.17575702745406543
1746444921.0075603,0.04620768516577345,0.13510429476315938,-9.885544967269587,-0.003387811269116532,-0.07125490933710045,0.17601508979070485
1746444921.0275443,0.00895218831706504,0.259394462007442,-9.934017898243566,-0.0062914118938464615,-0.07303669764051576,0.17763399566708699
1746444921.0474756,0.17805962884497234,0.11553940187189071,-9.637494969072605,0.009483832246513292,-0.060522937947491584,0.17477713831793448
1746444921.0678682,0.2226807669598114,-0.005638712703227966,-9.704060116216407,-0.01207553438841426,-0.07683184415461321,0.17770394910137421
1746444921.0871782,0.20882062470141508,-0.04985832817739376,-9.63471784365022,-0.00548601743844623,-0.0747051097210433,0.1761269912331559
1746444921.1074884,-0.12041871138446553,0.2647164473475432,-10.014859948743991,-0.009646856471495957,-0.08244618153081469,0.17479103292317016
1746444921.1275601,0.10037455457539307,0.02216987496594104,-9.839707305612572,-0.015905882716549732,-0.08066429790763438,0.17760267628674734
1746444921.1475568,0.13965216746835352,0.05255248026970892,-9.687278107234945,-0.017041160132107283,-0.08431963501589385,0.18025535268301038
1746444921.167912,0.012410953336633182,0.1001852923724221,-9.900040122332896,-0.006451677390841298,-0.07744183244476172,0.174998222014661
1746444921.1877236,-0.29667736283611995,0.4870392739975963,-10.058385770327806,-0.01358459241327009,-0.07709500387309123,0.17529455553592121
1746444921.208034,0.13446680760248875,-0.07669799422333397,-9.626557042528873,-0.007066923962754962,-0.07198751357868759,0.1738580758611363
1746444921.2276356,0.07671452177742769,0.014814147914568795,-9.692650681590328,0.0019933749198851676,-0.06688130642042457,0.1700621212898723
1746444921.2480009,0.03559213519503511,0.0389905391478044,-9.769212079358333,-0.015020558599518362,-0.08359177033956357,0.1764128813835952
1746444921.2678492,-0.049338903778162385,0.11914487949020387,-9.849545171536468,0.008146638194830545,-0.06166600526676536,0.16990168423280852
1746444921.287169,0.339953422182766,-0.3658300207366738,-9.30438128009342,-0.002655930060291474,-0.07223566749689175,0.17121098091936376
1746444921.3074512,-0.19476546163059313,0.2357315315528049,-9.921275917236873,-0.010505962179955008,-0.075802180499344,0.1736496480834937
1746444921.327459,-0.24208086718965233,0.284540633395127,-9.952103429114768,-0.007359978143552822,-0.07322540737387641,0.17292907135884206
1746444921.3474064,-0.16419025085822872,0.2120098455957216,-9.86107244315694,0.0037929030681910537,-0.06833830653299017,0.17073454327050627
1746444921.367866,-0.4083284768305504,0.44429793117369587,-10.223149204777044,-0.012325376330789112,-0.07502799437459427,0.17420880719325235
1746444921.3871849,-0.45383335390461904,0.4227832754498898,-10.15364615063103,0.005983121701362106,-0.06302826883042778,0.17006481985620106
1746444921.4075537,-0.0414574609156009,0.031352890239211215,-9.654558083242295,0.0043819036834903975,-0.06278953344839885,0.16902179255130392
1746444921.42742,-0.2625486960203174,0.22292262704395188,-9.901759054614203,-0.0025146643190406756,-0.06843667581381306,0.1694951808332036
1746444921.447533,0.0325147483264378,-0.07615022798119422,-9.549092562299242,0.002697064994642154,-0.060557870836229516,0.17124838832656697
1746444921.4677868,0.0291678551427815,-0.09177336726413983,-9.604903519343475,-0.007912671376381023,-0.07281677059309664,0.1731889755005814
1746444921.4871726,-0.18265474258108721,0.07926063297236297,-9.777698322489668,-0.0057463160937256015,-0.0638315519178656,0.16776704173124352
1746444921.5075178,-0.38367825247973353,0.3294696569151382,-9.912140166256739,0.021486105772714773,-0.04291774898478008,0.163370995339992
1746444921.5275161,-0.23231852482220777,0.17038403720154427,-9.741413046034921,0.006139908874988765,-0.05789640740197387,0.16827608957407997
1746444921.547527,-0.33200384803060523,0.21400244539867258,-9.979172261765871,-0.003112366482276023,-0.06571110772539346,0.16775982799612102
1746444921.5679946,-0.30432960369795165,0.2535820651880474,-9.798522820812156,0.015146505021607781,-0.05277427752805301,0.16271623556575357
1746444921.5871925,-0.08285098549943876,-0.07151491164544685,-9.54783731029505,0.015118568915399675,-0.041314215518903595,0.16307857620111355
1746444921.607583,-0.528292483281753,0.4321705643219026,-10.008386902286885,0.017670965543599232,-0.041379149193781266,0.16369145524419126
1746444921.627695,-0.46018660478505113,0.3237047196939854,-9.994335166392696,0.0044245926631619045,-0.049227160130196686,0.1674357751356793
1746444921.6479218,-0.3809967799359334,0.26660256597529663,-9.81541499637406,0.012010164648866346,-0.05118571112363441,0.16272832151795982
1746444921.6684852,-0.3842226938542577,0.2390355293141413,-9.995782066400443,0.018688892682585896,-0.043011983694524226,0.16229381811105836
1746444921.6890528,-0.18543257394959517,-0.08943537173878593,-9.69654285839022,0.013166811128824927,-0.034407736134409464,0.1618371419086978
1746444921.7078278,0.013528388422706927,-0.18917977166245964,-9.396916587215358,0.002484162429194442,-0.044939318493155814,0.16518341137621434
1746444921.7278786,-0.2570923797749315,0.07232611922901519,-9.687606545093466,0.01642182238172686,-0.0288055104292081,0.16257550877702373
1746444921.7477026,-0.4215904767518464,0.26936899083733323,-9.829035569002126,0.00520719998644246,-0.03834396038386904,0.16324945486055473
1746444921.7680976,-0.4498063826265496,0.1912749250940664,-10.023852188208119,0.014933499593691939,-0.035033238260777436,0.16181595611701685
1746444921.787493,-0.48174854177297366,0.2702836773932655,-9.933496104934319,0.017079097452397517,-0.021450734449031412,0.16151193578853976
1746444921.807954,-0.04599005960598079,-0.2736424506571981,-9.546982394177155,0.023671067830698868,-0.012626442839900647,0.16024768440122147
1746444921.8276222,-0.25722577183837325,0.07476993968427892,-9.600557985465027,0.022212132324314543,-0.018019298750786075,0.16055703631014642
1746444921.8475266,-0.46423673752611283,0.19676552933688143,-9.949071347355517,0.016014384561634776,-0.01878312663001708,0.15957751857643948
1746444921.8677611,-0.3264183038985899,0.061565189987343,-9.828328648634619,0.012677874929250382,-0.023922124039493276,0.16262889314203624
1746444921.8873894,-0.31097860880998973,0.03439791088210212,-9.755065293661998,0.0189707893848745,-0.00012068202984948963,0.1584315986744959
1746444921.9075823,-0.37949508717859703,0.1246959520949478,-9.865054681524722,0.012682885816825577,-0.0072048529082805665,0.15763005509213313
1746444921.927877,-0.48804357829637834,0.19280783806649812,-10.001319910712844,0.016863295407065146,-0.006666007826556802,0.15803525791819276
1746444921.9476035,-0.0796995124443966,-0.17706267434278272,-9.4241695437803,0.019117197862968158,-0.0026790619592624125,0.1543746083853184
1746444921.9678683,-0.3072979214397847,0.05910681081665866,-9.81195463063588,0.0262644100387725,0.006191041406998595,0.15784002220073867
1746444921.9872584,-0.4460553120122572,0.10842626461975859,-9.99960572074989,0.010679792113727942,0.005491231008307177,0.15479849051988012
1746444922.0078,-0.3041187496675324,0.057087753009022676,-9.674870629073897,0.018354651051702954,0.010537210063594055,0.15474679272591857
1746444922.0278022,-0.24382589140585093,-0.03743156796092341,-9.654883503601871,0.008667490624327605,-0.0005480139320671942,0.1574809648230078
1746444922.0478075,-0.491296152615579,0.1977716100894182,-9.988130318910061,0.00805348370538526,0.003988049408422797,0.15389570262890476
1746444922.067803,-0.34572365105508046,0.150086063303906,-9.676292578172374,0.015182913718071048,0.012299314105686562,0.15263396911699734
1746444922.0873835,-0.2315873346996538,0.005208825408340188,-9.564642064972736,0.009580043111372331,0.020567985622022417,0.15223543616381563
1746444922.1076248,-0.39569863445424003,0.11528254051515938,-9.917117096732614,0.00948444745703531,0.021869231055070847,0.15425154884236875
1746444922.1277516,-0.2466915037560215,-0.008634678931476819,-9.699752925671806,0.005022216208605007,0.013540939052005426,0.1537254319096247
1746444922.1478927,-0.2969149799087938,-0.014517728707857523,-9.771947763455302,0.016696696127655557,0.023619502578026613,0.1493773820988233
1746444922.168328,-0.2854138903938924,-0.006866444482683323,-9.745328952600445,0.009614130601498553,0.018582918181802213,0.15375971117343773
1746444922.1872528,-0.27855185119036646,0.07304873450626438,-9.701441088356457,-0.0009931848110264797,0.025143715726781073,0.1516036686355842
1746444922.2074652,-0.4498205287059387,0.18404425209477693,-10.005186504572816,-0.001348975780103864,0.02653053077302152,0.1526798346091391
1746444922.2274702,-0.256657593761939,0.010047932136067368,-9.72112673283157,0.004214020833041957,0.02656428686771316,0.15049899515357737
1746444922.2476406,-0.4247359737916104,0.11911210451188534,-10.013173724680142,0.0020352780095196513,0.027735261874507276,0.15006897829948354
1746444922.267638,-0.3469702957968591,0.13148293676992817,-9.840182124171593,0.009752468015071826,0.033491086219423226,0.14902632887813566
1746444922.2871912,-0.4175356889122622,0.25074331053691684,-9.957915268143106,0.006339401547379124,0.043478702511458495,0.14385900329454096
1746444922.307532,-0.4907236519876319,0.2902958836739576,-10.04618813713799,0.0014431520903152896,0.03837271538487391,0.1447582701625187
1746444922.3274193,-0.13252705756984465,-0.10949346164929352,-9.691622336096327,0.01018022086668161,0.04449395231857195,0.14266830644095874
1746444922.3479025,-0.21107334008828757,0.03205688943647868,-9.666044639104443,0.02886701957138516,0.06374923723126044,0.1394952863700518
1746444922.3676949,-0.31031765133162187,0.1398570863218862,-9.782587259588693,-0.0008421543058123281,0.03633719394661221,0.15003781106965172
1746444922.387193,0.06571290608612243,-0.2210863408706,-9.45897969662209,0.006511194116575194,0.05552715828730861,0.14270821103619205
1746444922.407437,-0.07913863104679608,-0.0826021518266218,-9.62506465543914,0.0027316407575217008,0.05484426352248022,0.1400600461322506
1746444922.4275453,-0.17308282165207656,-0.023629130701485215,-9.771109995547173,0.007235352770813671,0.053680658374495704,0.13708493599250904
1746444922.447527,-0.0303806090015388,-0.20158713776475742,-9.68852298126203,-0.0010965885128650602,0.05070985136266469,0.1414849312197651
1746444922.4675558,-0.06474177465686615,-0.1592841116466269,-9.787446557487193,0.0018567463308866317,0.05361741368585742,0.1409467259396934
1746444922.4871905,-0.28668861571169385,0.21622627310518136,-9.984760846383695,0.008728824978825349,0.06758801405027522,0.14055282581690093
1746444922.507528,0.018487861243321357,-0.2025722613205399,-9.726400220881303,-0.002431631461685637,0.054263247591875376,0.14041061905054908
1746444922.5275686,-0.09483158372932218,0.06233280644911979,-9.69123310361527,-0.0011066689228049287,0.05946721134935827,0.1393343636612215
1746444922.5475366,-0.006686154764656643,-0.047777007571232405,-9.571155621930098,-0.012604851995625287,0.050685665049412215,0.1416946034527661
1746444922.5674708,-0.04538634986540614,-0.05222875933114095,-9.67221393823687,0.0018267802311204035,0.0621834628766712,0.14061554886552638
1746444922.5871851,-0.0582166991134436,0.0075970055088261795,-9.8186902130913,0.00017302453633580728,0.06188377903041581,0.13472090488408725
1746444922.6075816,-0.20137016318990947,0.15357752904051025,-9.909363459963041,0.0009435021121363632,0.06677091497128576,0.13697592936521985
1746444922.6274636,-0.021793070031709355,0.05298420192194332,-9.656898925546788,0.009590001902702181,0.07336736666693261,0.13356690725284595
1746444922.6476846,0.2063849552602544,-0.2670991990593254,-9.509981537258003,-0.006895435222637059,0.056539292094357645,0.13679057062630803
1746444922.6675537,-0.0775913544092199,0.025745140421015743,-9.85246495163214,-0.005641607305453829,0.05963212209415736,0.1359206178847013
1746444922.6872337,-0.041987088520865634,0.03671453725316391,-9.903229357632224,0.0001059383715090081,0.06301400550107705,0.13387389893341808
1746444922.7078364,-0.14657256390051093,0.1853849440704355,-9.958659118228816,0.007625993466662769,0.07205589681462025,0.13427980083854651
1746444922.727901,0.0442222782377676,0.008861604416135552,-9.800093029414832,0.010372315775081176,0.07312614648224589,0.13064668294137838
1746444922.7482111,0.10662592447241505,-0.08172051466200954,-9.734664276660322,0.020187549784147198,0.07711476304845288,0.1273075970002802
1746444922.7680752,0.12086138382096934,-0.1442192857750869,-9.72730264723001,0.009926158743344222,0.07098841268708585,0.1284461952489933
1746444922.787486,-0.061190502218886056,0.13543622821552076,-9.979869459820527,0.012389720931146632,0.07403880122302253,0.12303494109560012
1746444922.807887,-0.06712597470168921,0.20289325369578734,-9.925887433736923,-0.0012084279775835616,0.06490711313306458,0.12937409411341508
1746444922.8279607,-0.0778719752463526,0.14397770102942714,-9.986796305766966,-0.0021963411657722263,0.06015694037830798,0.12823448870002696
1746444922.8476486,0.1670873638882262,-0.06114224385012297,-9.738240381918427,0.0016746302878696887,0.061026847028121584,0.13016427356036941
1746444922.8675625,-0.03893964585535668,0.0784424028212881,-10.053404218700761,0.0034791811382744835,0.06535605435181888,0.1309476049901871
1746444922.8871722,0.14661474453103868,-0.005585143711147829,-9.885485401830278,-0.002350907370648528,0.05651897727510708,0.12352700559531322
1746444922.9074712,0.0012264165352545847,0.14871312855188834,-9.923150222238295,0.005421658012651846,0.060517207471765797,0.12231864512428416
1746444922.927478,0.309881583447457,-0.17373535782330957,-9.605437707309735,-0.0015707571635436702,0.05768490526935079,0.12689463959765446
1746444922.9475865,0.04162445016832024,0.12007211383563791,-9.907036924222213,-0.006232237074339892,0.05413349253821555,0.12594604963862147
1746444922.967463,0.297757000194786,-0.2017552012244087,-9.636459752923013,-0.012575659298436152,0.048821966679548384,0.12899509831902786
1746444922.9878676,0.36426618306360004,-0.16788476693652873,-9.617207998780303,-0.006101776769566259,0.04924970662390482,0.12224149926200555
1746444923.0076597,0.08727963748472417,0.07882148172166047,-9.967401402844931,0.012108271294010493,0.06451963899305174,0.11785291005460624
1746444923.0275207,0.17180684699167414,-0.002248675277268998,-9.830973119090999,-0.004506978863329909,0.053753933561997425,0.12594113301059856
1746444923.0476787,0.22085096202305327,-0.04370072637464138,-9.749888955553661,-0.006047610868942512,0.05205580865580721,0.12273300958332416
1746444923.0684087,0.2296249022314861,-0.07905401678054177,-9.792280606948294,0.003195470402020801,0.05530755160936064,0.12130430851993092
1746444923.088132,0.16904949570230018,0.09368330464355948,-9.860991598845184,-0.009175572740381109,0.03710424653582379,0.11952208635495044
1746444923.107856,0.23231429561132946,0.07018891951703227,-9.752032870919395,0.0069413614953908204,0.04946466060955856,0.11353605957006287
1746444923.1278517,0.331184764899694,-0.0726704459101701,-9.701278524479946,-0.013657828897099645,0.035303660446408446,0.1193873251059794
1746444923.147738,0.29378866364096146,-0.07781847691985737,-9.811343433826067,-0.003515691279077863,0.04605919020118717,0.11995563430870479
1746444923.168051,0.23398119398291822,-0.01008763339916649,-9.816394521019417,-0.010062823673217253,0.045594224324071495,0.12060134513874735
1746444923.187184,0.39123829737889004,-0.09516274781388627,-9.616531292568492,-0.005187633865101977,0.03144748113721723,0.11163907275175103
1746444923.2075648,0.4238320543513953,-0.1756940569127845,-9.707944191503074,-0.0031884579091947594,0.03528673083896329,0.1147275250504674
1746444923.2275255,0.298483816716495,0.01572070051380731,-9.774173674886457,0.0031137952579675153,0.03749025445422483,0.11578247169226055
1746444923.2474897,0.22577878660925133,0.07100411337533644,-9.803406253999992,-0.007020143382275759,0.03257655378976152,0.11327875735984423
1746444923.267561,0.3354968292952516,-0.05995359890454177,-9.779563048749493,-0.010328390673468727,0.029664419242204153,0.11166456495572635
1746444923.2873046,0.30674412873339896,-0.019310793101128577,-9.836741431104686,0.0026377898617735923,0.0323655725429228,0.1105764310662995
1746444923.3076193,0.29703496319402395,0.025160743591360973,-9.78024974528399,-0.0002967311947807167,0.03118239589879189,0.11020940035715418
1746444923.327917,0.32660759925409616,-0.015939051016432233,-9.76906235145537,0.00017055659836603997,0.026067548409162436,0.11156736492539032
1746444923.347574,0.4194535559482679,-0.03760401808274844,-9.597721148785794,-0.003821579813145913,0.02276441916062842,0.11253613659400925
1746444923.3678079,0.11203422689139064,0.21256923294921604,-10.012792643133908,0.012666206206992704,0.033224397685782364,0.10523368321655634
1746444923.3871558,0.23024982236564434,0.08292774604881967,-9.941573302711912,-0.007091142754585724,0.01169397460656979,0.10427236986046876
1746444923.4074607,0.27106035315021554,0.04669238482039747,-9.881078154075311,-0.008516358020459297,0.008007770985998383,0.10614350718528359
1746444923.4274633,0.17523680217485718,0.2022110120666215,-9.888763421098375,-0.00811293813643077,0.008382603816033632,0.10574488099373643
1746444923.4474208,0.37172580926493776,-0.004249233624543235,-9.679372895456702,-0.006023995642291568,0.010617232076318662,0.10731793559267941
1746444923.468038,0.34932024471361367,-0.01621727255106218,-9.777393372723644,-0.013901266414055131,0.006444702052705109,0.10734583725470508
1746444923.4874923,0.3296179122581299,0.013008455225137133,-9.84662004943339,-0.013522809969951921,-0.007777525509739408,0.10269098705820377
1746444923.5076907,0.37371005790360734,-0.032035393835058566,-9.723026520740305,-0.009516725363562585,-0.0019973582892557876,0.1034898132252914
1746444923.527666,0.17258914092796016,0.14005939555975475,-10.040757037436997,0.000801409253779977,0.005848305430438635,0.10312768409357548
1746444923.5477347,0.37852039429123335,-0.054982375410156145,-9.728355125989122,0.00216075060717372,0.006317219169149239,0.10025674241767828
1746444923.5680587,0.16497284419770722,0.23776282960614356,-9.889213313369149,0.004580764371365705,0.008063350551720756,0.09939234483463903
1746444923.587271,0.5102750786079947,-0.18718196063937242,-9.538995750248692,0.005714866775255887,-0.00410776008829021,0.09352647297230648
1746444923.607598,0.5622138088812829,-0.2849988040835322,-9.547441036858837,0.00418053070534529,-0.0030240010332149587,0.0957179884368084
1746444923.6275764,0.22090549740512427,0.13978427213188127,-9.912161099575938,-0.008449255778079328,-0.015458163561944325,0.09810225127915062
1746444923.6475716,0.5015523396401877,-0.1835568312686085,-9.630451409307156,-0.011919397645511073,-0.019744185003044423,0.10099028295946368
1746444923.6682553,0.2762559640686555,0.004042001004417492,-9.907349522202065,-0.0073304972424195975,-0.020274594849659114,0.10034246631631252
1746444923.6872509,0.18868515748052253,0.11825348798398766,-9.91751945375464,-0.006319128059541446,-0.024867909111864255,0.09269739602045798
1746444923.7075274,0.338624953207505,-0.035078131276331415,-9.733143850994885,0.002988741875140995,-0.016384851408081273,0.09261033288455474
1746444923.7274864,0.42006481227946446,-0.09863581851631002,-9.603243995847947,-0.007191007185191789,-0.022982243917670512,0.09587517895987938
1746444923.747499,0.23435489919615088,0.17535240067955474,-9.769028549052631,-0.007583967765550112,-0.02615157778356778,0.09487482045497803
1746444923.7680836,0.5223006446077332,-0.20355114668022817,-9.529980590956987,-0.004077896567672984,-0.022046682238977537,0.09248986724358721
1746444923.7873724,0.042733385639852156,0.2195345623121765,-10.03463056228223,0.007256641054774074,-0.024143266947601216,0.08707849554586679
1746444923.807523,0.026521170262859467,0.3029030197740357,-10.049859062865321,0.004774444030167404,-0.02788287658010811,0.08906021307835191
1746444923.828142,0.09834979780415734,0.20676626654530333,-9.93283668548124,0.00795400660270177,-0.027051451134684677,0.09037840198371004
1746444923.847556,0.18368859763522108,0.08686108807408105,-9.796353489833816,-0.009215196634056734,-0.03648928188397878,0.0924262984520571
1746444923.8680363,0.4201610480327403,-0.16433561941980832,-9.603369209926498,0.0028091565068755074,-0.031239616514699177,0.08794828255433733
1746444923.8872118,0.1694148043315067,0.08210606393308167,-9.900368932527792,0.00019398498840868727,-0.042378067332473325,0.08649055874222618
1746444923.9074738,0.05113624382771978,0.13171629667617477,-9.977639629844724,-0.007623142350459385,-0.045618266745815955,0.08888507881243277
1746444923.927457,0.07132885697617486,0.22388590941765626,-9.939312568484333,0.008621915699452292,-0.031988744712492474,0.08479784230604663
1746444923.9475756,0.11505894437924093,0.08124167572283589,-10.028236998619048,0.004676145183800232,-0.0395941801032511,0.08329340945502474
1746444923.968223,0.07070486211598268,0.13351500829349502,-10.04797213485359,-8.529534451971613e-05,-0.0420857733945277,0.0853045102462788
1746444923.9876518,0.21101041385503538,-0.09736983196965766,-9.860762271631174,0.014301714507124533,-0.03892883478031607,0.07964468557632655
1746444924.0076535,0.24219499925894594,-0.050747613887503616,-9.726669061997582,-0.00605464444748443,-0.051234179478793086,0.08619840025915956
1746444924.027621,0.3897548021574571,-0.20733506169136418,-9.546817634785361,0.0023454174581013414,-0.049227723775699075,0.08191614824144132
1746444924.0475736,0.2744612843568879,-0.06902234153540955,-9.702642486935488,0.0029367419825414545,-0.04317392023121934,0.0830806316738106
1746444924.0678198,0.34360915335735154,-0.15068678852087916,-9.63402088233159,-0.007034870576669871,-0.05434951817155082,0.08753722233846721
1746444924.0871944,0.2965860822362123,-0.1901680053433464,-9.568437806607156,0.012394491876323646,-0.04758178825996329,0.07666497321971455
1746444924.1075137,0.10876470588531086,0.006448420942809845,-9.880429551563502,-0.0013710970408049256,-0.0533635964455088,0.07774594296813472
1746444924.12803,0.16763546030932036,-0.09900052588795417,-9.88721019041644,0.00842532626428936,-0.04510107373173616,0.07632842084001121
1746444924.1475484,0.09412628344610452,0.01795342302047372,-9.850206412323589,0.002741661937991302,-0.055366977543842365,0.07939809878094767
1746444924.1675756,0.24236933369840152,-0.14924409087601712,-9.636668452048106,-0.0014655229811059956,-0.05828060767282094,0.0803887664671889
1746444924.1871305,0.0490021341141213,-0.01744944860621131,-9.7700144978564,-0.003776977832427648,-0.05908338367631502,0.07415855686078202
1746444924.207441,0.2809454619610875,-0.2557049711547747,-9.528258705556135,0.005676494584794323,-0.05313877391867005,0.07585515811523336
1746444924.2274723,0.21731810054465486,-0.07005784738958415,-9.471232451449998,-0.0008178173031116484,-0.06240176440517279,0.0760046368388343
1746444924.2473333,0.03132606342773049,0.02931692024976804,-9.844249058248272,-0.0026913346839766076,-0.06004160338323105,0.07558527931250009
1746444924.267744,0.15269003557163777,-0.08477554674513849,-9.619987542496343,-0.0090119957774051,-0.06754684062750312,0.07470423272615012
1746444924.287825,-0.05095841938906608,0.08386395629581972,-9.845324971860002,-0.011028659545685458,-0.07091208736551015,0.07327915492028775
1746444924.3076658,0.07322117251485144,-0.058565867233242086,-9.640058072921263,0.008411183180759502,-0.05288406145982511,0.07197303396884845
1746444924.3277187,-0.22845159270455462,0.1798443344909072,-10.075964423536622,0.005137515828583363,-0.05713014541495943,0.07164697938499427
1746444924.3475974,0.01904150527449608,-0.005827661930402038,-9.735445451742882,-0.0032179791476201957,-0.062097638761337455,0.07137855693377639
1746444924.3676155,0.08433709887933445,-0.0925129372840291,-9.739382095828391,0.0035881658015741976,-0.05358696720244253,0.07117343862356514
1746444924.387287,0.08295592341752552,-0.1730379721343868,-9.665255198415188,-0.0011988763759342965,-0.05964224365928833,0.07153767635452361
1746444924.407481,-0.10130490336052878,0.02540723882304982,-9.828551207249587,0.0039545152975638525,-0.05119732158610754,0.06866506798835127
1746444924.4275017,-0.2678796043717742,0.18873257356581566,-9.941487429714476,0.012383212681125886,-0.04849584869773109,0.0670965169868341
1746444924.4475174,-0.021507826263144514,-0.07168223079804781,-9.643259610655862,0.0005169199724703976,-0.056735564465384504,0.06810189547233081
1746444924.4676352,0.09960264842343353,-0.17957965443959617,-9.522201806113245,-0.007338908908386077,-0.061346779242069015,0.07261587627562321
1746444924.4875252,-0.28343547024660287,0.11684288779908657,-9.995981841436276,-0.0002305815807463901,-0.049599709353874664,0.0652361469005402
1746444924.507599,-0.2491876097630115,0.18025883378299185,-9.917117192589892,0.0046365899782938895,-0.04946898479519596,0.06387147195649114
1746444924.5274916,-0.3102683283903115,0.2237832315520393,-9.941040279861374,0.0018437714114838623,-0.05320769307208639,0.06761712786513283
1746444924.5474756,0.10339324603646269,-0.21819382480099056,-9.471182591535444,-0.0023716989104598084,-0.054817438350865125,0.06752029146873478
1746444924.5679445,-0.1157430607759588,-0.05077615745026885,-9.78941166013194,0.0006810703933743251,-0.05051409379455021,0.06459846303399093
1746444924.5873475,-0.1255820401611525,-0.05898318266406462,-9.7065886376546,0.003899008021239568,-0.045593791025907715,0.06106327062621379
1746444924.607399,-0.1867338562047049,0.014339836866503052,-9.758791814338462,0.011115593097165097,-0.03952751497777959,0.06206442927955347
1746444924.627648,-0.21193327260387262,0.0635169718179914,-9.785997646887555,0.01479347402237347,-0.0355401050679079,0.05920744429955663
1746444924.647859,-0.16348351695777796,0.004666989698938041,-9.729084377228167,-0.002978064176113894,-0.05124797465794399,0.06135586191017991
1746444924.667984,0.05481357424908723,-0.20602995490918638,-9.45230939951054,0.005964110522164405,-0.04066860667424728,0.06070644209791417
1746444924.6873603,-0.14280463002711807,-0.1020643651355202,-9.772287227979861,-0.005305570913415886,-0.0441288462749953,0.05866208005354455
1746444924.7075868,-0.32566333871086534,0.11165147653169552,-9.946928016092958,0.014068727584891062,-0.028624342692628604,0.0551930743619702
1746444924.7276416,-0.0957593675655489,-0.14554783680080702,-9.712809519825539,-0.0026992187805640264,-0.0397793027487389,0.058104326799508804
1746444924.747587,-0.18349846847895673,-0.012692866693888862,-9.681077021614463,-0.0009387123726077449,-0.03557773006176912,0.061716492003792145
1746444924.768147,0.03841187486675102,-0.1562419729491963,-9.409810245459264,0.005485103260167298,-0.037153636241157174,0.055890254991418156
1746444924.7884831,-0.41258223561021246,0.14363568909951369,-9.949852170495802,-0.009143205724960768,-0.03583960577522656,0.05286729665398083
1746444924.8077307,-0.23213441463335288,0.0169887962177528,-9.739844789844723,0.00021688074080764144,-0.028648159314000998,0.05439883549737973
1746444924.8280468,-0.243592732296448,-0.012681832660059233,-9.872233498647638,0.01505833120376654,-0.02070754236357163,0.052353463461729526
1746444924.8476727,-0.11466599976127936,-0.1118518030676964,-9.595741492343599,-0.00830588370116827,-0.033522321760513576,0.05962156052147516
1746444924.86796,-0.08676781542437226,-0.1677136285728512,-9.584198048007664,-0.004313307967045977,-0.032767852844591765,0.057616275544361786
1746444924.8872924,-0.262838317836534,0.019742548287265793,-9.712099250024897,0.006039629497226372,-0.012298068264460438,0.04816421484489891
1746444924.9075394,0.004013628758136933,-0.29211473133394716,-9.550716336483081,-0.006468595189761482,-0.01982466109955321,0.051802913807996474
1746444924.9274492,-0.3373313637828055,0.016849976558884955,-9.989589800214159,-0.013380395938208087,-0.029341073905277577,0.05208057598623377
1746444924.9474916,-0.16363660569452168,-0.1518291945489351,-9.69708807125831,0.0021831729500968984,-0.013393443591214225,0.05347813576502768
1746444924.9678726,-0.07789600555138013,-0.2711602095556609,-9.650368187750535,-0.00333066939547303,-0.02008205619302065,0.05210265641714078
1746444924.9873776,-0.012349430841945785,-0.268571870457835,-9.413152608846268,-0.002343082224960258,-0.0077672019313466435,0.049403003398776395
1746444925.0074897,-0.14777953994016252,-0.21972826930932715,-9.685669104308861,0.003483344055866063,-0.0008231060094123568,0.04791569320908309
1746444925.0275798,-0.26072979979019734,0.021680954819036133,-9.703000835355727,-0.017604204865777427,-0.020901359990644457,0.05074619376491669
1746444925.0475304,-0.3141349329682578,-0.022915575069151317,-9.867710666260738,0.0012016145459344987,-0.0036646816073121788,0.044378699884425166
1746444925.0676599,-0.3407333275628467,0.10086393829731807,-9.760557027428419,0.001224114611792405,-0.008343064070730951,0.05036786776176921
1746444925.0874581,-0.40133935591705655,0.08694162621553014,-9.953665902291146,0.00887611177459325,0.011768796061893488,0.044297138735242235
1746444925.1074867,-0.15722432784039095,-0.1484370935890439,-9.67189356911317,0.000716950579602567,0.006033644749736155,0.045340463408165936
1746444925.127581,-0.398424078127139,0.11718868311705052,-9.954753797366118,0.011361675025890163,0.012820975900803694,0.042656414731336176
1746444925.1475894,-0.3163853978558648,0.060963047214006624,-9.834122452448243,-0.005207101716429971,-0.0012303554767685593,0.0457025874437515
1746444925.167801,-0.2696877300164515,0.04772009735340771,-9.641620329085043,-0.0024628760659455087,0.0014712642189660691,0.04591485333634102
1746444925.1873856,-0.5089259723408713,0.2018148628177296,-10.048813937653216,-0.012478250376253025,0.005385589840954934,0.04417232709668756
1746444925.207872,-0.16795527418177994,-0.15502822555998252,-9.711218735159642,-0.011452056931765122,0.005009964403281003,0.04686931480989016
1746444925.2274947,-0.357509043853779,0.05030493158065657,-9.898580433133327,-0.002924059535983855,0.012839379659999994,0.04001476523949263
1746444925.2476368,-0.20974169813661814,-0.032738762214578464,-9.701698853699009,0.0016011720524762335,0.01664784796127569,0.04199166564482574
1746444925.268117,-0.469935484911724,0.17841371167164027,-10.072751508543996,-0.009459070062289335,0.008559070109054703,0.0460343073774524
1746444925.2872605,-0.2725077229994546,-0.02353914992658401,-9.86080529706375,0.001095941622555241,0.027694075130094663,0.039539286073744156
1746444925.3076544,-0.17376368170930104,-0.10216805839505945,-9.726289359922506,-0.0043049447230635515,0.02342904485275927,0.04054024469271389
1746444925.327667,-0.13492720686136686,-0.23253335588078267,-9.810896776057499,-0.0016549296903225269,0.024045805692717404,0.03953161663967253
1746444925.3481596,-0.31771773567248796,0.054727491347981355,-9.957382762121448,-0.009624230353137728,0.019568709410427314,0.04310329170565139
1746444925.368013,-0.1377166784324124,-0.13441805825056924,-9.698278206309169,-0.0009957283064460387,0.022817858136612527,0.04048621794168685
1746444925.3873258,-0.3125146064785884,0.0836765964809649,-9.917371196027808,0.0017997255257582593,0.040679699537051896,0.033355080174220404
1746444925.4076416,-0.08654710295399345,-0.16551973971142434,-9.695380423920634,0.0010312948688981339,0.03768440168823916,0.03775451467885626
1746444925.4275765,-0.14368736054629527,-0.08797525362380268,-9.713390474399146,-8.792717763380503e-06,0.0313769802997135,0.03531803712919785
1746444925.4474835,-0.14170142512555717,-0.08169923742423035,-9.628832955889791,0.010449866074981797,0.04418548067894222,0.03273556215350449
1746444925.4676032,-0.20889240192705294,0.017408616552253467,-9.787166290597016,0.0028819675739021355,0.03192768878491287,0.03694792454045813
1746444925.487396,0.05085812826509459,-0.26917180553576636,-9.53738191502699,-0.0009179520923927856,0.044457668223653275,0.03467722833961445
1746444925.5074992,-0.2554720280812646,0.021378736755484296,-10.041045456673787,0.003777397064954879,0.04583756409285178,0.03576340925091803
1746444925.5275335,-0.03418361480616561,-0.16718682914338012,-9.740951183105203,-0.007333982577816509,0.03597683906477489,0.0351816409014917
1746444925.5475204,0.09671996075747344,-0.22969435143859263,-9.445176583015547,0.0014645814165724148,0.0455422532370378,0.033026507262549805
1746444925.567711,-0.2628188124084344,0.08780097848286687,-9.889037694486625,0.009551430344379575,0.04734534558014731,0.028640026222056986
1746444925.5873358,-0.43630647354352325,0.2645415083032995,-10.215612285137343,0.0013053824237700456,0.05079773990181667,0.030104733379518075
1746444925.6075745,-0.05409340677106894,-0.10513661960292918,-9.75219177537866,-0.0065098927649185475,0.041747228098911016,0.03245305847566304
1746444925.6278806,-0.016911129233808816,-0.10951317773643086,-9.700075371034458,0.001456820903499062,0.04996862863351837,0.030609910156661205
1746444925.6475146,0.07087104016805376,-0.24822035717043625,-9.549895895346028,-0.008131105286636586,0.03978206425805594,0.03227995901301826
1746444925.6676636,-0.21872443665116464,0.05910681389150595,-9.962686211451974,0.0007604454571710494,0.047426101546210624,0.030647247025261313
1746444925.6873574,0.19287836864564614,-0.2578838838787833,-9.499492568103788,0.003545115081454802,0.05355384688492751,0.02554786106549615
1746444925.7076898,-0.15562206302479686,0.15342454042940062,-9.753085672776,-0.001653265964987928,0.05298918400095796,0.02594210087522817
1746444925.727708,-0.2682552351758519,0.1550311519381577,-10.123150172186199,0.004068465737262499,0.05331385838907792,0.026020563350253142
1746444925.747698,-0.050031508680417794,-0.10270259314820596,-9.896711945569258,0.010844651550554522,0.05903512028241275,0.02654497183523319
1746444925.7679994,-0.08690715131112332,-0.0010162579470633822,-9.830099503007586,0.012041996345532116,0.058996562057020085,0.026223818014662365
1746444925.7883933,0.1489235663746301,-0.22946648005126583,-9.717379619400857,0.0033941132128952793,0.05673468849664537,0.02194690678140262
1746444925.8078945,0.1817229138652122,-0.24680686065336258,-9.647991084557486,-0.013314123386519598,0.04285017589392899,0.029985705564539264
1746444925.827527,0.17334526231236014,-0.14903656362680318,-9.580745118333805,0.00747260613314496,0.0602260625360309,0.026352621843172174
1746444925.847866,-0.07056151408002138,0.02286121496784542,-9.849257898849688,0.010828119296195312,0.06402270133158691,0.0227294497934364
1746444925.8676617,0.22054861708710544,-0.27319631299056824,-9.47830440226185,-0.008352911448440739,0.04816807037965087,0.02353354542824433
1746444925.887527,0.028754708528429127,0.0007566536798206402,-9.761786030695031,0.003266359940282102,0.057340599969938996,0.020824054258828734
1746444925.907782,-0.06343121729868978,0.0423337279147675,-10.000635256494071,0.004031338437359798,0.052215122273433626,0.022517157877562376
1746444925.9275131,0.10356497983581892,-0.1084165708746776,-9.77321004121157,-0.001482207695582504,0.052950101058013795,0.02080690757090309
1746444925.9473732,-0.03871729645287298,0.07297171376265571,-9.988226588250537,-0.006955941612258844,0.053908639507696386,0.023844250724537903
1746444925.9679885,0.00600009576754244,-0.035191400650544664,-9.915349527946631,0.0026451687396310394,0.055751204063861796,0.022744750846241515
1746444925.9875767,-0.13082133353419187,0.14104800912859095,-10.216013269768917,0.0012638430608678238,0.05126185433030105,0.020154142353353586
1746444926.0077164,-0.1827930883801479,0.25932115207759954,-10.180355040485631,-0.0035887765678212875,0.04815840274184392,0.020599521994996123
1746444926.0276499,0.06855294496627905,-0.07806382039831891,-9.930540226778957,-0.007047797724031857,0.04458430025288837,0.02036678226079652
1746444926.0476396,-0.09804377160050763,0.11722069308277408,-10.127941241032476,-0.0006825257470309148,0.050507457602029335,0.022980901880330376
1746444926.0678923,0.30398774385708976,-0.23036864913687644,-9.573790985882429,0.01897913400647195,0.0635203387405674,0.014167619341474508
1746444926.0876684,0.26337914523051276,-0.10104773075752317,-9.656460572761889,-0.004674050798350168,0.040545338369079094,0.0185100735141143
1746444926.107602,0.14343583164087162,-0.014036130117209267,-9.853997043053143,-0.013874079496183935,0.03610297463836344,0.020965188457889628
1746444926.1275978,0.228486921620024,-0.14572537656422618,-9.686765798952575,0.0005664235974689987,0.04808937162976093,0.017215765990577832
1746444926.1476126,0.2680693341568019,-0.18397075511648237,-9.686583561769659,0.0013214545329247856,0.04835641264720899,0.01701690130965255
1746444926.1677845,0.16645090960669567,-0.04534948954867456,-9.856627015860791,0.002811244075693333,0.04760113556154799,0.016724610726238733
1746444926.1876485,0.11606183882512866,0.059317179091825434,-9.859266774400979,-0.006400883756253657,0.03343627088235283,0.017093037247939903
1746444926.207613,0.1588177518488894,0.06758823168299509,-9.795468528038533,0.006864091655878454,0.047423829319795434,0.013166491158198873
1746444926.2275872,0.04505411189041825,0.09851597082957783,-10.004830339511559,-0.0027337767538284687,0.03660914267113526,0.01734425929496919
1746444926.2476084,0.05988261946591587,0.08141550161310529,-9.918786003602548,0.005408422512986775,0.04008438027682939,0.012410053815291651
1746444926.2677038,0.29220230743335396,-0.14457783931176957,-9.622444547136258,0.0037039129709225595,0.0404820149908032,0.012212975092897222
1746444926.2873816,0.14415340827329953,0.07237153078250477,-9.86714273036992,-0.008011804440353118,0.02106334331194243,0.013117309984984254
1746444926.3076,0.20695973572730575,0.004995793790871429,-9.799756746870935,-0.0035069955486816944,0.029632529224262287,0.014017038600299942
1746444926.3276134,0.2811022927970632,-0.09028943566205544,-9.699134861247778,-0.0008093708282261298,0.032014812806519806,0.011569240363261943
1746444926.34754,0.11702835020299533,9.933398103627485e-05,-10.026709669563349,-0.0037706215085499435,0.028248853352665755,0.012368553785744755
1746444926.3676443,0.18844705618724722,-0.03404665603830151,-9.877444378724935,-0.016326217412675884,0.01831023799565792,0.014398935517567282
1746444926.387285,0.5629730290592413,-0.2934041099908481,-9.37655257254072,-0.0047874181478102336,0.01911438403876143,0.0115423534016618
1746444926.4075165,0.26897500986011286,-0.017263875987917655,-9.679388472905805,-0.020049854478880583,0.005187846944882267,0.013823712661969065
1746444926.4274352,0.2468567365706553,-0.03915380428149977,-9.795751199582975,0.0006085136126567589,0.021855754217227255,0.011273677405107329
1746444926.4475703,0.44872349646829046,-0.3050578228384371,-9.676451408415913,-0.001399225509326081,0.021792615642337913,0.012051316573425857
1746444926.4674437,0.14724893636103048,0.07117094246998817,-9.92037291713075,-0.011799218952286878,0.011612720104943214,0.013946869563594623
1746444926.4872975,0.20485700158927084,0.0025073789043620273,-9.91597479976225,-0.003929781225585816,0.006825436583972238,0.007575986134295005
1746444926.5074952,0.18874406505250096,-0.014324043752049905,-9.908189554849741,0.006021666629292225,0.015338384879113117,0.007522178001128203
1746444926.5274851,0.268228250799786,-0.002151727779354084,-9.730988857571965,0.01311586113586359,0.021095121825362363,0.0029680473139969523
1746444926.5474591,0.2781582255205768,-0.012805149314418071,-9.711413092356345,-0.018005593597458684,-0.006005973634140273,0.011089611557373601
1746444926.5677164,0.42845991961595875,-0.15169865341879324,-9.566896487568242,-0.00256963765488162,0.008528392614543814,0.007996918192759666
1746444926.587317,0.48083931074316466,-0.2215823667234314,-9.463673192156328,0.0075272400248433124,0.004880260096073767,0.005173265006758574
1746444926.6075616,0.17153470061046627,0.036508647505147755,-9.901728681862858,-0.005647251081402183,-0.0035403383752452516,0.005775791313945744
1746444926.627565,0.5091413540399999,-0.28785951787007874,-9.446289500329133,0.0015130719871843073,0.000859992471931572,0.0037424625949044623
1746444926.6475666,0.23789999882261081,-0.0253735804022374,-9.84521369431328,-0.006087365110429194,-0.004466239744962588,0.00924699856510552
1746444926.6676836,0.24188473247637926,-0.0016569907047972697,-9.792489044156277,-0.0011773128804604717,0.0009300095387111561,0.004742777329510388
1746444926.687585,0.18120076871156915,0.029134446329152942,-9.932176223551238,0.009027853490572588,-0.0025398214929686844,-0.0001998410113927462
1746444926.7075915,0.09617063538946177,0.09961566484158815,-10.025658083823805,-0.010481337290876922,-0.016185620395244196,0.008858905864936187
1746444926.7276247,0.13213864588069757,0.13434351041486026,-9.85648587393596,0.006500040988582019,-0.0031742702070045228,0.0029664115741084318
1746444926.7476606,0.5521809119198122,-0.32164105518819985,-9.494262697830969,0.0033601505585277892,-0.010010499107267154,0.0027487287806551913
1746444926.767807,0.1457739270736511,-0.012796226006156163,-9.929541106605065,-0.005034006028078004,-0.014244009065443182,0.006140446554662003
1746444926.787375,0.31421202545707777,-0.028975726533322272,-9.618470963227958,-0.0035154256458166683,-0.019803801855976737,0.0021320451542856636
1746444926.807766,0.2023664151477306,-0.03157527720306471,-9.971094125392025,8.76235477813525e-05,-0.019880134632701413,0.00031374966964169745
1746444926.827681,0.14753763679786353,-0.00924945763412079,-10.033297569810356,-4.484449284816044e-05,-0.02266210984843496,0.003877695154878339
1746444926.8476362,-0.003585933032179439,0.1723456097363708,-10.104082240701917,0.004779499279712169,-0.012921141687930873,0.0011725745832677718
1746444926.8677216,0.18951281873214443,0.1123418330968461,-9.816433140285824,-0.014544665952818754,-0.03565669811780031,0.006137937126199646
1746444926.8873212,0.23253983434952777,-0.036260409281179566,-9.74028347889073,-0.0029659301718949734,-0.032900200152210346,0.0014758835060656563
1746444926.9076195,0.04947751717930568,0.17396374952768742,-9.902658414765336,-0.0076483798194097955,-0.03537768817458482,0.005196647410429306
1746444926.9275188,0.15501019477383562,-0.013391148360824369,-9.875143508247774,0.006460062043948613,-0.02487595170593073,-0.0003241644702074791
1746444926.947534,0.4980361695191555,-0.2907944266695019,-9.433649417742084,-0.0002753429124336454,-0.02589412139147668,0.0007788391473654492
1746444926.9674766,0.3187132408233317,-0.10678193999197012,-9.563466532362995,-0.0067807903123608924,-0.03171431566149693,0.003865568753375454
1746444926.987474,0.28966443307898043,-0.16055312991032245,-9.637895470401853,0.0008761831640990523,-0.03537705634962327,-0.0017676436129005744
1746444927.0076401,0.5139476681046731,-0.38396450254539494,-9.388534657691528,0.008510957737769987,-0.029251288400624454,-0.002135729450077351
1746444927.0274076,0.03664650898665556,0.12571076248906432,-10.00646193854729,0.0018773560407078893,-0.03459223709664286,-0.0040304914899620525
1746444927.0474908,0.060469097396115015,0.0025399074274048694,-9.969106421976226,0.00044625358747465006,-0.03372189994713303,0.0023289913518124115
1746444927.067794,0.207733981231597,-0.08891449074785213,-9.792399628983732,-0.0037823774541375817,-0.035774768503702176,0.0033555414140055825
1746444927.0875,0.20331977531162315,-0.04903736461597341,-9.642253462050768,-0.006159005837261039,-0.04792908825292387,-0.0024642666678246217
1746444927.1074126,0.2200157794701431,-0.10352109625375927,-9.763329547727706,0.0015524355054172885,-0.036620330192225874,-0.0046211951442179326
1746444927.1274738,0.10298070170226156,0.05330075167150436,-9.756804062590218,-0.011426395643062212,-0.04973335842909672,0.0009053207422340679
1746444927.147452,0.24315717923694422,-0.15510829996562803,-9.75342810209061,0.011840504592752134,-0.03437604811981553,-0.005134799033952167
1746444927.1676023,-0.05321532561556605,0.2147287735753625,-9.951176682966112,-0.000783186980521848,-0.03983091850155754,-0.00021347395929753078
1746444927.1874535,0.12102735263449803,-0.03531902644215831,-9.751270123160323,0.00642224407054794,-0.037544596228422066,-0.003608481260520682
1746444927.2075548,0.013447038577773268,0.034144325243531226,-9.818312753514704,0.0006646302069993012,-0.04072255520902746,-0.005285743785499152
1746444927.227514,0.1281396653012586,-0.11504966186194748,-9.80503118380739,-0.005352231191224447,-0.05078122529020199,-0.006069240121930291
1746444927.2474852,0.01332841848769109,0.03791868778533152,-9.89861115223929,-0.002564289806606597,-0.04818792141952939,-0.005798420767640514
1746444927.2676103,0.18861912364937247,-0.16175125531534584,-9.751954335571005,0.0024991861033493105,-0.04104131975691784,-0.0016535060351577906
1746444927.2873397,-0.22286377609762328,0.23848887340556507,-10.12054830233788,-0.006013331688003598,-0.05065138279328548,-0.0011398271437838654
1746444927.3075633,-0.11972771670955112,0.05396001921936264,-10.11589216857288,0.001131577793488949,-0.04994518428779224,-0.0065247667928868425
1746444927.3275092,0.21334327090433122,-0.18791962935300968,-9.541579223455651,-0.016831496178379958,-0.05845731572037744,-0.0017026880501799773
1746444927.3475397,0.19627628820580786,-0.23546493652700468,-9.61427902885821,0.003254365509535545,-0.04447003676388566,-0.006958055762583622
1746444927.3676698,-0.02440419174903223,0.017698548618550136,-9.83347038228194,-0.012504523496257032,-0.05794218273622516,-0.000831584669223063
1746444927.3872893,-0.0884841957810714,0.04156296203055808,-9.867996835945391,0.004205399292670468,-0.04673426431382659,-0.011901377120112341
1746444927.4075112,0.07501948086398029,-0.14532337101609577,-9.683597664617896,-0.0022147313687361494,-0.04766553896923491,-0.006960389512287009
1746444927.4276183,-0.018903331875992052,-0.053616505557366356,-9.873483734246854,-0.005974751447922381,-0.04985004479078127,-0.007022285066805649
1746444927.4476404,-0.08128153941291269,0.045821685483843334,-9.868278482268105,-0.007909246906363,-0.05415870617046423,-0.00875903556256782
1746444927.46768,0.08488153720187319,-0.12636456554030095,-9.727240946068038,-0.003407736374150109,-0.05147771318869141,-0.007346782390546831
1746444927.487558,-0.03800237694378555,0.01568546510595731,-9.723919610168938,-0.0018343333101200445,-0.04513244224284077,-0.006868305575222988
1746444927.5074677,-0.08127587161324362,-0.004370609178988408,-9.751602908374661,0.0011138577218826034,-0.04860815640138581,-0.007727520390318112
1746444927.5274658,0.029588305798651543,-0.13393212170996838,-9.700081182432388,-0.01433412109241729,-0.05508092000298558,-0.007016102279685993
1746444927.547567,-0.1342215524724626,0.10735844678537929,-9.762647210207032,-0.0034334774123696223,-0.04752857923652355,-0.008142711256124568
1746444927.5677166,-0.2298491042919798,0.10751966469460228,-10.10764619959657,-0.008182245423439004,-0.052665311853330975,-0.004305915274519021
1746444927.5875723,-0.22965742181378884,0.07397274228921166,-9.956285074026347,-0.0007535587805443088,-0.042622486391789116,-0.011909322023943448
1746444927.607523,0.009285042592420412,-0.10694366489316556,-9.559878973825636,-0.008289155108146866,-0.05139053430803482,-0.00782361277368038
1746444927.6275003,-0.1951843915331152,0.061525214458868716,-9.868408750104958,-0.001807511607273443,-0.04212964174979579,-0.007699906938743138
1746444927.6475346,-0.13845501838961627,-0.015062494915880579,-9.90997318901629,-0.008915698885029993,-0.0476819484918016,-0.009205755472582941
1746444927.667809,-0.2809874195414721,0.1490262960869448,-9.986738735379742,0.0031493519512449195,-0.04408244453325391,-0.013176756877962508
1746444927.6877964,-0.05418413034088665,-0.08566123557908947,-9.61911795469673,0.0038500031736662292,-0.03242882182943923,-0.01527927697659928
1746444927.7075112,-0.09884284145419359,-0.09795872504829267,-9.708107780690538,0.007763349377853933,-0.02887605730628255,-0.013657372257149407
1746444927.7274435,-0.24918090265255696,0.0813639659094195,-9.976443233532496,-0.0019297626362357683,-0.036597516297643407,-0.006979021304640658
1746444927.747376,-0.25818215354085383,0.11006887388287226,-9.917961578623727,0.003768796087718816,-0.029901885090456895,-0.014382929037071442
1746444927.7676752,0.04186995410959379,-0.2694634205158971,-9.683917216776065,0.0023591504905619053,-0.034107566392719925,-0.010274807510425537
1746444927.7874565,-0.38960827143397525,0.20372990172279454,-10.015073201559662,0.0068133584965931505,-0.02274329987417306,-0.015094032315686567
1746444927.807483,-0.13927385389204378,0.018404273783306547,-9.621235910199422,-0.004135628824528994,-0.03234273956745151,-0.011323509882602072
1746444927.8274915,-0.31074656024802394,0.05226798449738315,-10.04405464497711,-0.01138965820939598,-0.03927302350177954,-0.006221157070712406
1746444927.8474045,-0.022111829779256353,-0.18108062841693356,-9.59000850374954,0.0021533401177883655,-0.030313614755959783,-0.010506378036521161
1746444927.8673894,-0.3442303114645787,0.14926140478603273,-9.986351050989681,0.0007968231804253758,-0.029553225627114585,-0.009254750020620092
1746444927.8871913,-0.3992284748017346,0.10403878826857038,-10.0521076874921,0.003017504457109994,-0.018586864406261953,-0.013006717413568826
1746444927.9074287,0.046155253662193196,-0.3059786225826764,-9.526264641578678,-0.008870318712322219,-0.026668701672824077,-0.009564330313262093
1746444927.9274838,-0.0020900012081281616,-0.2133110492490341,-9.549118868404136,0.0009556661872132911,-0.020088303931442345,-0.013755452113380725
1746444927.9481914,-0.28284035643500594,0.06167521062194391,-9.891548654045431,-0.0004494625294064311,-0.021113377272245125,-0.01009713700434228
1746444927.9678397,0.08270010887591261,-0.2682484632183015,-9.366761589530874,0.00935013481138551,-0.014480338774196492,-0.01580827066306707
1746444927.9872932,-0.09201659669759454,-0.20887112597070767,-9.683646401090312,0.009799932680747855,-0.008866815536330327,-0.014637397578306476
1746444928.0078087,-0.39405717331519446,0.158376369935809,-9.958221623021645,0.003280590308364313,-0.011156726648558811,-0.01234638007164732
1746444928.0276382,-0.3116208221601406,0.024689916887159977,-9.933613232020875,0.010720757828307616,-0.0028784012620265004,-0.016785788544601176
1746444928.04756,-0.2825880972643916,0.07230979986291744,-9.792765091881122,0.016309146917751934,0.0009063724632614335,-0.01620660998704566
1746444928.0674381,-0.23013718033398653,0.01450220135286591,-9.811378479149974,0.002077115815812291,-0.012288470159357455,-0.014466228633665716
1746444928.0876687,-0.2003758127478712,-0.04888517186846434,-9.795608446155768,-0.009325158958338853,-0.008359328984542749,-0.015527465905775696
1746444928.1074677,-0.12494630224323894,-0.11205188709706193,-9.633830722449623,-0.005977132583587567,-0.012380045051532607,-0.01187275623875434
1746444928.1273868,-0.5260192162269628,0.2808298556851249,-10.178456531826427,0.007651613078233379,0.0011574129216539927,-0.01723250052806419
1746444928.14747,-0.21772165629450496,-0.02218967833087039,-9.802532906113834,-0.0024881850052894954,-0.003070293054234496,-0.01513396217812988
1746444928.167434,-0.53731525010647,0.3472629315376676,-10.05204980564278,0.01773764131386167,0.010279034400336652,-0.017776775897471977
1746444928.1871593,-0.3183026852275391,0.15937420156822013,-9.744190940881834,-9.787035151158905e-05,0.0057537391503375435,-0.015890738395913154
1746444928.2073834,-0.14404649880441217,-0.08003544581722108,-9.709962612435238,0.001959198738907451,0.00336507351291415,-0.01462372359514587
1746444928.2274048,-0.20337463480072038,-0.0031900582036398367,-9.74570049840066,0.005757807204848139,0.009290584087389748,-0.017401908857039187
1746444928.247396,-0.20793704117346723,-0.03096586895899652,-9.743120991524313,-0.011146122718535333,-0.0029779217993690394,-0.013792656651587057
1746444928.2673728,-0.21893804730363214,-0.04539957588572714,-9.777397119579888,-0.00048338314365071707,0.00589410212098254,-0.01700657040311287
1746444928.2872424,-0.15661739345377929,-0.02538453034045621,-9.672560763727715,0.0042067884713821654,0.01815460061081007,-0.018121202554227184
1746444928.3073635,-0.18102630472976786,-0.08603762460547898,-9.790303783920434,-0.005191997305242632,0.008522038947741051,-0.01459976219763082
1746444928.327308,-0.15072677369232687,-0.09230151490149774,-9.733691694702587,-0.010873419192710643,0.007736052860624843,-0.013802202870188188
1746444928.347429,-0.11483540162510467,-0.1340027503579997,-9.680375472192136,0.001062106397967124,0.015711690044298482,-0.01891258498630364
1746444928.3672419,-0.20180152210748672,-0.047036289060679914,-9.760026292373581,-0.003962620624155295,0.012321115219275553,-0.0163120272908281
1746444928.3871493,-0.17208145225263138,-0.06005545887309102,-9.80467463538494,-0.00596783219810307,0.021773454653063087,-0.015094473512757481
1746444928.4073646,-0.22023359087472066,-0.0009187156083548809,-9.859377558770197,0.013010997723756142,0.03244990549444951,-0.017876697277849938
1746444928.427313,0.052255040200759884,-0.20189717636518073,-9.351762210353394,-0.010205816632429,0.012451521873822292,-0.013737243625411063
1746444928.4474154,-0.18661447210486512,-0.015744800970818415,-9.760248499464634,0.01104121725356201,0.0305058199812705,-0.01870765777101852
1746444928.4673584,-0.1692404750654518,-0.058996099401213364,-9.793159980200892,0.00378020769979244,0.024280490682645955,-0.01845165937836788
1746444928.4871566,-0.2056677404195897,0.021077297276803374,-9.805706035926534,-0.011223693885801973,0.01790465433290017,-0.014076091085399237
1746444928.5073378,-0.2362562568807477,0.06838263443146392,-9.832357542595568,0.004999970333519439,0.03351714020197852,-0.020072555562389426
1746444928.527418,-0.045708695432993385,-0.17629795122855432,-9.752884152971413,-0.01128964969103394,0.01867508114715833,-0.013424397703356693
1746444928.5473344,-0.14124835909315553,-0.055741064107782345,-9.795838535055076,-0.009297353627772474,0.020676978196789507,-0.014966539801297965
1746444928.5673027,-0.1822664284473388,0.006235259626636472,-9.80387731080529,-0.012269704853212115,0.022973911525863477,-0.016098732445631817
1746444928.5870938,-0.3169397414352775,0.17869364350133674,-10.075939519490007,-0.010831052615532166,0.02603304900320181,-0.018868358643216458
1746444928.6073372,-0.16649751834473764,0.009164414191282336,-9.818243554390001,0.007642530484229037,0.04245094128608087,-0.020194630608691044
1746444928.6273582,0.04352972749363487,-0.2420697731079628,-9.730505612578604,0.007620601335572906,0.03890170841892084,-0.02040304750805418
1746444928.6473343,-0.3162716696028456,0.1654747405373046,-10.019977214338779,-0.00987438402679625,0.02884794545248868,-0.01617027381057759
1746444928.6674733,0.02874361520300342,-0.2044289947638594,-9.692894760516722,0.005174854777992278,0.041465093498784945,-0.019277151185146682
1746444928.6871312,0.08220075407973339,-0.23664195293361484,-9.595141604999347,-0.0026490651844309323,0.03771711714096415,-0.019736412348400536
1746444928.7073774,-0.11013239875802466,0.005174535040799552,-9.875258500826138,-0.00878618097168091,0.0318798839599293,-0.017181428739299086
1746444928.7273085,-0.008538236775972582,-0.14140849907130643,-9.812348080898794,0.0016712055980274251,0.04079364498588035,-0.02114004961427644
1746444928.7474084,0.2876147290039148,-0.4222031912202488,-9.36299541495054,-0.010187841940841696,0.0274041429600138,-0.014160402822700306
1746444928.7673867,-0.20247908734757428,0.060581424275176834,-9.881235995025053,0.003956664219931159,0.044382382165101174,-0.021905991758094795
1746444928.7872362,0.01616765247243443,-0.05937624144063851,-9.641353009750526,5.2913477233732485e-05,0.04315385372695374,-0.02172168183048357
1746444928.8073428,0.10584000959842166,-0.18045711295818131,-9.629541056701425,0.004057475904196264,0.042166500968367916,-0.020499013905701906
1746444928.827211,-0.14832757398796004,0.08332405767172883,-9.940922867201195,-0.0012787348790372563,0.04082235702524178,-0.022094757482694995
1746444928.8473911,0.02410706691220195,-0.16068685254035828,-9.757331435759385,0.0015980531045630135,0.04355416420107122,-0.021660010109510727
1746444928.8673184,-0.2273718841892836,0.0210431584335462,-10.185528528256558,0.007674245521784261,0.050535226576083385,-0.021472680989706457
1746444928.887447,-0.005502496482771358,0.022864745582563007,-9.797798011158543,0.0051243198605136365,0.043554815362396034,-0.019383032349848603
1746444928.9074612,-0.0671546591911843,0.06802904350281133,-9.820361615587235,0.004885616332227923,0.04632115679824162,-0.023356091043111715
1746444928.9274857,-0.044598397039873346,0.01529498282232759,-9.835581672160943,0.00877531490431562,0.048491544521965184,-0.019774647625687564
1746444928.9474182,-0.019854162989500504,-0.11540107192773126,-9.910820139654964,-0.011164397994981546,0.03312797874029122,-0.018135043927566513
1746444928.9673433,0.03507664391343244,-0.07610509340922211,-9.810492830108615,0.0010242442884197183,0.04351483431999986,-0.01853240474966494
1746444928.987175,-0.044588339748695666,0.09059583155141998,-9.861315274145394,-0.0036270099320794284,0.04032875708436116,-0.019583388774665856
1746444929.0074327,-0.08804060613436972,0.11023243255914222,-9.971221599821336,-0.0011374794633685547,0.04117046701740462,-0.018889190449325
1746444929.0277328,0.22673438576766775,-0.24428799464207904,-9.604139342506471,0.0031272349738552772,0.04381416219658957,-0.02135133086771542
1746444929.0478728,0.09781354649525528,-0.12094115157054647,-9.739338780437938,0.0006476828092723924,0.04448749348718291,-0.021255767926489314
1746444929.0674806,0.1142383236923668,-0.06321515402605085,-9.745624893588028,-0.0019293126547161106,0.0398925304017983,-0.019082544813751136
1746444929.0872264,-0.06126406417871569,0.10585882679183783,-9.989747046205427,-0.004980635096851159,0.039434845254420446,-0.022108001132855513
1746444929.1074479,0.07852980218819225,0.03291083575320862,-9.75376501812052,-0.011062681303955229,0.03345798199659804,-0.014740325341295086
1746444929.1273398,-0.14446474141955212,0.23460998000772187,-9.95101494581459,0.009454483817025185,0.04744481905716952,-0.02116380257141248
1746444929.1473327,0.3337849966869108,-0.26985726736141996,-9.50036265340133,-0.013007231299622635,0.031247764296865387,-0.01949374762247849
1746444929.167394,-0.13696492861294093,0.1065106902362391,-10.093205672737565,-0.007304644578752452,0.03525687419694332,-0.018701820902353984
1746444929.1871812,0.060447923491358205,0.07521225883383158,-9.961063371868462,-0.007220190110279818,0.028437320972168577,-0.01947286091685515
1746444929.2074888,0.12926707416285005,-0.0058631927740633825,-9.747515951982606,-0.01186422562008715,0.028334732776279164,-0.018792769198134905
1746444929.2278748,0.18016485903607654,-0.08817084756094792,-9.709888247028612,-0.010366979692134166,0.02612235410538343,-0.017031063113055613
1746444929.2475832,0.2737572816145505,-0.17874680816598487,-9.600456907756117,0.0030170703494676837,0.04087988010451157,-0.020250233381517522
1746444929.2674446,0.17580509065222322,-0.14544204121334878,-9.823607726935723,-0.007108609883963114,0.028131664695302053,-0.02112199564908117
1746444929.2872808,0.11172284541657915,-0.023702104828904585,-9.82729331070037,-0.0028380302785689917,0.02581694212795276,-0.020294715950725906
1746444929.3073888,0.46880486554352946,-0.33554025652973185,-9.44188981690302,4.6256579868252155e-05,0.02914035427389228,-0.021988600838557915
1746444929.3274305,0.15449821186172194,-0.05288966023102443,-9.84528412773824,-0.00011958314190791428,0.03291323830777828,-0.019649553361214114
1746444929.347335,0.15223914847481212,-0.045453418534662955,-9.899294804686457,0.0020830356809145014,0.033281352070654774,-0.022370589434325953
1746444929.367293,0.23876975166129527,-0.0896173426950862,-9.593364328223913,0.012545541688117931,0.03926799099875926,-0.024236012798126982
1746444929.3871448,0.20812498619818978,-0.02749164232810493,-9.800093664062262,0.007825870757206503,0.028138329028694793,-0.02262829264207361
1746444929.4074829,0.40708874055020255,-0.25767309270635624,-9.596992845693773,1.2761398198935653e-05,0.023387885296672267,-0.019833429983136273
1746444929.4272406,0.38090019126427854,-0.21873075721293658,-9.515091754824905,0.010277968800243077,0.031336731848131384,-0.023312646747052863
1746444929.4472942,0.2574593813063744,-0.08284688666513151,-9.670751317857347,0.0024418953828809894,0.025122440378113037,-0.021013161205925262
1746444929.467411,0.043848287390265306,0.18696444425856834,-9.911132641258389,-0.0016388457855472886,0.02419882169023814,-0.019896937900832443
1746444929.4871542,0.1878609932392827,-0.03266867459887158,-9.921805983567152,-0.0028449017215080794,0.013267956095948288,-0.021258764305064536
1746444929.507332,0.03834271499705477,0.1534076013046401,-10.058160374075564,-0.0053961492424470505,0.01622545125722863,-0.021360015846455957
1746444929.5274198,0.2791010953547204,-0.0731729441268372,-9.726849914242875,-0.003229394224747431,0.015751828209661565,-0.019766625592066652
1746444929.5474317,0.26126507360267387,-0.024316323818135456,-9.638537848134323,0.01239629417317821,0.02421446166181558,-0.025489016324895662
1746444929.5676517,0.20993262875945287,-0.07089057987001113,-9.814152307277778,0.003057604486867423,0.018503408845032696,-0.022817006345346953
1746444929.587661,-0.10554533340871824,0.3093692646564521,-10.206463292519087,-0.006200336065402769,0.008545355700515987,-0.020778007527751084
1746444929.6079037,0.32868416960558755,-0.14173904149935992,-9.67774111917396,0.0029610260605572483,0.01123956078769997,-0.022240595044499125
1746444929.627505,0.30543721119005,-0.1312321280802401,-9.753462902190769,-0.004908927422221326,0.0057618600713186755,-0.019467778282995285
1746444929.647301,0.3640941080442426,-0.22042456607332236,-9.708339098131102,0.0055752804794973925,0.01768188533709808,-0.024074428465125097
1746444929.6674514,0.2427671924157169,-0.0339493812814249,-9.785097882178757,0.013165093126416892,0.018543040889033732,-0.02240371136422921
1746444929.6871502,0.10389988422200322,0.15577572541476084,-9.88584380291525,-0.006401954640696706,-0.0032086496508493666,-0.020423748774844465
1746444929.707331,0.3493600476043144,-0.12592908104438988,-9.606124561531956,-0.00539414418976929,-0.006507818610448489,-0.01820447618160007
1746444929.7272425,0.10953614566807401,0.10405413580321302,-9.898029511344506,-0.009606384642111658,-0.010222082352259054,-0.02014525531306953
1746444929.7472875,0.2599083948585806,-0.0733434258452751,-9.795869579502979,0.007977783408619961,0.0024714362765747757,-0.025913715072983453
1746444929.7673726,0.24889914708942645,-0.04093886775361392,-9.766652460070999,0.0038148290457464813,-0.00013882548993816493,-0.02315254966107025
1746444929.7872374,0.5552161139506298,-0.40257061244629405,-9.389996908604934,-0.023456464142249087,-0.02657494081958329,-0.015207346244858255
1746444929.8073854,0.2839567403250269,-0.08018746501130151,-9.666352823021592,0.011778379656675594,0.0024887195964948088,-0.01922738042164798
1746444929.82732,0.23227648223044153,-0.06846512913268307,-9.782273675145293,-0.014185511792678913,-0.022564606538255094,-0.02062513563632307
1746444929.8476892,0.185356531512126,0.04467285599751521,-9.772971279543581,0.002343651496151073,-0.006950467213934061,-0.020614253657179622
1746444929.8676288,0.15797637119899435,0.06744240498097033,-9.83709227495501,-0.010039275173534508,-0.015902734261265462,-0.01788302442475563
1746444929.8872168,0.0676480932189416,0.07416354444183257,-9.996564232103045,-0.011357801773459858,-0.02800145881742716,-0.021012705809909233
1746444929.90728,0.18246052179058583,-0.026930150756092872,-9.866761601170563,-0.0027718902294854883,-0.018500321744355223,-0.020012897477356274
1746444929.9273138,0.2945126809427381,-0.17470243746830663,-9.712554230599736,-0.006205579398553484,-0.01953151633601588,-0.01912427926387381
1746444929.9473362,0.2894557440104334,-0.09528431964524663,-9.633622335545533,0.0030126214398012888,-0.014078355632663068,-0.022759633123940432
1746444929.9672627,0.35545853551813156,-0.16642721097990062,-9.551299790569367,-0.016330239273923863,-0.031011304509198343,-0.01749590184924862
1746444929.9871624,0.10812016593819251,0.06460167077797851,-9.883739577882704,0.022214945935443764,-0.00909513235217659,-0.027396633430664275
1746444930.007367,0.4075901585559185,-0.24949270585836378,-9.533678345782915,-0.003156776152439073,-0.02520271147130069,-0.020868453517438885
1746444930.0274384,0.20895568501913275,-0.042550772159996156,-9.680912697529255,0.003159754038034732,-0.022157762770634786,-0.020062308769742635
1746444930.047606,0.08992221520326088,0.09677568828072705,-9.87578851502114,0.010738066357545968,-0.015883203665977258,-0.02516629387243664
1746444930.0676646,0.5747347448622758,-0.36733325208814455,-9.243979877894706,0.00035402333015918745,-0.02293051526607079,-0.020371419436289458
1746444930.0874045,0.147145864352033,-0.019589427155884447,-9.792910720847008,-0.006561417897249957,-0.03213223662820709,-0.022197053539881453
1746444930.107482,0.11572477613681831,-0.07660218443403727,-9.83530001256436,-0.0005989610683416877,-0.028258553398951888,-0.020105758938634193
1746444930.127682,0.18823733061888775,-0.031698069469001264,-9.689542704309254,0.006029204142102569,-0.024921360615880468,-0.021892329348434204
1746444930.1474235,0.2656080208567744,-0.13565094584981752,-9.665037897259964,0.012026155596773181,-0.020272584073218896,-0.026802855030329566
1746444930.1673872,0.31108435114753974,-0.2973477693481602,-9.763700680888888,0.008572370692457296,-0.02480556766150068,-0.023394042465221997
1746444930.1871932,0.11885782260160146,0.015343883121738197,-9.74183527379874,0.01112263000795422,-0.02537545756241289,-0.023338340381261757
1746444930.2074327,0.05906428206381207,0.10144973323770545,-9.772478313926273,0.008164641089179614,-0.028456374479589475,-0.021038189250002594
1746444930.2274206,0.1061112025512044,-0.041523727877331454,-9.81805732309019,-0.0038770582904532613,-0.03544980769083981,-0.021809080647574638
1746444930.2474172,0.19251668306277364,-0.12877036127243516,-9.690735804962513,-0.002074038940234719,-0.03640563741367208,-0.01939435463963308
1746444930.2674453,0.18289501817917037,-0.13126384507187103,-9.751755513272284,-0.000805066183968779,-0.03306658998864629,-0.020051048381574618
1746444930.28714,0.20331718528210363,-0.22394810427092204,-9.724149216392627,0.006085821359002938,-0.029971187673797462,-0.023656319802104663
1746444930.3073764,-0.007044019175048266,0.0742577221491838,-9.845962895161502,0.00262552064959389,-0.03317348953867086,-0.025986020849443424
1746444930.3274062,0.07316049718646969,-0.03690172265809203,-9.75533959270675,-0.006433936524010089,-0.04382250970956258,-0.021085873068563063
1746444930.3474028,0.16571511141108292,-0.09474473959949756,-9.691707071273706,-0.002948192867503866,-0.03809020739774431,-0.020349105582929315
1746444930.3671808,0.21778349319340895,-0.1668402894987646,-9.629368759204539,-0.0022701705210680283,-0.0393953460834157,-0.020395835481053722
1746444930.3872263,0.2936116076960133,-0.2337637249438015,-9.439155659923754,0.000372015683326709,-0.03724625176957958,-0.022092809943272423
1746444930.407339,0.05535337831920548,-0.022561931457766606,-9.772349903371524,-0.01216883387691445,-0.04738664072174937,-0.01858419674244359
1746444930.4273596,-0.016998717977758294,0.0714707546456743,-9.814107772197382,0.0019302223452383328,-0.03681955049818471,-0.021405656112462593
1746444930.4474328,-0.07621736438441981,0.07273176423166566,-9.948898926904938,-0.0015103892598227822,-0.039701034391774255,-0.019772263864252713
1746444930.4673855,-0.06986272726019754,0.17197908823927746,-9.864453539441673,0.01623272394928785,-0.025899086258607918,-0.024584573895998593
1746444930.4871495,0.04697876972441292,-0.10252901829551028,-9.749103860955504,-0.000841170858648278,-0.03681505526563001,-0.02276672843423463
1746444930.5073955,0.2370210712878277,-0.2637431500214732,-9.47299162861885,0.0018957565279491438,-0.03772813998759331,-0.023150767983940942
1746444930.5272732,-0.12946032153818335,0.04784284538546635,-10.040768702198607,-0.004793672929016104,-0.045935071852869463,-0.019189617208759634
1746444930.5474179,-0.04083903253943044,0.04970540457890468,-9.735661956443407,-0.007644705887786041,-0.04198990226161454,-0.019217061940110945
1746444930.5673516,-0.13540382905884193,0.16545139668208786,-9.900798342337948,0.0036601758780354663,-0.03661460721990466,-0.022867245015994
1746444930.5871706,0.39317946834141293,-0.4556933384369488,-9.323768101427817,0.00033177279769641915,-0.03435589422008317,-0.021934861408676384
1746444930.607963,0.02874441670716603,-0.15592592965069801,-9.686979646433848,-0.006017273499438472,-0.03945951302132954,-0.020989906627057332
1746444930.6277604,-0.07711381525592048,0.0043842399374413345,-9.892010486833028,-0.00368610450529732,-0.04010751901474126,-0.02107211476323819
1746444930.6474848,0.028947828342034465,-0.06421455374340529,-9.671848539207112,0.0029494215418363933,-0.03504769486290618,-0.01939965354380248
1746444930.6679215,-0.08137348304047354,-0.02048240998159219,-9.81256388541264,0.0007778364354229245,-0.034468836401033695,-0.022867383377345934
1746444930.6875534,0.08456005491890199,-0.1672988084012975,-9.572174357317646,-0.0073052312592846655,-0.04126598850669444,-0.01894472411968154
1746444930.707563,-0.10614791542465823,0.05806917697825665,-9.72369137257917,-0.00449623038083063,-0.039602713663826124,-0.02181738942521024
1746444930.7273164,-0.2460795433748784,0.1645383954749389,-9.992528313689139,-0.01037294849660394,-0.03627913942174954,-0.015362282262004614
1746444930.747412,0.12717536197755852,-0.2275217835141379,-9.468470595895662,-0.007669709858945885,-0.04109560205809859,-0.019696352360525107
1746444930.7671168,-0.4947851025479266,0.3901678211479411,-10.309044861760407,-0.005782679053735539,-0.0429435054150111,-0.019509425281088046
1746444930.7872038,0.12306246200728298,-0.24006257163036,-9.439292220462779,-0.000902896425264718,-0.030084217495683,-0.021653234312271348
1746444930.8074763,-0.14736786025166365,0.010894832928969405,-9.769838642985313,0.006208917641588446,-0.024768720635525997,-0.020902097445086566
1746444930.82757,-0.3207883419770292,0.17128000513034883,-10.156370510085765,0.0038073944578465267,-0.022930344364232212,-0.020130428243764636
1746444930.8475568,-0.13217836905000552,0.0030047470513427793,-9.799662427127624,0.005642083277790825,-0.02371136548592461,-0.023635796217381145
1746444930.8675075,-0.27084420833942646,0.16248947897752294,-9.894967185712172,-0.0013213361279265246,-0.02893693314609886,-0.021554727337826703
1746444930.8870723,-0.13635272034928303,-0.0808836224732461,-9.861084802388033,0.0016193802396525742,-0.01915312617243415,-0.018614964913844123
1746444930.907423,0.2528117042769175,-0.3828901418950108,-9.292212277145381,-0.006490536574679843,-0.026209754888238606,-0.021271263640835834
1746444930.9273741,-0.242787881524678,0.04272431966278556,-9.919985046144365,-0.0035340211886469896,-0.024709295113724116,-0.019200500530696506
1746444930.9472597,-0.11000114740023267,-0.11353538496031954,-9.820241263330937,0.006301431013976096,-0.023018521724690547,-0.023137684114354514
1746444930.9672654,0.12169224226198741,-0.30451568162763115,-9.543657124831663,0.007713945867837289,-0.01756942488440177,-0.021602279472829035
1746444930.9871583,-0.029284714041704768,-0.16988366008888137,-9.665306791644369,0.001121827818079471,-0.014503731355323853,-0.021758567321183066
1746444931.0071917,-0.0428368078513629,-0.17252080020035948,-9.578375852621187,-0.0033867216641664216,-0.01966818556801969,-0.016667689465480917
1746444931.0271966,-0.24792513358933638,0.014681313418413378,-9.936379865868334,-0.0011226613491901651,-0.017223059166590806,-0.02277057712804607
1746444931.047264,-0.11570050042538257,-0.0937633033325847,-9.781058436691799,0.003977116171356291,-0.013912838603277293,-0.01866482678678864
1746444931.0673237,0.06901640660554809,-0.24830023294534073,-9.522703115569403,0.0058033137972682445,-0.010506561612702404,-0.020007154837477607
1746444931.0871549,-0.4055739295445362,0.2376208966198479,-10.04731898982886,0.006430074336288187,-0.00610158862288387,-0.02328886529109462
1746444931.1076703,-0.16877184977606075,-0.02171028443947798,-9.732323085346453,0.004694680870441687,-0.010468383360821855,-0.021753070074482187
1746444931.1277342,-0.40434346879130245,0.20366677914642356,-10.049161696738082,-0.010117465508905483,-0.019625552824207644,-0.019273604164260362
1746444931.1476095,-0.1944515116384634,0.036176556032885304,-9.71960307012675,-0.0014303227431445706,-0.0076295416172491096,-0.017494064980423617
1746444931.1674962,-0.1451289348550407,-0.08807145214924271,-9.671623900598195,-0.0026389133370007625,-0.016071685281308944,-0.019329829583255544
1746444931.1871982,-0.16921554614917556,-0.06556747533562685,-9.829938137738683,0.003050385884858494,-0.0015899719635090496,-0.022393840287349163
1746444931.2073445,-0.19422785213985724,-0.022983297456675864,-9.85184295564669,0.004711812304345367,0.00018182913181324532,-0.022067972003051196
1746444931.2273266,-0.3288769968619951,0.20618243269733688,-9.854052460804366,-0.008114009034002553,-0.010326920911264421,-0.017879891490469643
1746444931.2472415,-0.22318246202877184,0.0027990239956273456,-9.865504375130381,-0.001176903466822567,-0.008329553884742397,-0.021167102199588374
1746444931.2672923,-0.2135743625779548,0.10130615814827214,-9.700513984875313,0.009153164002000842,0.00539668772319213,-0.023077027387078793
1746444931.287243,-0.45348659499839333,0.23670348123866447,-10.142705727335759,0.001989633532997937,0.0058128043274629365,-0.019431553225455936
1746444931.3074677,-0.14669358853330616,0.026386197882076412,-9.67127608034777,0.01706711949617821,0.016929476463567107,-0.02536892395411729
1746444931.3273156,-0.22066736934144582,0.03773383349148442,-9.810211319459963,0.0071033640315183895,0.009620023308939296,-0.019387897193549705
1746444931.3472974,-0.384375675134757,0.1660395260343298,-10.112737924897473,0.006493031979602021,0.010293929589301929,-0.01813611946632636
1746444931.367269,-0.3529482928830923,0.19672205361388606,-9.907728697579449,0.00018533292335212704,0.005820296145120718,-0.018284599757090656
1746444931.387178,-0.4294626261451191,0.1987136361537373,-10.19551727965339,0.007864157678435126,0.013359212259777173,-0.023158179454206573
1746444931.407331,-0.20553082251189717,0.02990916532274452,-9.86786643783178,-0.011843507576953719,0.0016090704442585108,-0.016272725378705877
1746444931.4274266,-0.08713479934399412,-0.12505935529389764,-9.66788207153622,-0.0005299018238423581,0.00823391843761565,-0.019085170930578772
1746444931.4472992,-0.030746845738331585,-0.20892413244724511,-9.611794383360587,-0.006470835005927331,0.006128565403930347,-0.017706665024866286
1746444931.4674037,-0.09979998713211706,-0.13096008150602306,-9.803804191000042,0.0010609848487338547,0.01284046742561785,-0.018971148084401143
1746444931.4871857,-0.3427504147558091,0.10809478631637437,-10.121337408904736,0.0004085323695699873,0.016959002065001644,-0.01998736508296264
1746444931.5072591,-0.1464976360970356,-0.06330217488786453,-9.848134978941216,-0.012029308718164702,0.007904936496003078,-0.014955762612505114
1746444931.527349,-0.33133322425996536,0.08292676778037776,-10.073678079053963,0.007732690866924564,0.02578701251334512,-0.02199316223666878
1746444931.5473392,-0.22362447578654807,0.0011528036292426068,-9.969473691121605,-0.006687938047931902,0.014396846731319078,-0.0169183803728839
1746444931.5674584,-0.16819841462134658,0.027183095798853557,-9.87154813808853,0.005972899645567442,0.022434399538434596,-0.02254624891015779
1746444931.5872426,-0.29794165150854934,0.10742321450724791,-10.069687525383191,-0.003426961864867153,0.01945854107357942,-0.0170047371044994
1746444931.6075466,-0.010653325478894055,-0.1753184589599046,-9.717097724409738,-0.00899715425365812,0.018459545027243597,-0.01720760556420144
1746444931.627414,-0.0900580205917765,-0.008641455396606428,-9.626730562120631,-0.014075039628252538,0.014282432891562164,-0.016261142282897954
1746444931.6475308,0.019648128101284246,-0.21770358623729574,-9.623388466662998,0.007643177438307356,0.02689853577959434,-0.020029636672945838
1746444931.6673517,-0.05588322359377594,-0.08801023662111847,-9.747319812349993,-0.0018869880133665544,0.023295237566443697,-0.018830158501478095
1746444931.6871572,-0.24650234260824588,0.12376288919451897,-9.893233026666469,-0.004752011249629767,0.02777447862051693,-0.014494344149580597
1746444931.7074099,-0.10956003200734547,-0.06187672894441837,-9.89001200045676,0.0001909174140275918,0.030588741309707873,-0.015642886738644834
1746444931.7276921,-0.023762598917548297,-0.08940143996168891,-9.722246831925187,-0.007451537523095842,0.020870813982968278,-0.018280920434503523
1746444931.7478049,0.07137997729966293,-0.15456504566594295,-9.525233685939778,-0.0097578899489032,0.020768552212516965,-0.015894737792349706
1746444931.7677746,-0.16010113856850133,0.06711045475080547,-9.872819607954053,0.004728605221471933,0.032465533234739344,-0.01829438040804238
1746444931.7876735,0.021304811861594317,-0.1523656380611545,-9.731529378143568,-0.0035221590061734727,0.029070472869850098,-0.018094520317865317
1746444931.8075852,0.020572770003299573,-0.08038096458755896,-9.68332714841292,-0.0033134866991635977,0.027425077954142854,-0.018524389026901785
1746444931.827377,-0.09826979681710798,-0.01640471767147348,-9.913345106869231,-0.006575071151632386,0.025835992722156274,-0.017656794174598596
1746444931.8473077,-0.08173909227701183,-0.006112861388358922,-9.817976655183289,0.0009857517344282816,0.03491672182375704,-0.01673119709151139
1746444931.8674977,-0.2705584539483208,0.22832912606318803,-9.984212813475999,-0.011769262219325569,0.023328834081719124,-0.015223088222823748
1746444931.8876715,-0.26076750454534453,0.216658567569953,-10.072749486634697,0.009362166479399844,0.04163833687996847,-0.020224665869349873
1746444931.9077723,0.04792000191866261,-0.12353313391201678,-9.753615278569086,0.003407751530764003,0.03976655736670117,-0.019224027800604945
1746444931.927507,0.04689319217938927,-0.1514718540035512,-9.73444093210586,0.0009627422093015935,0.037919980010719494,-0.017119444238459958
1746444931.947231,-0.10828632403740003,0.13885053196958347,-9.765537969953549,-0.007172341071077346,0.0331677949775649,-0.015192055133629112
1746444931.9672854,-0.05680812554266379,0.022361213198360368,-9.812020288593644,-0.002642395733854647,0.031864451629217985,-0.015949045010733638
1746444931.987078,0.017468489656367603,-0.06985423810590578,-9.827673929738774,0.004044198388892234,0.039379213869090234,-0.01865351223088788
1746444932.0072932,-0.021122787418444918,0.0779171936521685,-9.78973830279071,-0.005311220902605175,0.028509083991585443,-0.016367509362440955
1746444932.0272791,-0.2054946665418432,0.21820635086014095,-10.02731610275843,-0.006818489497893068,0.032844682380019134,-0.011711573858691409
1746444932.0477839,-0.05681054721655145,0.042232959275018855,-9.899885773282175,-0.005851022891486348,0.030017394192192712,-0.016164539579094864
1746444932.0674577,0.21797623093876495,-0.2508543400609217,-9.50453346325441,-0.010297886663406924,0.029485580630505777,-0.014962758907839602
1746444932.0871332,-0.0022688677942591592,0.058599154573813844,-9.857442929209716,-0.0015375708697255158,0.030755733111782285,-0.01423174658523307
1746444932.1077297,0.11792846535968213,-0.10539427258727416,-9.742384016126026,0.0013824682961086597,0.03844326882442402,-0.014106346945079746
1746444932.1274366,-0.016282676593274623,0.03297025750427932,-9.888667937295217,0.017990362344611682,0.052096065983459464,-0.019690388013108965
1746444932.1474464,0.1361119607609246,-0.20568105867842282,-9.819261726135384,0.0005927493549487412,0.03377957779994013,-0.01932139234173685
1746444932.1673396,0.17420099513983078,-0.20701583585690575,-9.744971602971136,-0.01136998020857081,0.026663148281042062,-0.016560098713408824
1746444932.1872663,-0.22230948798821581,0.3076179510935554,-10.117286380051146,-0.015042544200367604,0.01837910048180577,-0.010452638382856644
1746444932.2074523,-0.022675283795775894,0.06053136630608576,-9.903031312347313,0.0034722098956519176,0.033956059785854566,-0.01727045854541032
1746444932.2273557,0.16807526749552998,-0.0857498440468912,-9.6351060315035,0.0019019717204895711,0.035357629238094074,-0.016110230158021002
1746444932.2474341,-0.0821648480439009,0.10320083782999974,-10.043698066071462,-0.002703412739714134,0.02994678661320321,-0.013953388282120716
1746444932.2671926,0.1413678503502559,-0.0885456447261459,-9.735718075739685,-0.008153328568565226,0.025969877955045375,-0.014285195468426893
1746444932.2873902,0.33298736711438953,-0.2113336261927213,-9.50197162465577,-0.001519458734232554,0.02902243508896195,-0.016466560238990374
1746444932.3074183,-0.09115707580825341,0.14644242422688056,-10.144866576857016,-0.002328465617777283,0.027178828155415127,-0.01634901390835822
1746444932.3272386,0.17304917598748298,-0.09883987048560722,-9.704940318230477,-0.006714308943818885,0.022400537318630582,-0.014208804362867805
1746444932.3474612,-0.047506961712142415,0.13848916790262014,-9.969860711950883,-0.011677336647881642,0.01862994826105878,-0.010752360300170315
1746444932.3673985,-0.055359640921996287,0.10958270969092412,-10.064215010365656,-0.005098310269991916,0.026721269456997952,-0.015502355556617893
1746444932.387789,0.24772258671729108,-0.10500683397338861,-9.664981743729333,0.004063179486871907,0.027719398179408036,-0.015812611548729903
1746444932.4076126,0.30277303206933304,-0.20239702850398975,-9.614698845240792,-0.005621795812026493,0.023879818469562112,-0.01319332407887474
1746444932.4275823,0.13165226265472507,0.0156285719937998,-9.745645489805183,0.006052310440996654,0.028981673521460048,-0.017132558754345353
1746444932.4475121,0.21924190349662648,-0.15379856846530143,-9.771262808130007,0.007083123758505499,0.028706248057340938,-0.0179199294763001
1746444932.467473,-0.1689540969228847,0.2914396937997826,-10.09891106788084,-0.0031658349136111396,0.02381564742214314,-0.014371705694612193
1746444932.4871573,0.03237666195833826,0.11767035219205996,-9.920638494015119,-0.009195595085390314,0.011565081094697335,-0.016137597055015253
1746444932.507285,0.031833871808537986,0.10567043879909391,-9.990959645032918,-0.016199557107974064,0.005974193331811432,-0.010107710463091071
1746444932.5277069,0.2480566457291537,-0.09029455051325452,-9.644787495243232,0.01373475092891107,0.03011875943950246,-0.016220206429827952
1746444932.5474563,0.08903215925130752,0.022926854943501204,-9.97773314904988,0.00371506575279923,0.018577252853966948,-0.014893691009794211
1746444932.5674634,0.2544884987394342,-0.11443379001282625,-9.654818085701647,-0.0046607967821208135,0.01739380957191784,-0.014686389891111972
1746444932.5871685,0.03911347130254696,0.10112812140148596,-9.997053744179924,0.008434517651086906,0.019493145712546428,-0.016673851256810996
1746444932.6073008,0.060058032271865056,0.08145227815400466,-9.921633748303766,-0.015722134549133807,-0.00061446753798413,-0.011097552289301914
1746444932.6274166,0.3321157067165391,-0.1936846869283524,-9.641325716620894,0.012080545410784882,0.024514943188111364,-0.018476233752958118
1746444932.6473768,0.15027887714662155,0.0454138787399717,-9.741693774867631,-0.001269125701735381,0.01331634231728025,-0.01659214597608427
1746444932.6672583,-0.03142715564668483,0.18985915409879336,-10.045827914717613,-0.01166745345293523,0.003492193694681074,-0.009267144039018793
1746444932.6871336,0.4086132730000064,-0.2779393377685753,-9.622045966149793,-0.01575645681624193,-0.0016060529786725408,-0.011434623439194014
1746444932.7072387,0.06464067723923743,0.11311728472880007,-9.882146265272986,-0.011265214258538951,-0.001093598631168655,-0.011991519931037111
1746444932.7272267,0.46103143447385486,-0.29523840906894944,-9.389187978976475,0.0006653606698063709,0.0049535076158492355,-0.012269525781176493
1746444932.747668,0.13023575992826958,0.10899830931601187,-9.803010035160897,0.0032021065883542908,0.005516063210413565,-0.014921479783701501
1746444932.7674527,-0.08467574294221036,0.2628812396472627,-10.123751484088451,0.005357954918436953,0.008070997747938511,-0.014600185121744987
1746444932.787211,0.15535658588063522,0.025133866932498077,-9.827799546225226,-0.003360116508192706,-0.0037307859468143877,-0.013167180175949027
1746444932.8073187,0.07140810496424878,0.04895824022417155,-9.956878686891622,-0.003106527595485167,-0.0030341725803889746,-0.012549730904026644
1746444932.8273268,0.24661477531195725,-0.1041030778889206,-9.715688203964941,0.0053446850537695,0.0040278770684749705,-0.015398880999073187
1746444932.84722,-0.15848190929508726,0.3265251554625946,-10.213648817968236,-0.003846652775092376,-0.0039012741791582444,-0.012212134259456865
1746444932.8672886,-0.19879687425878806,0.44204701620492615,-10.1254006866876,0.004351064106515098,0.002386447895819839,-0.012506773375213397
1746444932.8872254,0.34136539018705214,-0.21370084127564498,-9.654914534727926,-0.007382303572848803,-0.011949148670002789,-0.009275589100833105
1746444932.9073656,0.12856073534081797,-0.028546929693999534,-9.900595838722417,0.002529969999194717,-0.005103372958433296,-0.013068461820451627
1746444932.9273407,0.2926594923798306,-0.07781201184674175,-9.573890821713865,-0.004068116292007675,-0.006355587465997267,-0.010583767281999688
1746444932.9472134,-0.059945999765128766,0.1743131291493299,-10.106442782010678,-0.002163033436814814,-0.012236927493453146,-0.012970477180145183
1746444932.9671857,0.3526552205698822,-0.15593963036063738,-9.549317964724644,0.012278590202476555,0.004061778015351576,-0.014713243836160328
1746444932.987063,0.28425555921536005,-0.0654467540967848,-9.576630732752749,-0.004376968086275245,-0.015285784550298422,-0.011791708465090941
1746444933.0072193,0.18391163145546588,-0.12510727156713006,-9.87676355521418,-0.004790833061710801,-0.019108457645556604,-0.012998286979506965
1746444933.027332,0.1957910409865405,-0.017078682635864446,-9.707546816383593,0.012588225993938496,-0.005974133800739718,-0.01724710738652733
1746444933.047587,0.2105834120543605,-0.12302947405079775,-9.788998032544962,-0.001797764999516271,-0.017441760972558708,-0.013761018434697478
1746444933.067381,0.14773994236473412,-0.01871923506237248,-9.894537552779036,-0.0006016235210339659,-0.010721823019175838,-0.015449621321889317
1746444933.087191,0.238927329218477,-0.13060240407000342,-9.688223225934541,0.004676410768003856,-0.01345448568707645,-0.015079078545141194
1746444933.1072493,0.12075694931655478,0.044647566517464515,-9.765759610811058,-0.004877276315381373,-0.022286477913788884,-0.012140121130658602
1746444933.1272209,-0.09367179424441688,0.18096284468524781,-10.05106026750142,-0.007449078526058052,-0.022881604437005584,-0.01319584689691428
1746444933.1473045,0.1513997833663506,0.014176944017211595,-9.702419079108225,-0.0027778597642588373,-0.021659887053925603,-0.01415595246477517
1746444933.1672707,-0.10832656768701623,0.2733450304555039,-10.046778420384307,0.0024667813896127625,-0.014647610822121253,-0.011386764098697124
1746444933.1871784,0.2776843516297478,-0.1288318633509152,-9.544143576872802,0.011340399162869963,-0.014547489737970586,-0.015581033082070235
1746444933.2072031,0.13081661940287223,-0.14580820999647473,-9.934959851448545,-0.010060178458915514,-0.03078737301806202,-0.010740814799181042
1746444933.2272072,0.20951282770365343,-0.13162646494744157,-9.729436202757709,0.001532794343457687,-0.018827067590148606,-0.010492241915596104
1746444933.247195,-0.046956009439228535,0.05940778056613687,-10.068443112858542,-0.0008441591190104366,-0.025575110555271334,-0.009499825850538494
1746444933.2673092,-0.07890623612171058,0.21512842018250009,-10.019342302856513,0.001339805568479618,-0.022720905835870546,-0.010633159785066834
1746444933.2872083,0.1880319815732728,-0.0873763155314547,-9.654191699172031,0.00947483879183907,-0.019980959600560604,-0.015946316839143194
1746444933.3074768,0.12004866973920016,-0.04383106878585755,-9.71954173707615,0.004697581242205859,-0.02125436859867819,-0.01472960507320188
1746444933.327214,0.11188812869472416,0.0037334877184169316,-9.789694255621525,0.004284913111355378,-0.02165841065304952,-0.01540094816498622
1746444933.3473096,0.006769709478917016,0.09796956601616881,-9.785719976250892,-0.012299894244403243,-0.03925135727820981,-0.00949434154861408
1746444933.3672311,0.19234393409525477,-0.08059360884708679,-9.65955601293254,0.0026757803856988084,-0.026691809946539906,-0.01135125450780708
1746444933.3871775,-0.232306794442182,0.2669521100801842,-10.145759222849552,-0.0030003458373199254,-0.033363871209563654,-0.00959442676636596
1746444933.4072256,0.13961685748982838,-0.04274241615416906,-9.669780781471687,-0.004984213650552354,-0.029918315924892892,-0.010344750363698262
1746444933.427313,0.18994029722311592,-0.12518083469867133,-9.617742968606246,-0.007046321128744441,-0.04013124413092068,-0.009230408079454178
1746444933.4474125,0.16299894625936773,-0.14345272439521903,-9.749251575958898,0.0024236730859638063,-0.027339984515781266,-0.012929808335578873
1746444933.4674335,-0.026322944842711887,0.09137877823293043,-9.847546819506995,-0.012755476850882182,-0.04094751064456784,-0.00704842341454027
1746444933.487118,0.15996343948358546,-0.14434873230310546,-9.677637773385834,0.00813652628130949,-0.027059828895291276,-0.012885592555317887
1746444933.5074093,0.035695755493516224,0.002623875177202686,-9.778542168620579,-0.006017777410274439,-0.034797229587973544,-0.010000653442309907
1746444933.5272145,0.054769983864434685,-0.04050131746082643,-9.783893970430832,0.0060422203458591625,-0.026748827345830103,-0.012362990571793
1746444933.5474393,-0.04131162685125769,0.11769208544142311,-9.744998104166012,0.0023602063311718617,-0.03017941523768772,-0.011239472342377287
1746444933.5674443,0.02511745610240828,0.012002715886387441,-9.739975510918628,0.003795287332426234,-0.031022048210656118,-0.012761986342773552
1746444933.5870893,0.07215200355784226,-0.058771584998685886,-9.724553339678732,0.0030409396947375746,-0.029099141161646754,-0.012131245073509836
1746444933.6073093,-0.1995980868291147,0.1910640993999722,-10.026940025201752,-0.004648279270861718,-0.034640273848658955,-0.007687270781939728
1746444933.6272714,0.15560405839255234,-0.1391641133031871,-9.58604884937109,-0.006162788302286034,-0.03484108398485363,-0.009441304835566598
1746444933.647364,0.2095969789950997,-0.20555110943123822,-9.490879336495574,0.011031641420686045,-0.019794135192917242,-0.01167071667494664
1746444933.6672273,-0.2449154546219188,0.2956343306789274,-10.00160358534612,-0.009763016714263882,-0.0430115532898088,-0.008344023888962049
1746444933.6871095,0.047572761146457004,-0.10898259025598725,-9.727078383319304,-0.010674679858834133,-0.0385956788463168,-0.009016674676697667
1746444933.707227,-0.1668374277573616,0.0988999273421909,-9.954499467041552,0.00022967957550833445,-0.03144494825549736,-0.012574941074755264
1746444933.7272098,-0.277933860042639,0.2757031734457692,-10.026961144765721,0.00999477084421727,-0.021332691310971742,-0.01270387729146066
1746444933.747424,0.056739441966024075,-0.010357454569639511,-9.580434244033746,-0.003624972021578719,-0.029551437887428304,-0.012739314967383593
1746444933.7672467,-0.1328482685500357,0.07531441588998809,-9.821714570892478,-0.004975892855454624,-0.03279843169110316,-0.008086181593590787
1746444933.7870994,-0.16519251111232264,0.11977475249614863,-9.850829047360527,-0.0009291586076520028,-0.02813790899203913,-0.009775267875684479
1746444933.8072922,0.02519283926136722,-0.08900154895357054,-9.66902314798606,0.0026733518077867798,-0.0225119824687837,-0.012454745138812392
1746444933.8272681,-0.09996991417545256,0.10762458509187638,-9.73156016712904,0.006558194434036694,-0.023820443906203765,-0.01149104203951384
1746444933.8471062,-0.15578984663425025,0.13371860960169374,-9.789221214225076,0.0030210557542419882,-0.02352186669689783,-0.00952127873933491
1746444933.8672557,-0.08586823220217304,-0.02456746602858346,-9.841920754763477,0.00705875957458027,-0.024725632919297413,-0.010280988073939066
1746444933.887206,-0.15498394044776298,0.025244809521301474,-9.871234081525875,0.004519692278138303,-0.02316097328506782,-0.008216436070331878
1746444933.9074104,-0.19271752606779308,-0.006948063906206826,-10.035643563000415,-0.013682338978411833,-0.03463998634277433,-0.007312258202207491
1746444933.927517,-0.08559849728391125,-0.051499806840805726,-9.79180414468303,0.0013002525174153397,-0.02344957143835405,-0.013360410559754954
1746444933.9474432,-0.03387017040589682,-0.07278270105626868,-9.679178275692863,-0.009945038408824668,-0.03163554475740149,-0.01026976761711588
1746444933.9674249,-0.15557414794653443,0.06236554877225766,-9.862862028361254,-0.010539765578576872,-0.030676019286018347,-0.00862885759804656
1746444933.9873176,-0.17758581507730412,0.07158569717185745,-9.867716927243,-0.005029389009015798,-0.024443060652983923,-0.00799403712657799
1746444934.0072777,-0.30942012628147675,0.17026663412972082,-10.092741870693347,-0.0013897098743600863,-0.018140872782923853,-0.007266202902311462
1746444934.0273507,-0.1607112897844976,0.025567182585263252,-9.78178913362287,0.01098134764400991,-0.01019655155149614,-0.012018991525677425
1746444934.0471463,-0.11054668124353367,-0.062266712970053296,-9.871070126660108,0.0014371688758844676,-0.016766818329360958,-0.010948310368248476
1746444934.0672402,-0.06826957843269114,0.013968801222454648,-9.647133222605712,0.004612149870197738,-0.01620795979176682,-0.008906840302688925
1746444934.0872352,-0.16212596800427298,0.02372634077766466,-9.840083744278285,-0.010064729460224185,-0.021884349557100308,-0.007063615151203096
1746444934.107188,-0.2393805155644661,0.11480329652374853,-9.924643344836426,0.0007928937190627525,-0.01770313394929711,-0.008787284682032496
1746444934.127312,-0.1493985870433721,0.0788392393246802,-9.732204408911935,0.006874369175998208,-0.01115915181357751,-0.010295155174608009
1746444934.1474423,-0.0676126443666311,-0.08075905653617867,-9.713683507123443,0.003211999210087971,-0.010882090472036914,-0.011162850750539362
1746444934.1671984,-0.1816159807369403,0.09493411941588052,-9.829762659054367,-0.006794483932907284,-0.01785821023617218,-0.005609609557115412
1746444934.1871667,-0.14530488514143994,0.029510259562128504,-9.732269760914841,-0.009165500431302102,-0.014787535493200745,-0.008770713830870178
1746444934.2072816,0.1282102317102032,-0.27895847788369,-9.454006946614797,-0.01060827831840268,-0.014879266448532356,-0.006351955493313546
1746444934.2275894,-0.41564926572476,0.28403242463247896,-10.139432362652203,-0.008261452294643503,-0.009582044438916469,-0.004200344665501738
1746444934.2475042,-0.3990488895497407,0.2556107371875776,-10.121347074269032,-0.0017865622162374407,-0.009631584875850573,-0.006156074611438113
1746444934.267274,0.010259116814938185,-0.16115864023955193,-9.637317291159988,0.0018474653553093774,-0.008771317338218839,-0.010638323226395654
1746444934.2871184,-0.09867012963680424,-0.07598961235984397,-9.77286410518107,0.014799942937141847,0.006061238629103818,-0.012320332757073508
1746444934.3072903,-0.1749021599192451,0.10216479926181615,-9.794052161269535,-0.00423980866470007,-0.004117356179051474,-0.0072895619947432825
1746444934.3273482,-0.05701784080968042,-0.07434517133977592,-9.657310861882701,-0.010740518222112541,-0.01010860376695117,-0.006353914877090213
1746444934.3472536,-0.2934727693397041,0.12820289047819897,-9.922453198946542,-0.0015557599433853023,-0.005321433950000409,-0.007825423260388108
1746444934.3672547,-0.2173462248190907,0.06499521479707693,-9.912275515803705,-0.002727732748692636,-0.0026308102488861005,-0.009262068723718566
1746444934.387166,-0.2924500523449659,0.1701448923273149,-9.968328271987271,0.0009831362369218913,0.0070161380171505005,-0.008852530149856826
1746444934.4076855,-0.13419650490972584,0.011987715672765461,-9.765311387181042,-0.0006557978327243989,0.0017140908354262448,-0.006423574394433373
1746444934.4276118,-0.22134764432688459,0.09891498505868335,-9.790947107957367,-0.002147042907575571,6.554649401629671e-05,-0.004057308046164559
1746444934.4475398,-0.17968442849425095,0.037540655905053594,-9.813409120062575,-0.013127278804239743,-0.004130428171887647,-0.004685876052345286
1746444934.4676054,0.016329888155911687,-0.16208676374454634,-9.572586708796022,-0.0035169249717381616,0.0007912014806169244,-0.008012476359541762
1746444934.4871747,-0.12301124540846538,-0.013675097782737509,-9.767730056169778,0.0051767812418074145,0.009751485900228334,-0.005762818906027082
1746444934.5072799,-0.07694674470413917,-0.022434245514541602,-9.714631907598474,0.0004363716208598019,0.008606935562796271,-0.007031196088410478
1746444934.527261,-0.11889320137170523,-0.038443502212233825,-9.818445357612271,0.0032377631399269956,0.011657518060832357,-0.009651144370387214
1746444934.5472553,-0.37126151015079656,0.2577235567662849,-10.049937086977069,0.011272176840172857,0.02257767576086013,-0.01016368686152791
1746444934.5672338,-0.17909953337089235,0.022435472441382477,-9.818657691079887,0.0032671235917277625,0.013058202356688817,-0.008003246517939754
1746444934.5872946,0.01791636183174497,-0.11520178344216223,-9.604436703373812,-0.007690912527583663,0.009760582513268093,-0.004315608281566626
1746444934.6074803,-0.02534047597419334,-0.1017235278978282,-9.748419128877272,-0.0059062179294161864,0.008857952353450452,-0.00620632896410009
1746444934.6273625,-0.062409285275466714,-0.09543709616570908,-9.78334298635154,0.0013824182924574637,0.015185546094746778,-0.004263335415825822
1746444934.6474705,-0.11091431504402298,-0.010568629676237644,-9.763655871737475,0.01207630485750633,0.025856108771346184,-0.01194927081312783
1746444934.6674461,-0.26702903474524364,0.1592476630181161,-9.895097944195976,-0.002228581108300766,0.012920687110450415,-0.0031950915524641575
1746444934.6872332,-0.13816482893690363,-0.008992380935511898,-9.854262570352848,-0.0024424188261230628,0.022693890055959436,-0.00921450042338699
1746444934.7077131,-0.29505885142369337,0.16405687306200567,-10.050832785710307,0.012684454309653677,0.02679251143888201,-0.008933343678182111
1746444934.727487,-0.17150735385812005,0.06912942842145126,-9.878790110741118,0.0033847857896649384,0.020001502583574977,-0.009652162433420725
1746444934.7473693,0.09263689897165889,-0.19761909226877675,-9.559509715652814,-0.016159222021079646,0.0052293254920596655,-0.004338127903932439
1746444934.767331,-0.30977893758297237,0.16123412610902715,-10.078683431781268,-0.014217026006963552,0.0098415900451188,-0.003509846170079248
1746444934.7870748,-0.20207761914872258,0.03804056378550123,-10.015068658957807,0.007447330200348315,0.0322011898246921,-0.008795594147430575
1746444934.8072512,-0.23356401728176132,0.13642961652418567,-9.949643185397338,-0.0035378133589821555,0.02211920769814105,-0.004220446838479542
1746444934.827308,-0.010318556813522006,-0.055987894871633394,-9.643467603413425,-0.004685011059589792,0.016876440673684285,-0.004244236375058135
1746444934.8472123,-0.18355797444413563,0.10314183004612575,-9.895034732102975,-0.0029509726036227877,0.02553078581161626,-0.006187407408209731
1746444934.8672526,-0.2767742478334334,0.25817876018672736,-10.019543933108364,0.0016645673356342208,0.024391933119083123,-0.006575291081338987
1746444934.8870633,0.06628357091852918,-0.10903116335373535,-9.644438886803533,-0.004722452893208592,0.021265335627561523,-0.005720241232636587
1746444934.9072487,0.05426139421375457,-0.08565667901474887,-9.637962364652727,0.00697238786774851,0.03404721083798368,-0.006091903187072105
1746444934.9273913,0.3046750384583729,-0.29510202542506125,-9.336965716955822,-0.0041537103470516085,0.022934484879388543,-0.0063922975492230385
1746444934.9472334,0.016867408807934095,-0.087890810517829,-9.688633160032035,-0.0020480489428787757,0.023511629168422907,-0.006907616544519017
1746444934.9673674,0.13752895138231064,-0.2190948542103543,-9.552646816994894,0.009244449252005104,0.0362994624095343,-0.006994480043739049
1746444934.987059,0.15750580781211165,-0.09778440366726081,-9.53103416445397,0.01708207170675914,0.01672537573817271,-0.013156847462853645
1746444935.0072637,-0.12091853002322062,0.2541806394200449,-9.864928317908845,0.04260214061185921,0.0391118659561048,-0.018827936919822413
1746444935.027324,-0.018237708779511756,0.07515638297875173,-9.801065871807596,0.027028460222601827,0.026507847328701484,-0.01243841052578564
1746444935.0472696,0.10469860505560091,-0.015893243843687357,-9.7030923892527,0.01970165029711652,0.02098421636331823,-0.015239905899030428
1746444935.0673451,-0.04696188509188155,0.09128591766382003,-9.876523578614472,0.037493452414179326,0.03781318763125805,-0.017090349491025662
1746444935.0871005,-0.061097423044954954,0.1770528877437404,-9.814271878600152,0.10030765665244885,0.02877772062596182,-0.04554421120651734
1746444935.107285,-0.23719759899533288,0.39532549896467273,-10.065357516627433,0.08563591764885305,0.021116074792177805,-0.03772526461472548
1746444935.1273258,0.05148651467838182,0.024750319756190395,-9.756383653760459,0.09813152542419185,0.024985706592592603,-0.04036127294958496
1746444935.1473892,0.10492566026836087,0.023559212635648516,-9.744719004400451,0.0955797035233286,0.024453189203209495,-0.040055231910530925
1746444935.1674705,-0.007827324435053247,0.13705891102823478,-9.80645516741013,0.0893133994005865,0.020816922994157525,-0.03787841201752768
1746444935.187151,0.1928013113051359,-0.09240795072018285,-9.55466469626016,0.18177584107315128,0.028314232157997426,-0.08657724006226326
1746444935.2075067,0.11169300788867385,-0.13891324675545033,-9.775800339385768,0.18057474653289632,0.025143023170777816,-0.08461438095054948
1746444935.227507,0.2077543896052208,-0.18595175012636092,-9.563416423413235,0.18049749147825175,0.022914302533554334,-0.08242821069691096
1746444935.2475421,-0.10500578648718614,0.1013076459419991,-10.061708011895771,0.1795603507245602,0.023739104172343876,-0.08442498739417174
1746444935.2674806,-0.13612605462335867,0.15566141624229124,-10.01297111235995,0.18755405675832695,0.02935936882815486,-0.08575583096465969
1746444935.2872102,0.2537935632235802,-0.4786803207299858,-9.621017030139074,0.25584925687810195,0.02073526379580419,-0.14002131086784667
1746444935.307408,-0.014025394226625881,-0.16966720495713578,-9.698793099719817,0.25879518528158485,0.022030520350421433,-0.14233925457161692
1746444935.3274028,0.17775907832723434,-0.3730546788464695,-9.666336785845017,0.25949480208009174,0.024577042096377524,-0.1442331114370093
1746444935.3472724,-0.06328194923551678,-0.1708016325155948,-9.999447039869816,0.2604301944555105,0.027025294347277067,-0.1433176445435048
1746444935.3673341,0.12682968497774214,-0.3365827603718492,-9.70424272271284,0.2604935186805245,0.023967092106965314,-0.1420366733466717
1746444935.3872347,0.03643572502768175,-0.5889432034831918,-9.820948313490879,0.307890458053158,0.027160450202476632,-0.21565554232588457
1746444935.407278,0.1156847212838119,-0.5529440204831355,-9.685258792769233,0.3021692415104599,0.019220637755936062,-0.211683191977968
1746444935.4274166,0.028776449106622276,-0.5691277460603996,-9.967910031672478,0.30029427433797373,0.018905628136671244,-0.21296623446847399
1746444935.4472935,0.16671733476917172,-0.6680433529771952,-9.735905664648522,0.30307307511168213,0.018496028501883446,-0.21582611001124694
1746444935.4672635,0.15938208604370266,-0.6491470933557151,-9.719380022653816,0.3158879894229433,0.031998043343691294,-0.218581021947047
1746444935.4872046,0.1972525110268385,-1.0309260499086397,-9.609690159937402,0.30206122929805956,0.02223756577122798,-0.29819809191912205
1746444935.5073845,0.36215226702489667,-1.1469057219741177,-9.458336822941268,0.30973974437496743,0.02582396225776387,-0.2991646610132357
1746444935.5272646,0.16610103835252582,-1.0378540907063154,-9.709924452513999,0.3007539597346734,0.019520184240944777,-0.2947276630195834
1746444935.5472612,0.17351227553923856,-1.0264111552637374,-9.729386668870598,0.29915197153878864,0.023548256460129553,-0.29683173968220317
1746444935.5672972,0.009494669208345019,-0.8985577192759248,-9.957756555246442,0.293528847715778,0.0126540031918769,-0.2945842197358075
1746444935.5871856,0.053254882575260204,-1.2620872184457326,-10.01295137417017,0.2177319125541087,0.0049926423511446084,-0.37677579082585755
1746444935.6073177,0.2749189129404257,-1.492199515667632,-9.622049642243978,0.22076730888208995,0.013175599389860659,-0.37767773153293743
1746444935.6271935,-0.169412241265831,-1.0449822428596005,-10.071633494118414,0.21580348271761873,0.006011605275502181,-0.37356218414806786
1746444935.647455,0.5394556989205774,-1.7518313075200946,-9.3315510801936,0.216749847763006,0.00461837779504423,-0.3719810394998541
1746444935.6673744,0.24398343788290894,-1.4692584870903107,-9.737262851257519,0.2238452322851954,0.014564413569596955,-0.37289121140173237
1746444935.6872053,0.4340535057927628,-1.8393454931089819,-9.515354154561019,0.08647566029669598,-0.0008622097307496653,-0.44995671720773067
1746444935.707324,0.3043662011820948,-1.6660440169040978,-9.626225435538508,0.09902084949631447,0.011724687720910907,-0.4559972376538907
1746444935.727436,0.44317330266384525,-1.8191092458066314,-9.5044081262365,0.09182744863703479,0.004233880100392296,-0.45356123574893215
1746444935.7474208,0.238256715409711,-1.5959202168639726,-9.789543740710066,0.09678603012672157,0.007303607427026565,-0.4555536953433076
1746444935.7674925,0.25640610391418983,-1.6244315775401919,-9.5981451076477,0.09536181939594687,0.001979303045936395,-0.45344382482389495
1746444935.7871218,0.3020564294580937,-1.6752750627124688,-9.847132859134398,-0.06541089768029387,-0.007481463334607891,-0.5227660301119823
1746444935.8072054,0.4728217379143232,-1.8204695464248473,-9.573635219374188,-0.05638543573942428,-0.007206808360043844,-0.5245448235916629
1746444935.827286,0.35495332649880135,-1.7867369915596172,-9.851024394687945,-0.05381317338357475,-0.0022593767913747335,-0.5250306175074286
1746444935.847241,0.22994208336952915,-1.621716081801696,-9.939605689417862,-0.055170204361829414,-0.002935825897320823,-0.5222439519581789
1746444935.8672423,0.4072914333491815,-1.7400345452165136,-9.643164054708587,-0.06976267693252969,-0.01325822899652987,-0.5211277667120763
1746444935.8871984,0.32419557567516116,-1.484885000054792,-9.888548935070949,-0.18767223475363717,-0.017911904431381735,-0.5863881677652022
1746444935.907387,0.4983869796529041,-1.6649275130334198,-9.701462679388637,-0.19411264381135473,-0.020814380621244494,-0.5884982317707235
1746444935.9273992,0.4664174587445185,-1.6150032518154527,-9.701505233357278,-0.1994374302441374,-0.023907047231094283,-0.5839599957380729
1746444935.947438,0.6229801584279537,-1.7560449408784096,-9.532840880783935,-0.19310842374830764,-0.021645526504416493,-0.5856474334190963
1746444935.9674532,0.34727461482404665,-1.4992340352489169,-9.87006034343464,-0.19247475497662994,-0.017839369778638304,-0.5854518926876032
1746444935.9872189,0.43572343398460295,-1.2178231905858543,-9.848683318454878,-0.2745305684755665,-0.03617079815801088,-0.642444771925899
1746444936.007372,0.3987562390949889,-1.220532176352309,-10.058616480385343,-0.2726493592562159,-0.03856491323103229,-0.6436014770452758
1746444936.027394,0.5655165040006538,-1.3701073097094436,-9.763499346791134,-0.2788002280060855,-0.04331121317338591,-0.6410727207151057
1746444936.0473423,0.5431940944403325,-1.3496275169908027,-9.804289688483054,-0.2663304752160423,-0.031689452731326714,-0.6446086770426994
1746444936.0672638,0.3612038881986562,-1.069340143866639,-9.882131959357483,-0.2680208100074965,-0.03835487227998683,-0.6436103332429549
1746444936.0872924,0.5425391106232761,-0.9166141476894498,-9.763409352755822,-0.28475120841503443,-0.06181940117344276,-0.6948566277237329
1746444936.10739,0.5630290011000181,-0.9484127048503181,-9.858897497337828,-0.28004862497250993,-0.05814246200292811,-0.6954997288227105
1746444936.1274066,0.4405910447804933,-0.7745399686372698,-9.89696723801169,-0.27939234637096605,-0.06008893355131958,-0.6943282621244207
1746444936.1474047,0.44050905679211116,-0.7826107577593308,-9.953380451188371,-0.26812009709238543,-0.047192012644580505,-0.7005812652240526
1746444936.1673667,0.7071339982930781,-1.0594367298737946,-9.590790847362358,-0.2779726889137162,-0.05583778306678172,-0.6967798137126971
1746444936.1872072,0.6738687757726705,-0.6615111195792055,-9.627678205477144,-0.2129781835627067,-0.06697184502844347,-0.7419089062480564
1746444936.2073224,0.6213544652956966,-0.6116260748272542,-9.678384330005393,-0.21527003014302695,-0.06972472656699862,-0.7442105709825863
1746444936.2277672,0.5745427773868004,-0.45038596702005934,-9.637546033660914,-0.22015005418855874,-0.07438318969767281,-0.7427061467998329
1746444936.247719,0.5257561985722811,-0.4967366341165491,-9.701612568473353,-0.23152724899172755,-0.08433692048189001,-0.7385695613162628
1746444936.2676156,0.19526199023668478,-0.19961683374267175,-10.117350415983084,-0.22003242578498164,-0.07279208427421151,-0.746023647896539
1746444936.2873683,0.5417642494240172,-0.2628262692479046,-9.61420321472599,-0.11386208557306605,-0.09314390965717352,-0.7844902746828512
1746444936.3075078,0.27966194030417507,-0.0668759239114686,-9.942609270739915,-0.10308149454632783,-0.08312616824972706,-0.7897633124646044
1746444936.327393,0.5590643976837912,-0.4015005233787871,-9.740828572016422,-0.10502865010569584,-0.08106597108675148,-0.7843454963632263
1746444936.3474388,0.2727390716390882,-0.12241170296219012,-10.027489385043804,-0.11343138651396288,-0.09319091124264317,-0.7853995370966107
1746444936.3675795,0.5387116700331627,-0.35252930610675126,-9.655194029147967,-0.11340822959571488,-0.09150550097200123,-0.7855816999873081
1746444936.387171,0.4594849368137185,-0.3351989865482406,-9.769959998725716,0.014765070921523425,-0.09556695158818033,-0.8301804973740133
1746444936.4078503,0.5570807667855263,-0.41463459576650596,-9.608601523525513,0.008298210784804538,-0.10404273458972237,-0.8271791369516908
1746444936.4274952,0.41931798634516587,-0.24521907720080782,-9.784490940854289,0.009400196592224378,-0.10486509931978624,-0.8240927976764899
1746444936.4473999,0.5676708096376106,-0.4037055873034821,-9.516092408206994,0.0046010443206299535,-0.1045455635546239,-0.8232464184719989
1746444936.4674633,0.4430633330244576,-0.2510820348918294,-9.632054389829591,0.015531076579274737,-0.09824635880777025,-0.8257352165229815
1746444936.4871957,0.7445345552746717,-0.7903483779161534,-9.254761495910548,0.11700573198354271,-0.1091291681824715,-0.8620476052531802
1746444936.5076876,0.29688366980369457,-0.3942918351069572,-9.848702183921695,0.11711918724236763,-0.10770795050642895,-0.86166796616537
1746444936.5275068,0.41519670710508805,-0.49854915051359716,-9.782270542371903,0.12551039262968997,-0.10329175449091425,-0.8638435096818027
1746444936.5475538,0.4355674529402748,-0.44484057939557525,-9.572807605146247,0.12536302544355196,-0.10107574382893446,-0.8647899553114189
1746444936.5675063,0.33045659981129744,-0.4710285021788678,-9.912697372915524,0.1243030071966859,-0.09831765401053319,-0.8619352679186578
1746444936.5873253,0.1486226267806309,-0.5453644369699954,-9.900769347480795,0.1848840033595375,-0.10896651305477452,-0.8984163545165708
1746444936.607463,0.4771506397364148,-0.8533255861079229,-9.50006995320939,0.17662017023492452,-0.1153421341305031,-0.89705411639535
1746444936.6275601,0.21775133145749087,-0.5258249390524063,-9.717061546953182,0.19325250484597928,-0.09743062996470044,-0.8982926950691764
1746444936.6476042,0.14058703859214008,-0.5435055314725282,-9.913040419177554,0.1703980855306658,-0.11663401072288103,-0.894124656753366
1746444936.6675062,0.33071970362007924,-0.6773504176876409,-9.586309678066186,0.18380825996348818,-0.10561129252642418,-0.895157478347683
1746444936.6872654,0.40637626979425934,-1.065731366392748,-9.471112406718188,0.1715438700129516,-0.11593436970022768,-0.9233617454833805
1746444936.7074733,0.4298503323250997,-1.164209188023032,-9.557000063313632,0.18192585227071958,-0.11040385982443651,-0.9242599395326481
1746444936.7276127,0.2470426086088286,-1.0220397701549966,-9.781419615238224,0.1695063774855712,-0.11962728124654533,-0.9250769998423856
1746444936.7475307,0.004008319158413959,-0.7414183825002583,-9.979385016477147,0.17520422021373708,-0.11326747870372637,-0.9256397465391367
1746444936.7674587,0.4383099753869104,-1.1358055342995943,-9.428228821882353,0.17881796000726002,-0.11059134612599683,-0.9270461748512202
1746444936.7871668,0.20053362745684217,-1.2382948371804279,-9.698306239249757,0.11536662692506194,-0.11678896918935569,-0.9500042540223246
1746444936.8074276,0.33665704770531923,-1.378488100007619,-9.56672173179031,0.1314958412455616,-0.1051344335310439,-0.9557462564491707
1746444936.8274267,-0.0850397149510137,-0.9465018399615875,-9.978005635244896,0.11223939667523644,-0.11907922738726015,-0.9503704064058535
1746444936.8474686,0.33617486273499675,-1.3430515366070668,-9.557721855369572,0.1332369527919721,-0.10456275187166358,-0.9549436762123623
1746444936.8674881,0.22063242612245587,-1.1812557274514153,-9.64381644222426,0.11969033486286847,-0.11571323147636674,-0.9519464537187852
1746444936.8872344,0.008358508446951074,-1.2313215998667313,-9.915329187871416,0.024200461598235995,-0.11973218381768937,-0.9747090712480786
1746444936.907502,-0.14182038192320204,-1.0111254416585431,-9.988906219633858,0.03965960985379524,-0.10600371193758246,-0.9772563591061181
1746444936.927506,0.1497034297202703,-1.3438813099546743,-9.770168277050763,0.03226729086538887,-0.11289936303058994,-0.9766832791547458
1746444936.9474761,0.2352961079963919,-1.3916053446553862,-9.582711508323772,0.04329542772718315,-0.10106777418607796,-0.9759067661858624
1746444936.967454,0.19877076871660518,-1.3183685607717417,-9.515911092088823,0.04255850895348149,-0.10679262585226826,-0.9791227095052543
1746444936.9871957,0.09367906414549332,-1.3665862920513752,-9.828723248167089,-0.0602013802020046,-0.10285015774092962,-1.0020095272658485
1746444937.0078046,0.33939188667358466,-1.5459249298901363,-9.481577532802646,-0.053446589093742405,-0.09583401505832966,-0.9980405440238758
1746444937.0274944,-0.06971037271575123,-1.140129873834023,-10.020720503881787,-0.05650887737420103,-0.0986243845154616,-0.9990823510156235
1746444937.047488,-0.04273809461329839,-1.1046145236082416,-9.856557176023244,-0.06554380336692348,-0.10276296079718795,-1.0006282737814312
1746444937.067658,0.07215166081208921,-1.3540274637048855,-9.819295163704975,-0.04950007611148637,-0.09825587666512928,-1.0022825243492344
1746444937.0873053,0.03769429280167763,-1.1117508708743826,-9.752388123529059,-0.146805770993518,-0.10028052070761824,-1.0180798668675164
1746444937.1076043,0.24571001700168787,-1.3556921752870754,-9.667275475120077,-0.14619208905132577,-0.10208081249834651,-1.019509279586688
1746444937.1276302,0.0969708560070508,-1.2605361331121394,-9.765407049246146,-0.1367189263179218,-0.0924316231405846,-1.0200113791907988
1746444937.1475646,0.20432245092887716,-1.2348688276168311,-9.521442728317087,-0.15836764363859201,-0.11141403756323247,-1.0168881673487473
1746444937.1676123,0.06302187836080902,-1.1515150329371873,-9.755008512626118,-0.1504400389497094,-0.10302195654855205,-1.0191545445419665
1746444937.1872122,0.1082879605918458,-1.0831261059223118,-9.734165304596784,-0.18304213509148096,-0.08762893371835688,-1.0389795577786467
1746444937.20802,0.1826556825093708,-1.145867079253269,-9.679755520874581,-0.19384840160630037,-0.09306348412775926,-1.0310556587948096
1746444937.2277675,0.37840938621992565,-1.3224906755106551,-9.453191398219595,-0.1885119401805764,-0.09266925932454895,-1.0371591578066512
1746444937.2476642,-0.04540827740539788,-0.905256578065781,-9.914869573538098,-0.194871748978885,-0.09603247382253682,-1.0358297990008494
1746444937.2676017,-0.026868655760896504,-0.8969280065586519,-9.98068824219054,-0.18112659424303118,-0.08560408023330038,-1.0409203194806045
1746444937.2872791,-0.40701227162461473,-0.39490264951456094,-10.384343088016413,-0.18581155798886576,-0.07914347205453628,-1.0544006493617333
1746444937.307598,0.026858547057394405,-0.8190082712009581,-9.86896488035387,-0.18869747222739686,-0.08080715106459983,-1.0505168280034274
1746444937.3275487,-0.24334471216530104,-0.49595962155673196,-10.131289874886066,-0.18821666226896214,-0.08098743598877477,-1.0535366760924023
1746444937.3475344,0.06337004002969965,-0.8210402200420878,-9.83243085272038,-0.18499450512276397,-0.07713067822050923,-1.0552248860452325
1746444937.3675587,-0.08721380110918808,-0.6338758925652895,-9.987799962875744,-0.19523116252009096,-0.0878980212219477,-1.0524857211610663
1746444937.3872454,0.17416223540073653,-0.8282141609023643,-9.677794247353434,-0.1436442926302808,-0.06911139377267607,-1.068865248904133
1746444937.4076054,0.15961712414016868,-0.7206440631832394,-9.577153398220206,-0.16495689978628897,-0.08378602084167758,-1.065889735731226
1746444937.4275713,-0.04770658411263333,-0.49799992522334646,-9.819056097552222,-0.14066358112926275,-0.06454760313764205,-1.073420888736946
1746444937.447553,-0.17058512455514033,-0.4177450171889783,-9.956840533868602,-0.1471287750334835,-0.07024026238745976,-1.0678125984439166
1746444937.467535,-0.3544915264039804,-0.2745755100393506,-10.187506409975423,-0.147814059810596,-0.06920206952336685,-1.0713247339044274
1746444937.4873652,0.1288511796304358,-0.6230675108789975,-9.59461446883653,-0.09336825930306178,-0.06087001260534161,-1.0815791637521435
1746444937.5074618,-0.02612807485817569,-0.39588045033319125,-9.694689213989804,-0.0860901874070521,-0.05931641285234562,-1.085010702857389
1746444937.5275524,0.11412021307785442,-0.614415771793166,-9.597159406992823,-0.08690269262110517,-0.059258779543014665,-1.0822481389954406
1746444937.5475364,0.1456682313605669,-0.5814548914871261,-9.508631932484272,-0.09775859005267061,-0.06712814405867519,-1.081741761220854
1746444937.5673943,-0.08253265453664577,-0.44740713594658205,-9.904147008404173,-0.0889005148256907,-0.058465720199890533,-1.084851314221781
1746444937.587171,-0.09728127207281226,-0.5120302478247479,-9.928640933466076,-0.030447057518106294,-0.04811065310022342,-1.0953176814532928
1746444937.6078258,-0.010892048276651328,-0.592735100133113,-9.842040236216278,-0.030837742154006337,-0.05644118000957804,-1.0922718784659258
1746444937.6275911,-0.23303010469573507,-0.24194719463675274,-9.953463387625217,-0.034890372038107714,-0.05077877641383732,-1.090546062322453
1746444937.6474822,-0.011043147531947801,-0.48275608402452275,-9.72260386368503,-0.027670038855961223,-0.04786361620723208,-1.093059549177602
