timestamp,accel_x,accel_y,accel_z,ang_vel_x,ang_vel_y,ang_vel_z
1746445071.2365515,0.38207372533062767,-0.021850014798428907,-9.599262826704296,-0.006664841973374262,-0.06195676652969645,0.21167272787099164
1746445071.256214,0.16743617830056823,0.14289899212154553,-9.823376444545072,-0.0008526855284996197,-0.06472701103996281,0.21096236108276276
1746445071.2763941,0.10525248172230792,0.280041625678759,-9.857582294397812,-0.008390396650631517,-0.06782908095380648,0.21149872274927273
1746445071.2964606,-0.04621897429813693,0.3596999612471803,-10.120656989582567,-0.010200247723042842,-0.06854791446986297,0.21128544352206038
1746445071.316365,-0.025899509917675922,0.36508204803510613,-9.960308172538179,-0.008219736589892283,-0.06696885031888133,0.2098997367707779
1746445071.3364646,0.23322111061911996,0.07461410260308886,-9.768756812969258,-0.012806536144915105,-0.07378231082399245,0.21211616983513454
1746445071.356265,0.3330317285383345,0.019597988226038726,-9.415790946515846,-0.0011395530756777867,-0.06668376379098055,0.21238154093926817
1746445071.3763087,-0.053739060550919315,0.32988180647968907,-10.009049465736798,0.005274846020599066,-0.061182791882485495,0.20713812408846966
1746445071.3964593,0.08907052380965683,0.169077136672225,-9.810960716075916,-0.0014450840067775934,-0.07237376637398654,0.20948284679861384
1746445071.4163785,0.09715261116845207,0.2199434222887081,-9.717936290152064,-0.01621455642614563,-0.08055033959357447,0.21289223588835612
1746445071.4363654,0.16656243536657084,0.10895180878968455,-9.745770601216284,-0.015123986443500416,-0.08187232455795636,0.21264435702216286
1746445071.4562328,0.0602415565997097,0.11058720130405929,-9.759625774921872,0.014617502580369304,-0.06191543798013968,0.207951558494637
1746445071.4764042,0.10605575904793649,0.06064401354285853,-9.752906266292591,-0.0025316548667250805,-0.07351980791957245,0.21033456671187897
1746445071.4963782,0.25329436523731014,-0.006111763701929757,-9.535048609383056,0.002044268038785757,-0.07288374161561424,0.2094692783199217
1746445071.5163872,0.1686333753513933,0.011609480474910921,-9.666216840049954,0.0016230571273432618,-0.06756136212086274,0.20944569388815154
1746445071.5364003,-0.03448993970651865,0.2021297462356374,-9.98411229028051,0.0019307786673987356,-0.07111311610850721,0.20812828130606634
1746445071.5561829,-0.08046912927439157,0.2947589146557917,-9.708751224902516,0.012296654859505577,-0.06322263339515602,0.20726834748243478
1746445071.576437,-0.1176127845089151,0.27572778063415204,-9.70767782552759,0.01250919676957247,-0.0687706607713553,0.2057878939354205
1746445071.5963793,-0.19511113087817017,0.3343925828657167,-9.978830479547671,0.0146242549766318,-0.06584776266609543,0.2041847491674912
1746445071.6164,0.17782998505544817,-0.06297475502461805,-9.520645761607607,0.0036483087037567485,-0.07456720709086707,0.20908027401012846
1746445071.6364646,-0.20024721324940087,0.36434319877641336,-9.955875025077518,0.008135419814342687,-0.07066855880298392,0.2080052634505486
1746445071.6562088,0.1670370380725087,-0.19613363936580888,-9.582370953624212,0.006237362933588843,-0.07147976969256908,0.20838098535916744
1746445071.6764812,-0.3010530474313208,0.360904221022229,-9.967889756875154,0.010732630424414448,-0.06831263114913169,0.20706005196125649
1746445071.6963298,-0.07984651333829888,0.0866277496869391,-9.806234154525034,-0.012543109834376969,-0.08469721508494982,0.212030267042513
1746445071.7163408,-0.33102302057573596,0.3617294543494399,-10.123711519118455,0.011111204742017048,-0.06858279134918499,0.20411457682055004
1746445071.7362225,-0.020072067062399584,0.04671168943869376,-9.6189091156957,0.003604228729234475,-0.07180859376562945,0.2082361435501962
1746445071.7562072,-0.3084625658391683,0.23045451336447453,-9.990420107198016,0.015249943324354552,-0.06165969832059006,0.20635635159399254
1746445071.776437,-0.04737546273265225,0.03431931543050716,-9.622692040030358,0.017358924686763415,-0.05900653910760738,0.20711845091922965
1746445071.7965136,-0.10984417501421888,0.10925575409044583,-9.654501772612916,0.012049888192790233,-0.05629111395465601,0.20605678131610225
1746445071.8164163,-0.4908914935203792,0.4825194334166752,-10.147513345613177,0.009162152469907337,-0.06378834007603351,0.20680262892473375
1746445071.8362534,-0.2504238141652359,0.25406029010836867,-9.811245888396323,0.008452195131806145,-0.06336038066818094,0.20956139449591607
1746445071.85618,-0.4673686100661711,0.3601238320474742,-10.09319006451076,0.01064325391893459,-0.05755980905367842,0.20582928137049059
1746445071.8764296,-0.40078453329243835,0.23813547246804878,-10.058961502848353,0.014380546530585831,-0.05360521604069654,0.20360326659294622
1746445071.896481,-0.2533191097506526,0.15786956905947983,-9.816121379966274,0.005550053341823614,-0.05886249815894114,0.20484641915397808
1746445071.9163308,-0.3238153345960084,0.18547134042901836,-9.929328820926102,0.01740056659827226,-0.0533188325352452,0.20035369898389888
1746445071.9367692,-0.12250412584999851,-0.014313159037977419,-9.606166089685292,0.023930333666257173,-0.04790488561413887,0.20032656523885534
1746445071.9562116,-0.4859018694968813,0.2733679176830326,-10.051877394107795,0.02644501967355107,-0.03303534375535242,0.20039284743261024
1746445071.9763544,-0.15790486161412745,0.005007649402796049,-9.61196156766748,0.019263429310768923,-0.03505048801127585,0.19972136137827254
1746445071.9963577,-0.2785163782775995,0.12824533347901956,-9.749977117840158,0.018031201553309235,-0.03838149546591569,0.20387306968081068
1746445072.016698,-0.3879862335015404,0.18927148775986768,-9.85106450859237,0.026433785449135962,-0.03619311234664699,0.1971656153220198
1746445072.0363188,-0.2648167332424843,0.10594647797031853,-9.700743174090666,0.011744309135307185,-0.042152581253756205,0.20449423638800138
1746445072.0563557,-0.20780937371073183,0.026704219887216246,-9.641358317135357,0.017559558206156328,-0.02572802888551416,0.19700446260680549
1746445072.0764477,-0.224945936248849,0.046436830054154415,-9.66382044099976,-0.0021751970050031544,-0.04317848633830346,0.20238605169370616
1746445072.096387,-0.381525243559023,0.16789549992819486,-9.885490813455014,0.020657439888111608,-0.0245655662353976,0.19614191478109574
1746445072.1164515,-0.2634259561215136,0.014097141305810287,-9.755057614197938,0.011921765618330974,-0.03448491468654781,0.20168350046098585
1746445072.1365511,-0.28786179475268614,0.08066216633911068,-9.656719311626132,0.00809759856320251,-0.034757708903697226,0.19916268056730693
1746445072.156216,-0.6626743241240654,0.43620634204585684,-10.211821989396231,0.02189331772322774,-0.005419178643089837,0.19362661174680254
1746445072.1763284,-0.4602760308403317,0.2800642835885549,-9.922083292050958,0.007266017337012642,-0.017654512907303323,0.19757261801206538
1746445072.1963885,-0.17699083429064372,-0.07629733882747153,-9.537949697339227,0.02018511196480892,-0.012324165544746229,0.19614887546092796
1746445072.2163625,-0.4105482552016135,0.13833184675208707,-9.877503719255158,0.011371161697971094,-0.016351869302596734,0.19412831578256606
1746445072.2363331,-0.23297957004187006,-0.006613396182874626,-9.65137327532037,0.011771271909096851,-0.015330643836914704,0.1977410878258636
1746445072.2561777,-0.39924188926892173,0.1848358848978632,-9.765704642449903,0.00014746158223537427,-0.005871605765551506,0.1986462926219728
1746445072.2763317,-0.21533945222672082,-0.02108618472488684,-9.586718715867198,0.007349089071161111,-0.005412517612273772,0.19379378197766542
1746445072.2963858,-0.3372383362550274,0.11083941169024236,-9.729516857181432,0.006464788800356422,-0.006530969550816137,0.19168314091411767
1746445072.3163347,-0.44818184563168556,0.18147139797283576,-9.827296245139744,0.010727325216749597,0.002079816602502946,0.19280426295493922
1746445072.3363633,-0.2727644321902581,0.03991255455124503,-9.63029990187885,0.006416394568917191,-0.004217011360859168,0.19246293033648407
1746445072.3562953,-0.10249245533666584,-0.08829520091384004,-9.437971703731092,0.007513669329571137,0.013811762639879311,0.19053455995660545
1746445072.3762383,-0.22362241115617748,0.08902436680388434,-9.487779743190044,0.001440362655428116,0.007532333892398217,0.19338053833063581
1746445072.3964498,-0.23419990001063518,0.016429405054015925,-9.601447947938821,-0.0008962640355394333,0.004725692361711014,0.19316473328709932
1746445072.4163184,-0.24343594727887746,0.008810008567342584,-9.668200728967449,0.015548800159531367,0.017629602877782057,0.18817347853534183
1746445072.436309,-0.42422080101439663,0.14377106836547035,-9.855642682510402,0.003935733530782684,0.009954710723593121,0.1890339731653483
1746445072.4562614,-0.21259389561202147,0.052046837784663055,-9.560864645637862,0.027963872994025946,0.042705304071796464,0.18173412498419292
1746445072.4764268,-0.512619704991795,0.27369440344261925,-10.039352109098129,0.0024038318539861426,0.02010992265302099,0.18706141827823777
1746445072.4963307,-0.6536288741387214,0.4292893273323151,-10.156716625846656,-0.0013223502155787128,0.020650568983482658,0.18782765850479452
1746445072.5163074,-0.5234113889529264,0.2798738219540279,-10.028335160432787,0.005233646965794498,0.024048164922229793,0.1901631920569018
1746445072.5363107,-0.36630186465798226,0.03543131968074135,-9.953133726226232,0.00882277816390703,0.027848846503152926,0.1849729602611906
1746445072.5562325,-0.7440009038531529,0.5724817458322549,-10.2730279717179,0.0017790135576783933,0.033731150644976476,0.18574778304065906
1746445072.5763583,-0.5333766612576409,0.3129429127833642,-10.168175830646309,0.016542766220529765,0.042501882296908086,0.1839364973851332
1746445072.5964274,-0.0354561669920308,-0.10839061608397116,-9.447303864481501,-0.0005658054129374793,0.03172977907739349,0.18554766020363606
1746445072.6163752,-0.4949420353960982,0.3143941089269423,-10.044845526802742,-0.015346766536652769,0.02248259583691533,0.18970942885621497
1746445072.636331,-0.39271602930240795,0.1982792028099766,-9.959624386107105,0.005501274909167154,0.039947652280676156,0.18324927784635145
1746445072.6561787,-0.2415696746260376,-0.01725123156321652,-9.970541543054166,0.007337761452097199,0.05125343456928525,0.1799963287486864
1746445072.6763253,-0.2082074639273704,0.038218340705817956,-9.870397056063073,0.01246205917439408,0.053361101077634455,0.18124177282624665
1746445072.6963012,-0.614897728058484,0.46285713713487026,-10.279420553586938,0.006500983231706729,0.049237539880715775,0.18135040485914392
1746445072.716402,-0.2376901103154981,0.031490652800632186,-9.835215452804288,0.014693677085926893,0.0588616997719056,0.18050433963682266
1746445072.736357,-0.13036872394307916,-0.03134975666008716,-9.653491928347714,0.014155682702072432,0.054626903523632114,0.17767555486552516
1746445072.7561677,-0.17850345364880818,0.044206065931320544,-9.863455085004748,0.015081962330014484,0.06408973863324151,0.17348086274066546
1746445072.7763405,-0.2006021678437349,0.09615497465610501,-9.827976953139768,0.011188846085741905,0.060792874424336285,0.17313044890137924
1746445072.7965536,-0.1920011686327491,0.10607948898565664,-9.831788306750262,0.0008395645722745534,0.05235830784024016,0.17682469351446636
1746445072.816448,-0.18525418839832059,0.11541054193442044,-9.765778603173047,-0.004541431167325645,0.051700465530109374,0.18269964725758095
1746445072.8363266,-0.1519752261168828,0.032753868772298564,-9.800125337104793,0.006452568553133384,0.05863602011211961,0.1763716775093914
1746445072.8563218,-0.40833662403648985,0.40600209124334935,-10.131663874408895,0.0029411481130915363,0.059628828081347826,0.17477828795289338
1746445072.8763318,0.10245624887943441,-0.11777673910776393,-9.57760597779163,0.018608204236575623,0.07507987148887892,0.17043021242830572
1746445072.896463,-0.27449189815623587,0.1947188801090104,-10.055281046223044,0.0018426204651019367,0.05907782404225998,0.17539993108539237
1746445072.9163215,-0.3028480022619306,0.21901032569962936,-10.105410223538904,0.001515138032152784,0.056365086541581635,0.17465075945495237
1746445072.9363077,-0.23329214574274132,0.18269077930048228,-9.970752795886597,0.015845446688179075,0.06658791599916865,0.17210013379182068
1746445072.9561844,0.15315930054856064,-0.152982791684325,-9.591802995545525,0.0049362448692604425,0.06062497722945418,0.17019889359014576
1746445072.976282,0.00838113353560227,0.030524489591750477,-9.766320236218316,0.015611200238924563,0.0792090329095079,0.1660425959635079
1746445072.9965534,-0.214545514925797,0.23650732207103414,-10.03143125236413,-0.001590435254846606,0.05869777710304307,0.1727614141426689
1746445073.0165777,-0.09533205458702682,0.08795259943375133,-9.868901641740482,0.0089831012561803,0.06575103377869815,0.16816063101421255
1746445073.0363438,-0.20076281425993517,0.2616186498353582,-9.965049171271126,0.0036746987739378996,0.0613909352053442,0.1730003660714338
1746445073.0561683,0.11631373389512209,-0.08239330651455888,-9.783256134480105,0.010823641342203089,0.06864869501582592,0.16386116087751976
1746445073.0763512,0.0009272941240004665,0.02230145160629087,-9.989591550834799,0.016297309303952033,0.07383581607864872,0.1634526517529096
1746445073.0965939,0.017534703944236257,0.039937783580243205,-9.87982478816736,0.025425032947671983,0.08254008505628828,0.15993401412055638
1746445073.1162965,-0.024281806824529455,0.12378539092296607,-9.834868782971851,0.004741089616106662,0.06582595568274495,0.16753795961957574
1746445073.1363077,-0.23648975878463754,0.2567810705410818,-10.23455023935106,0.008086047298364086,0.06867944772691628,0.16586451520176915
1746445073.156139,-0.03421324005949988,0.18739316952131807,-9.949214458806553,0.004143445398879071,0.0631453167926249,0.15854530430095096
1746445073.176594,-0.21592196925158103,0.32796411665851616,-10.224987104408472,-0.0035016380360854147,0.06271761621668032,0.1650734135366344
1746445073.1963046,0.1572854938475118,0.00841117240505418,-9.650780352048223,-0.004531177472834449,0.056752671593328786,0.16503375301680206
1746445073.2163408,0.19820087159511163,-0.016486640467698543,-9.627056883477497,0.008939438994574275,0.06733744090171212,0.1604959987345935
1746445073.2362986,-0.12105093644304961,0.3216964387510251,-10.002417218502757,0.0031583228333337534,0.06388871541295232,0.1613546694921176
1746445073.256172,0.19938202526565144,-0.019306056845047326,-9.794610655350985,-0.009777294556214716,0.04880787551735062,0.16128261782587497
1746445073.2763674,0.15074959634275711,0.028438770214167325,-9.91861401732305,-0.00491654329439448,0.053696672633002034,0.15894537969086223
1746445073.2963154,0.08356352546952645,0.058092061265489596,-9.902981544379577,0.00722278079004848,0.06418156084052597,0.15954823883168823
1746445073.316291,0.16694428982154907,0.05043265445074753,-9.758871492523626,0.010248399229753465,0.06339819702291592,0.15690334332215355
1746445073.33634,0.14668527215601826,0.030426842701171394,-9.782821575559042,0.014666131239948092,0.06648121729691278,0.15176261482281173
1746445073.356189,0.19799979527124675,0.0191330384509946,-9.885548156361121,0.0008333288414069431,0.05184283295953861,0.15173595161077627
1746445073.3763936,0.05229248879749626,0.16742875633666576,-10.042197235710628,-0.006380896561124184,0.04841707407461159,0.1519622283988549
1746445073.3964653,0.08880126354084862,0.13841905206025515,-10.014588077299436,-0.008687763601954602,0.0463391542921449,0.15451306477049406
1746445073.4163764,0.19790976578269712,0.07438031066395025,-9.729999591115117,-0.005723154812092599,0.05055338481282487,0.15471315639598163
1746445073.4363236,0.2121830641412649,0.03539118435679312,-9.764486910580205,-0.003132266875306273,0.04750634816730068,0.1530774945129722
1746445073.4562652,0.19605480930770222,0.13734771771588317,-9.84296373282108,-0.0008602586406583714,0.04536508975116468,0.14946448302596013
1746445073.4763215,0.3125235091432288,0.026282652804061238,-9.757421341486854,0.00838753102372142,0.05458841596853639,0.1465085735099417
1746445073.4963048,0.13052018672049148,0.1749365580376744,-9.921146581557654,0.0026854897736829815,0.05054725718884359,0.14702559932801815
1746445073.5163069,0.2856135801917084,0.057598468343536366,-9.640722443325611,-0.0032386922379463697,0.042995049394895624,0.14666509109305712
1746445073.536355,0.348215238078439,0.011838841379785317,-9.67133243719192,-0.008135963065057485,0.03892635803077184,0.1479055572172556
1746445073.5563045,0.2382594529490109,0.10005123221597634,-9.87753769912845,0.00390570188463245,0.03733797817797282,0.14163765838826414
1746445073.5763485,0.08000190781197392,0.2735650095366384,-10.086126936444435,-0.001025373800548855,0.03433002951880947,0.1429053762778262
1746445073.5963564,0.25473395535161336,-0.003645029001264649,-9.920574696851203,-0.0029591823935736184,0.03165772710615571,0.14666543580132357
1746445073.6163137,0.24655774275490253,-0.014048226530283203,-10.05285557732433,-0.0010781054177915455,0.03278080672992033,0.1439135969916343
1746445073.6363177,0.2278017451721403,0.14622335500105674,-9.817634370493575,-0.013546611618192064,0.02619448362962145,0.14922499660693844
1746445073.6561515,0.5381737389423595,-0.13217507742463355,-9.477121456270458,-0.0013023193167944905,0.025420389204064846,0.1383201538806499
1746445073.6763847,0.4663824878588315,-0.13552938294286573,-9.608229484057212,-0.0062164636105351565,0.020040365555685048,0.1422930293991104
1746445073.6963341,0.5226694726727955,-0.11779680224239888,-9.472675499461355,-0.00851820288225797,0.01765632400317264,0.14122740444114457
1746445073.7162971,0.12507051502973304,0.22951409945544576,-10.04224491680738,-0.0052568915116664346,0.022185956781194574,0.14263155639391226
1746445073.7363038,0.22498376876678036,0.0827579786674294,-9.957716121278091,-0.004342930335117275,0.019859509227154532,0.1365194832086716
1746445073.7561667,0.24535603460225675,0.12850112715605447,-9.968721637926008,0.00390292823958104,0.011088742439995605,0.13297308933932633
1746445073.7763424,0.2517498049636332,0.1513951639700211,-9.779799099298343,-0.002592633521520609,0.009636745099718357,0.1376549952886637
1746445073.796365,0.30591475462867196,0.1004032661247176,-9.780971501940757,-0.0009051628838144619,0.013298008444717256,0.13475967072343645
1746445073.8163474,0.4033629450426448,-0.009250603649473423,-9.69638469556535,0.000927121747208018,0.012658181684701167,0.13526164491232706
1746445073.8363426,0.34123790806879056,0.06626044625628116,-9.772850568646389,-0.007393971019684914,0.009057123803157584,0.13862439121942316
1746445073.8561642,0.36910047056304474,-0.017236972889711447,-9.749426611820223,-0.012355697880205926,-0.009043245025482309,0.13483004887859298
1746445073.8766563,0.18797621374327997,0.19896714898963008,-10.001252689643056,0.008293444523829893,0.006444137018705771,0.12836378265772805
1746445073.8964264,0.24652830912403625,0.10963804417133519,-9.924988490245456,-0.006313609613362143,-0.0070554996518922795,0.12911621668777035
1746445073.9163096,0.43307828290485867,-0.07318034082677452,-9.6554520413401,0.0011531304174542019,-0.0011365177677165423,0.12974982018321232
1746445073.9364188,0.5651459612550234,-0.14139701023593051,-9.438745111653759,-0.013777652038594008,-0.014732634544754975,0.13421521537213044
1746445073.9562893,0.504458715614384,-0.1871545324503058,-9.61550674847274,-0.013368172423400928,-0.02484436044737154,0.13138165373398072
1746445073.9763525,0.13517074857661457,0.2147919747539047,-9.962388116013933,0.00889849684964891,-0.007872795002902704,0.12196229632411824
1746445073.9963107,0.25051005765823775,0.04473895486877218,-9.88946945785994,0.0027972038755807197,-0.011852860203047353,0.1269610869330243
1746445074.0163732,0.2411127291119013,0.1332268664694438,-9.859504654895598,-0.0037283944723088226,-0.019507733962893837,0.13120741220441265
1746445074.036555,-0.022882361755569847,0.40516533588972264,-10.12726656970646,0.0028542446210099073,-0.012593879768977705,0.12652777685435657
1746445074.0562723,0.3503110402669035,-0.024604140692366307,-9.736020227212016,-0.008512287324587739,-0.03557189102371777,0.12630907606970068
1746445074.0764058,0.24353519658609507,0.0397375647422535,-10.002641874920307,-0.015578776673909294,-0.04113758955937769,0.12607575950944835
1746445074.0963008,0.19464963657567017,0.13163536949258214,-9.824841754882108,-0.015340031056310469,-0.03860050052039174,0.12619985824339963
1746445074.1163187,0.09683507981639078,0.18308910097953873,-10.098687308317018,-0.009461207926415917,-0.03390317297918279,0.12699687517822592
1746445074.1363404,0.3813631335524811,-0.061196809793975585,-9.624577018316558,0.0007709870957686425,-0.028222793009268686,0.12491136507857503
1746445074.1562493,0.2720647721153475,-0.01522080905441113,-9.803844049256655,-0.0034914076670609626,-0.039121842847842564,0.11906545975972913
1746445074.1764605,0.1269524317653391,0.18224270280409638,-9.897147153484596,-0.002821556588276898,-0.03795805449643489,0.12002735923080511
1746445074.1963243,0.26048458780967676,-0.014684941567944226,-9.762970148990853,-0.0036347829647551543,-0.041481152691470076,0.12227662793323438
1746445074.216278,0.10403098683152298,0.08558073755020716,-10.055649263773047,0.0023205126281592844,-0.03720814931146367,0.11823327562618069
1746445074.236404,0.320401305350096,-0.0315038323914257,-9.656862751984919,0.012805015883793121,-0.031142651879937068,0.11531561573067278
1746445074.2561567,0.2532634623786654,-0.05983635396921406,-9.71242619981398,-0.007403697812275365,-0.05037418141675512,0.11939107623724435
1746445074.2763267,0.30690129124154353,-0.07244152435095799,-9.616228260872317,0.002560111918044641,-0.04369072236881414,0.1107165739651484
1746445074.2963033,0.1514714524984119,0.066143086082698,-9.836055031118796,-0.01134820340617893,-0.05922146004407645,0.11486998100699314
1746445074.3163443,0.13215590246528516,0.17991041046787282,-9.785683692292626,0.001500155338625931,-0.04915568658045709,0.11495638514063543
1746445074.3362641,0.37242320832052367,-0.17826130375058502,-9.546435169840493,-0.01184225061018454,-0.05520820764026197,0.11527764018526693
1746445074.3561697,-0.022962900186533963,0.17587487526241907,-10.03956902268556,0.002288200079973715,-0.054880203947979524,0.10989904209736931
1746445074.3763285,-0.0011972771165110752,0.18639532585863133,-9.972461204081238,0.0009314010648388206,-0.05463343208347411,0.1099909197465005
1746445074.3963132,0.3488134777791183,-0.162958520211541,-9.534358985774007,-0.0015359770144034058,-0.054882160120834494,0.11447568074446235
1746445074.4163508,0.13390438590733728,-0.014930134864774673,-9.854660424555881,0.0017736543174513195,-0.051743340852255286,0.10803980769961218
1746445074.4363039,0.1008073544974317,0.046860672480127714,-9.903241592866873,0.009670656296142398,-0.04748103803304677,0.10956913312455933
1746445074.4562674,0.225193018114855,-0.09373106300455689,-9.579624708522292,-0.003255436063583772,-0.06143144954887274,0.10863106916249546
1746445074.4763012,0.1089021221530409,0.0035090572269810185,-9.776008025887968,0.007021672029322922,-0.05291892959830891,0.10711207492306064
1746445074.4963062,0.08534738196553054,0.0015030029719910777,-9.880799055479695,0.0038812097333404496,-0.052785394478576546,0.10502628457628574
1746445074.5163803,0.16161543660370986,-0.06224319286590102,-9.703138043417832,-0.0044616371128147325,-0.06153641172019427,0.11103340005416114
1746445074.5362902,0.37938511160743277,-0.2729211540736137,-9.422258126089215,0.0015900871182330423,-0.0565665334762776,0.10544815307098225
1746445074.5562356,0.1347660997580304,-0.05685105130855846,-9.63334633179661,0.013329270251574717,-0.0498111334505255,0.10002494991162945
1746445074.5767064,-0.10887970271772102,0.13196411685542592,-9.94537955190956,0.02439860150417239,-0.03675015797813425,0.09635638003064755
1746445074.5963237,0.1261412597076845,-0.10287349985957876,-9.69586719458792,-0.0028853945098073425,-0.06000955198522485,0.10316563387153457
1746445074.6165094,0.09284036689180947,-0.10881282708871898,-9.74142164210204,0.003634556295149212,-0.057684855780051475,0.10113854575129815
1746445074.6363823,0.06225958950476777,-0.035580349472494055,-9.806519302686473,0.011780806590505212,-0.0518563773602592,0.10147591824960929
1746445074.6563287,0.15069505285151816,-0.2582495213634121,-9.603319223396504,-0.005423042692790464,-0.06364560630521052,0.10022512139494473
1746445074.6762943,-0.2767179586794359,0.27735135795930765,-10.054788704949928,0.01156376190078265,-0.04873540066963804,0.09725654336759018
1746445074.696329,-0.07046384775791721,0.02080076492237952,-9.869494757090406,-0.01010093420760484,-0.0656310951278199,0.10182676062407137
1746445074.7163005,-0.3515466961236073,0.28741140057556447,-10.221054259332767,0.013225233014379913,-0.05376938433790817,0.09447826186327614
1746445074.736295,-0.033527602603047366,0.029260968298605163,-9.738610649725699,0.004504865244848984,-0.05418893689342748,0.09857066802899817
1746445074.7561562,-0.12392056157085674,0.04856172771070643,-9.795451457361104,-0.011970634924303074,-0.06722251614019122,0.09805380740400774
1746445074.7765882,-0.015881909256348456,-0.08549611475736354,-9.738529148514065,0.005660985914419598,-0.05169409153672549,0.09229979570785088
1746445074.7963185,-0.46938066703220327,0.3545626097048524,-10.270090364783536,0.00679264642158259,-0.051012207288436674,0.09224922928893234
1746445074.816346,-0.013439460130360459,-0.05995356114974901,-9.669160032473084,0.004214642105058183,-0.0530039309923538,0.0938413371328106
1746445074.8363771,-0.029736010788248057,-0.035604100351726245,-9.620167733888616,0.0068961214233498255,-0.04966352940158582,0.09118776143102858
1746445074.8561373,-0.1599857647418199,0.07369996703758061,-9.783693379295029,0.009618150554531016,-0.041146542238361464,0.08840692022065039
1746445074.8764725,-0.20687817472709683,0.051342397121290746,-9.842370247688246,-0.007234114001598825,-0.05725013793979257,0.08664666200138638
1746445074.8963127,-0.5104000214262466,0.3218458312066256,-10.212717758725558,0.007190796379260192,-0.04564811408909908,0.08911944833312664
1746445074.916406,-0.22309082164512875,0.06701663119131865,-9.87241113190972,0.0017184315890139143,-0.04955574440367806,0.09000953249718473
1746445074.9362988,-0.42705512650248184,0.2813735389583866,-10.1476257576555,0.0027642004330227085,-0.04855051071672691,0.09187688157278415
1746445074.9564,-0.2362448247474923,0.0042553762589362595,-9.839683377155135,0.004979555676589908,-0.03797370153524266,0.08285916614226314
1746445074.976322,-0.1380811172773978,-0.01214871804366843,-9.712056969340075,-0.013785110076278697,-0.05414683880168441,0.08803966245295945
1746445074.9964347,-0.21395460524679297,-0.03426113005439568,-9.86467490720294,0.004923440127420943,-0.04057656268134577,0.08608626262499018
1746445075.0163167,-0.2113403924654618,0.012970400132901051,-9.837899040271273,0.0016409040677286741,-0.04548669543271091,0.08666440947572582
1746445075.0364132,-0.26958403649288754,0.09284061900230173,-9.882495817927579,0.004962138826201114,-0.042045780601668824,0.08550976386967633
1746445075.0563407,0.04798323518706102,-0.246174170804224,-9.422718117563699,0.00728361700764797,-0.030147388428048535,0.08030831435967467
1746445075.076365,-0.27231039632839316,0.07392939229990558,-9.700269654788514,0.006189936450420654,-0.031235569110387374,0.07987121377124533
1746445075.0963945,-0.31072409938255996,0.0423854745941082,-9.89133274265526,0.0009778767183006814,-0.03980375632659801,0.07896237757054174
1746445075.1164072,-0.3516651264287161,0.1495541204861223,-9.877599572189219,-0.0020545117381856595,-0.03669448739081558,0.08246075092152254
1746445075.1364346,-0.34570651203696523,0.1097783480311198,-9.950002918035949,0.005008803841482194,-0.02862825459778736,0.07960276583763934
1746445075.1562333,-0.3828926321921647,0.09710331937759317,-9.94145940873162,0.005643556676424059,-0.019845110063242504,0.0763480468093518
1746445075.1763895,-0.3720009941919462,0.14528748321401463,-9.927526429446688,0.008771857810211628,-0.019545233182943853,0.07373717899274275
1746445075.1962802,-0.3317811224955336,0.1620211746424371,-9.775423108201354,-0.007653487057219743,-0.03144888837544185,0.08028715808522388
1746445075.2163737,-0.4310932017916267,0.12127416907421765,-10.025017561129301,-0.0005978099790577948,-0.02391783525264005,0.07815790228626143
1746445075.2363434,-0.2947647478360591,0.011860047349012512,-9.834395456197136,-0.001832980876538516,-0.02529550045874574,0.07813268033634192
1746445075.2562084,-0.4109961181823387,0.1629332018545194,-9.956704707634094,-0.00565069435582013,-0.016423696233546656,0.07091032920546833
1746445075.2763643,-0.3854538529830398,0.09259073510532431,-9.917355195851766,0.004455556736370694,-0.012494157811860977,0.07037477591763171
1746445075.2963533,-0.2951231039328768,-0.04567843269848096,-9.92534739154858,-0.003913762164659173,-0.015153082402558573,0.07165019395636911
1746445075.3163462,-0.5460002873350263,0.3195357241244141,-10.025168289474795,-0.005167709512090109,-0.015427927830191934,0.07361397549889975
1746445075.3362944,-0.4486914524536622,0.19140054446779425,-9.954019690500138,0.009480291320166239,-0.0067216116964441625,0.06982343673283749
1746445075.3562284,-0.19685790099243403,-0.08574774359985797,-9.628241127262406,-0.002110757262193123,-0.005074115869468593,0.0707483678370188
1746445075.376311,-0.4503972238982019,0.13960747944187984,-10.003184895741414,0.012110435429175503,0.009525163105926588,0.06737856374081191
1746445075.3964417,-0.4626826702403517,0.2526895167176073,-9.957093641389566,0.002603379242198653,-0.0008185203575709103,0.06876944070243281
1746445075.4164636,-0.32070221544187827,0.026660518967348893,-9.797059755876598,0.001386942254364012,-0.00014247850174402613,0.06979148284110202
1746445075.436367,-0.27311985241620446,0.029940559492099172,-9.681039157954526,-0.005645418679529137,-0.0035042422100583985,0.07401641513869965
1746445075.4562058,0.15539154109849102,-0.49150844472730826,-9.3006801777236,-0.002389317534499015,0.009385856509058614,0.06741542206648107
1746445075.476427,-0.28371054646816185,-0.03871765460926817,-9.884223284372322,0.005293088070568056,0.016258812855645448,0.0647597520912363
1746445075.496394,-0.4608433115515081,0.1706782905836433,-10.037416166602156,0.009905173878540405,0.01800887028737078,0.06254155852324897
1746445075.5163565,-0.4351684392510503,0.1239386202491446,-10.020074928251093,0.009033581166842943,0.021068571640507853,0.06328521270231104
1746445075.5363443,-0.2911787377811348,0.0003500827175030759,-9.851488169984778,0.012670087446934247,0.01693486717490842,0.061901942954170334
1746445075.5562983,-0.17083798963308672,-0.0857851773443917,-9.642075255286311,-0.004232966908323156,0.017498547508212416,0.05940789703360973
1746445075.576457,-0.1837002312200013,-0.1619500514838519,-9.729664864408223,0.0010894986811560855,0.0200962170925107,0.06139368454192201
1746445075.59639,-0.14508497058011835,-0.1144240161134232,-9.589015347017966,0.00948961233807365,0.024761105765969196,0.060555499240045385
1746445075.6164079,-0.1263510720892625,-0.0911779509566478,-9.505551880231693,-0.0019083151310059585,0.01603350665907418,0.0611994929204613
1746445075.6364202,-0.35135727528702926,0.11614128242229345,-9.855686481483984,0.0021827514647297518,0.021917462036723612,0.06186312587403367
1746445075.6562414,-0.16970552630349928,-0.10458629722047011,-9.799801058815605,-0.0015037011452672805,0.028849294234707907,0.056727915728814915
1746445075.6764,-0.18385788249155668,-0.09323885022440476,-9.803577738007084,-0.005009163956782956,0.027027111604214567,0.059027357160360734
1746445075.696362,-0.24161403793754077,-0.050672601848853756,-9.88290973803026,-0.005435689608485414,0.025838862517319976,0.05983805101200517
1746445075.7163372,-0.31776229410458534,-0.004372935923271676,-9.95613187079142,-0.005668854469406755,0.0270659057170914,0.05735785884968059
1746445075.7363272,-0.3446954973284329,0.10286299799897258,-9.877240878583205,0.00489316817767735,0.035069724470026147,0.05634167293429406
1746445075.756267,-0.30043990997842457,0.09252476974521359,-9.939914992695801,-0.009145861606419116,0.0329595170047851,0.05537452869847564
1746445075.7763937,-0.1947789275956413,0.04775981845451835,-9.728143344525883,0.006989364360927634,0.044501295555404045,0.052953369539593495
1746445075.7963748,-0.08157494714725864,-0.24040645254299361,-9.845754585274689,-0.005866754947557557,0.033102919018394086,0.057165627558059345
1746445075.816401,-0.23926215969020492,0.029405470449622023,-9.886314003317601,-0.0032617208695054026,0.03500887896532119,0.05492898808275242
1746445075.8363135,-0.23005993624014648,0.013620375690068402,-9.843493409933503,-0.014585766729067171,0.02897777861610825,0.05744100712192315
1746445075.8563278,-0.1164259516719797,-0.06833593366616256,-9.768858354606195,-0.0014959251249079505,0.043981484357094244,0.04979391775027496
1746445075.87636,0.2217928016831298,-0.3928131858701825,-9.393755634954438,0.0018774998109920222,0.04762186196401907,0.04789159245350015
1746445075.8963246,-0.2668608932833943,0.11148930247471511,-9.954060753801745,5.1557235086720145e-05,0.04771509489674671,0.04949055677832664
1746445075.916478,0.022698946908498135,-0.1986342508936342,-9.528242934907128,-0.015258646361503182,0.03861429618204676,0.05175368525882661
1746445075.9363298,-0.171671980540764,-0.08717466578285098,-9.966732069192505,-0.018841526808134824,0.0322200060456687,0.05292195177561766
1746445075.9562297,0.04755538423127928,-0.22910913872022975,-9.702295621446018,0.008363307648498054,0.060031945958449816,0.04507192400132017
1746445075.9763699,-0.15238173117247494,0.09715105157775342,-9.805855888228127,0.004168179256599007,0.056505659390784314,0.04513113587349383
1746445075.9963796,-0.14734059573656655,0.05516334440570741,-9.948556624056444,-0.014855770434649166,0.04163349533088298,0.049641157354161344
1746445076.0163963,-0.17161259673591245,0.06897964917872326,-9.891703839966551,-0.006173373385822445,0.045334266205584034,0.04662334056646693
1746445076.0362906,-0.21012226228413156,0.05134853011877877,-9.93047705177023,-0.005230031703676016,0.04991790578952719,0.046682112764327696
1746445076.0562575,-0.12839406867530137,0.04835691128818309,-9.940041129264305,-0.011468743105260724,0.04849333661222448,0.044379231156701414
1746445076.0763175,-0.13187316829401294,-0.0046977356224220945,-9.966116842907672,0.004161782222165299,0.055725249025506206,0.038387857734076554
1746445076.0963192,0.03316890273280834,-0.07519796550410476,-9.691550487985278,0.00970486877522252,0.061919088466872545,0.04163541300649581
1746445076.1163511,-0.09222318510576463,0.07436328016190175,-9.802343535824917,-0.01190902846340449,0.04311935633077816,0.04240211955524089
1746445076.1364415,0.22971446630451262,-0.24324946253544982,-9.389535425413188,-0.0062048232969538555,0.04855834540331071,0.04541085258162303
1746445076.1561987,-0.0818267880392751,0.08116537319105338,-9.89009701337899,0.01046952839889023,0.0635197906460167,0.03697363795243045
1746445076.176584,-0.259608086714758,0.29976743334892386,-10.092856635619091,0.010718725204743351,0.06570953175102563,0.03669043056475537
1746445076.1965523,0.09000631338106942,-0.12682107479204277,-9.780461394712834,-0.006164437522083822,0.04588066943293392,0.039723819746814486
1746445076.2164633,-0.02408791088969183,0.021092223693547345,-9.857569224776777,-0.0023880266061543855,0.05120752049306874,0.041072685862997976
1746445076.2363508,-0.018861496461886333,-0.019233758703853944,-9.87053472132375,0.0031646610657357363,0.05771891999611762,0.03838463107613424
1746445076.2561705,-0.013992250893413799,0.06247039780867043,-9.964504477391111,-0.007257213326663436,0.04702575592864124,0.034777563533905494
1746445076.2766218,-0.056600571306331726,0.042242169901063914,-10.079434812986696,-0.010283391530973766,0.04665653541380784,0.03692596456525946
1746445076.2963111,-0.1534480230956315,0.2108842965404001,-10.138771439230318,-0.007447472512368452,0.045346456472988406,0.039980230643647925
1746445076.31631,0.056017624552055445,-0.03671399741213035,-9.834403402517621,0.01238089077176411,0.06233136234976864,0.03473316791590075
1746445076.3363397,-0.0641499390149934,0.0841461075999792,-10.033095179284246,0.0014538932696497172,0.05337810801632524,0.034056260323172084
1746445076.356176,0.19423173693990842,-0.09947664663911021,-9.755345446177904,0.0022303102754731886,0.04901113008714052,0.03238114329114031
1746445076.3763626,0.1509705124844326,0.025923827826312834,-9.728422352567783,0.0008660566167693156,0.05132347656662728,0.030615588220850417
1746445076.3965492,0.15342400067568912,-0.01838211449694811,-9.654177507723334,0.0029328734089764134,0.05399462160517844,0.02848023228272132
1746445076.416494,0.11702092508384572,-0.038140527885442935,-9.819562872891156,0.003887449283216139,0.053518020624609246,0.030645033608076397
1746445076.4363284,0.13542195785013825,-0.021714347797737846,-9.824876595136743,-0.0036368066235247173,0.04624109958747063,0.03219863412450183
1746445076.4561615,0.194795689771066,-0.02113272002345642,-9.746555629717484,0.0009264929641415644,0.04351146014114862,0.029134048650595688
1746445076.4763172,0.015546640472843876,0.21424805436745104,-9.883865514697012,-0.002009487043913891,0.038032781880325016,0.02791987215410625
1746445076.4963202,0.23117895552948908,-0.08079892663657563,-9.749567340663283,-0.016158951481099724,0.03138720271415358,0.034780127164070376
1746445076.5163083,0.1961845696095066,-0.061805551131823816,-9.763428537789276,0.004739780809461766,0.05151830336579162,0.030732482075954904
1746445076.536676,0.12246916479142672,-0.02094591530831217,-9.920792735281793,-0.004158210546459977,0.040628404712218597,0.03031660025862057
1746445076.5561998,0.078792035469336,0.0430406250429761,-10.03066554100434,0.007000266812300827,0.04266791933247102,0.026819705465248204
1746445076.5765808,0.2839182056032088,-0.18864920892944576,-9.829535336852265,-0.0001332112739861861,0.035284518430465324,0.0260716865364085
1746445076.596316,-0.009584485299817619,0.19255268493998104,-10.105320532499377,0.004134469235623979,0.038210016032703964,0.028667174337297565
1746445076.6163611,0.3003706815502547,-0.1836284354859364,-9.75885456727528,-0.010662312092346006,0.02887172719092176,0.028561973166303246
1746445076.6364493,0.40296189414347416,-0.23126380477797562,-9.568926169608206,-0.00166551617382452,0.033048384797547355,0.02849775017484787
1746445076.6562564,0.12831052212244085,0.04538824462115457,-9.96800944607547,-0.0009465848480464054,0.026442944239216386,0.02425068405061613
1746445076.676296,0.4123384379763424,-0.23948852058909265,-9.630456605813055,-0.004837382414400781,0.02165863605440782,0.02140464382763537
1746445076.6963065,0.21381591534315458,-0.07464038437267123,-9.929996887237387,0.00721552833319076,0.031519960273660795,0.02143208893178719
1746445076.7163093,0.4741654578676483,-0.2888124066475828,-9.57329403114583,0.003550737189887718,0.029799655330291018,0.02167616805749803
1746445076.7362726,0.14296999456703663,-0.012038375858777166,-10.045125283666847,-0.006627106946752111,0.020598090983357624,0.02590895818909447
1746445076.7561672,0.28831710036234925,-0.061368506253886033,-9.780632192203134,-0.00690500460314404,0.01202124991836508,0.023174623067454454
1746445076.7764275,0.5807228906666694,-0.35638943109217597,-9.422166945351574,-0.0062288844795106765,0.011013980516325116,0.02270405432678976
1746445076.7962809,0.29702255589308535,-0.058306401470363124,-9.717664716672097,-0.0024236135692937326,0.014793461002535415,0.01912239561677225
1746445076.816327,0.23162761359588127,-0.00018831420394722215,-9.794907202624621,0.005660989796993556,0.017665054052685376,0.020991755750831908
1746445076.8363142,0.39586914288427455,-0.1477848699154138,-9.592505767162319,-0.003905147373135318,0.0125979426343805,0.019694684622481883
1746445076.8561707,0.2400146077644911,0.005258021394047314,-9.818254404940642,-0.006291999554573568,0.003015141659930361,0.018825351027820913
1746445076.876376,0.10525537272269217,0.1496005290929328,-9.882618309554497,0.008579890794014285,0.01341117797069509,0.01582188739335108
1746445076.8963158,0.19165814187902075,0.005417800504744073,-9.954997032418975,-0.0038360359091774315,0.009061471815644028,0.016701435364841914
1746445076.916461,0.1341988863155808,0.07706068688572192,-10.02951549716379,-0.008391847372046311,-0.0025634145386691457,0.01996817092474956
1746445076.9363244,0.1068336114317377,0.15475632167901998,-9.955390895680155,-0.004903429843706951,0.0056384502308244305,0.01825941728398136
1746445076.956173,0.4615454594437745,-0.21422280231126423,-9.60595137870897,-0.0169736824010583,-0.01373953874643405,0.020035153321498737
1746445076.9763236,0.43628651670676416,-0.11746355192975111,-9.557884500111934,0.001907131726710204,-0.003633391330309028,0.01546377453939352
1746445076.9962356,0.2112614583341507,0.02886548058542384,-9.880601629289943,-0.0012121303339150018,-0.002317454315670612,0.013504298260829425
1746445077.0164018,0.18668732092269644,0.026048350098293933,-9.927088783929856,0.008409919004932792,0.005399112937682273,0.016898655150888977
1746445077.0363264,0.24309469511064652,0.04682609771350295,-9.782440533354263,0.007295748171694569,0.001186651017459091,0.015545995905003862
1746445077.0562546,0.3746952980731795,-0.15631153590615363,-9.673977377087247,0.003704270282149144,-0.010344732188879687,0.011950940554095337
1746445077.0763333,0.16545072176889025,0.04990929198733972,-9.9156486759419,0.006942547857487276,-0.010440393597420591,0.007159144336616793
1746445077.0964684,0.43008712933481363,-0.17708230420133952,-9.561714714117713,-0.013851141250146365,-0.024551653108142286,0.01654835744726441
1746445077.116347,0.2548961633567995,-0.05420267303575433,-9.834493284823528,0.0025520743410396046,-0.01221917096859252,0.012478482187645834
1746445077.1364176,0.2983940682333865,-0.05476572765617435,-9.794965714083483,-0.0031787031387500654,-0.01691884863531628,0.013339387971602017
1746445077.156367,0.031066301745847208,0.18642181850473186,-9.995281326862091,-0.000827461910575103,-0.026819493257445065,0.010854151768352588
1746445077.176362,0.24938739680772992,-0.024924771875678868,-9.75665858852044,0.0036916676942712646,-0.01901028866576656,0.0072523298899370295
1746445077.1962745,0.2853697605298878,-0.09324113193593173,-9.764433885680376,-0.01397661500527959,-0.03177017326095578,0.012585243249216813
1746445077.2163012,-0.019641566704757446,0.19184537531026763,-10.145066592398717,0.004221546986664446,-0.02074577076170267,0.008458287280184771
1746445077.2362945,0.43056163018229376,-0.1968662970873402,-9.44762565997667,-0.00481092036591194,-0.02707529116550955,0.011923702170619258
1746445077.256189,0.17913516323436313,0.04920687677189327,-9.787234154473808,-0.007342821200926507,-0.039709500691032545,0.008670667387579897
1746445077.2765572,0.3193923619175216,-0.1176215958867209,-9.62632319853395,-0.0014737471241346152,-0.03169372994764671,0.008646057641102899
1746445077.2962048,0.11973334545287653,-0.004343524938307454,-9.973503421077176,-0.0016050813527359517,-0.03569753419018312,0.009296023962863697
1746445077.3162966,0.4062728086218212,-0.20440856075468067,-9.572473788091415,-0.011673755093314756,-0.03946288407690029,0.008622486946918891
1746445077.3363106,0.15017187578040214,0.0018678720327103826,-9.794490812612175,-0.008395736935594176,-0.03695641820541917,0.011861493756330076
1746445077.3561888,0.056692103515273276,0.1423273872104776,-9.819948560929088,-0.007654048211535028,-0.044258144545262425,0.00876650685787254
1746445077.3763342,0.12285231104021607,0.002114205327127066,-9.85155313928766,-0.00246104121707386,-0.04108909875828947,0.0049158726673040045
1746445077.3963034,0.049804643707930626,0.08011357526863049,-9.83915962698156,-0.003863763982425868,-0.03359362285674772,0.007581540617003353
1746445077.4164758,0.04656275330616415,0.040720875336652376,-9.942525635028808,-0.0055118105437383744,-0.04622762741038646,0.007939892210916157
1746445077.4363415,-0.08217608479331576,0.16271790919586965,-10.106585270553373,0.005299686414065603,-0.030653378806180617,0.003870612115759048
1746445077.4561627,-0.03267577427849855,0.09134072370751431,-9.961329401921347,0.009071703006147383,-0.038428491562881036,0.0009166686501694823
1746445077.4763174,0.1083742598870631,0.005743420093164746,-9.810905658283577,0.01042936754292849,-0.03507973601542729,0.0013815135922246378
1746445077.4961684,0.23171392889607734,-0.15372918365065336,-9.632565190279804,0.005615266098603614,-0.04031213548964721,-0.0007771745023722539
1746445077.5162842,0.12790832941975344,-0.08285992758060448,-9.86256128823558,0.006307386527011927,-0.038718164753266525,0.005372274724653791
1746445077.5363,0.15595400766777295,-0.11810857158858921,-9.858948620950924,0.0016993847430326462,-0.04086699353317462,0.0018604842559961933
1746445077.5561616,0.05017680201007067,-0.01267447073440573,-9.78949006333665,-0.0007286934039483844,-0.04993512669332159,-0.000468774530824547
1746445077.576312,0.10838432285358167,-0.10187907150148097,-9.793533640555438,0.012614452500405632,-0.03786156381810787,-0.003272388719662354
1746445077.5963378,0.17047690171544072,-0.09368280713978919,-9.62981480523243,0.003336921974762686,-0.044226763657759696,0.001720640445026397
1746445077.6164212,0.21153142135745756,-0.12931798687908364,-9.627455998674657,0.005935997266793111,-0.045995440226495536,0.0009644750169895638
1746445077.636447,0.12291842528243571,-0.1004922654718407,-9.712920799345639,-0.0026567474984721855,-0.04813630371307443,0.004383005438541941
1746445077.6562788,-0.14875349445124458,0.13154372298733652,-9.955189863987918,0.004561497410732705,-0.043361493505162184,-0.0014906151759965132
1746445077.676328,0.06091122935088979,-0.06398868447712017,-9.790232702305305,-0.0018927231842989318,-0.050038669923603125,-0.0028746964346206827
1746445077.6963017,0.04201585958482709,-0.04589921526992272,-9.741877636505077,0.000691446212567335,-0.04876806727255632,-0.0003117612337171909
1746445077.7163358,-0.0034997229233339946,0.004238628164973869,-9.714935440582893,0.016015418305031986,-0.03431472434128053,-0.0037420866725303807
1746445077.736296,-0.19959216122837534,0.18225880059226904,-9.947083597715118,0.017307655239618348,-0.03407617027260129,-0.004475601798242628
1746445077.7561815,0.0933727546957358,-0.18510851858524818,-9.71548422927651,-0.003056370233227391,-0.049900689059189846,-0.006000915903824587
1746445077.7764304,-0.08616184143776737,0.007533758481405632,-9.816874306931352,0.0009447460514551638,-0.045276795623539784,-0.0010133990291461346
1746445077.7963972,-0.002202536876724514,-0.09962620425572871,-9.853976249434917,-0.002908405961842767,-0.050118925747404536,-0.0012119344551800148
1746445077.816274,0.07983985008994088,-0.11081089392523838,-9.563396233212467,0.00328222273350513,-0.04449535658504343,-0.0055821166836005146
1746445077.836325,0.03269195922787182,-0.08268752820557232,-9.660971635148806,-0.001134705645214291,-0.04884687378525666,-0.004460162381140916
1746445077.8561754,-0.0716923052778269,-0.08233670211317129,-9.782747013313646,0.0017312198783076191,-0.038530509587874545,-0.006121547750416439
1746445077.8763452,-0.2134373481938785,0.1120581080131327,-9.892954613680358,0.002755892845282459,-0.04298825672537127,-0.0064837594757773155
1746445077.8962946,-0.14364128260332798,-0.06551290128610947,-9.929539926693943,-0.007626821763627077,-0.046423170156480564,-0.002035990024618177
1746445077.9164143,-0.044006483372721984,-0.032295493940486544,-9.672799916762806,-0.0027262724003056142,-0.046693936772882645,-0.004137030545702279
1746445077.9365585,0.03493686340483043,-0.23063438055697286,-9.740933333410078,-0.006688746909845249,-0.0497375150596249,-0.004922774194703524
1746445077.9561653,-0.021267014394770453,-0.17670667690815367,-9.716093552924706,0.008009820773619525,-0.03569769692927361,-0.005116142128609232
1746445077.976346,-0.07375703886655394,-0.06947603440349363,-9.660827434815413,0.010301009181059499,-0.029338096514904516,-0.007173555051270934
1746445077.9966044,-0.24390857882597664,0.10259359499768508,-9.903185021366049,-0.0031341996156821336,-0.042379668093498635,-0.0033157629518024284
1746445078.0163012,-0.2546179854547677,0.1081244214834336,-9.95830358249572,-0.005939501321172259,-0.047126945357993597,-0.005219239396567562
1746445078.0362935,-0.09812026976257017,-0.03018294595051266,-9.66185401049596,0.006273486358916123,-0.034676141227073465,-0.008973369294986239
1746445078.056161,-0.39856011649577944,0.14480555000753145,-10.117110816819276,0.00441589265645703,-0.02983089459824923,-0.011095799177934473
1746445078.0763643,-0.11154289998157545,-0.08152727567559787,-9.747914140814968,0.007210986675740563,-0.029480825206768736,-0.008089441902854145
1746445078.0963345,0.06623519276246731,-0.27169324519437826,-9.515588478745148,-0.0017832309127557519,-0.03351761338246647,-0.007324672644027271
1746445078.1163623,-0.25883864920330335,0.10099524626156325,-9.79714128437043,-0.009671788188787389,-0.039812738121505424,-0.006751001596954185
1746445078.1364477,-0.6190598705621639,0.37471103551658086,-10.363447653818419,0.00293912243161595,-0.028574026874641133,-0.005333016971677621
1746445078.15626,0.02104518072452144,-0.14677155270125608,-9.358071010222135,0.00029080791127649255,-0.026077639296733658,-0.00936544075325554
1746445078.1763175,-0.06589356842847305,-0.0820397773171869,-9.502222279037968,-0.002210002874882399,-0.027770237524717325,-0.010416484406907477
1746445078.196308,-0.2632679009049172,0.015838736103487287,-9.909482645525326,-0.01352510728056311,-0.03316183492155049,-0.005751844653081206
1746445078.2164907,-0.2310589121136143,0.03846481088409139,-9.783605894521036,0.006414952027607096,-0.025102473166417248,-0.00936543013770231
1746445078.2365186,-0.0018643998797381045,-0.2530154199685577,-9.529127133554082,-0.002692861799576724,-0.028253534577686683,-0.0074207959730062875
1746445078.2561836,-0.3018215255887948,0.046394606716621746,-9.863066190908265,0.0027160068716622354,-0.01584616780729274,-0.013007700001506228
1746445078.2763283,-0.06521253053536061,-0.22950247215156827,-9.574507440716516,-0.00042827640374568945,-0.020094522548310925,-0.011688439872551843
1746445078.296271,-0.12463333925409713,-0.12112532750694713,-9.665478470275849,-0.004969032659232011,-0.020213366708011986,-0.009906928115688402
1746445078.3163137,-0.24953674296102274,0.03832660042037579,-9.810913489793467,-0.002649297386473715,-0.01903729769623932,-0.009786575193902176
1746445078.3363082,-0.3107739966267761,0.03504248700293223,-9.973691447855419,-0.006095549870091343,-0.0211290966899139,-0.008777129852741466
1746445078.3561838,0.01362090571547861,-0.2197012787572749,-9.405294147630155,0.004902994675776359,-0.00022208636308511213,-0.014961624973383755
1746445078.3763375,-0.08045837532892525,-0.19665663721039894,-9.623324108472241,0.013770437027186042,0.00224043730746247,-0.015334627617052725
1746445078.3963299,-0.26590726979744217,0.01922204787071441,-9.761013720329125,-0.010544071427351984,-0.01692821426393191,-0.012595174192222499
1746445078.4164362,-0.40577777781484814,0.16184309177863115,-9.988070188084661,0.0014140454480119156,-0.005795077739385925,-0.013353662890320259
1746445078.4363391,-0.17738779193764279,-0.04582108396106843,-9.647192462116863,0.0004560127415082179,-0.011065345161160011,-0.009308015088439528
1746445078.456172,-0.0735667491020719,-0.18693835966321154,-9.526753014815576,-0.005498145185706998,-0.0026941161217349826,-0.010615921220527944
1746445078.4762716,-0.39639181894046954,0.12108251431621275,-9.966290277170357,0.0010006268143690244,-0.0011231525688525977,-0.011661902239514315
1746445078.4963346,-0.06998579323949075,-0.15193702606249546,-9.598221880709891,-0.00031422775950292543,-0.0020729900255509115,-0.014553396486644355
1746445078.5163603,-0.2492323424295258,0.0012721988395854242,-9.736035891119345,0.01479816973972289,0.013159282104680156,-0.018709498166903184
1746445078.536627,0.008176404741795484,-0.2506379600058327,-9.513862186762458,-0.0015512177904541103,0.00042471504074644765,-0.013396171173940246
1746445078.5562854,-0.35859231755352966,0.14019648628291032,-9.945631887863444,0.005008015347489599,0.014983593385406602,-0.018427855192312825
1746445078.5764863,-0.47007187938623557,0.2438967901432407,-10.144228859866589,0.00613965199719642,0.015633518285199918,-0.01641613259721743
1746445078.5964804,-0.3966625540053428,0.08925876698916564,-10.042386406753542,-0.0115516763865743,0.0016265959355429875,-0.012823025662207315
1746445078.616306,-0.2540704664060347,-0.06261584139436083,-9.847473738867414,0.006539127828906017,0.012921465943355666,-0.018429987660530205
1746445078.6363895,-0.27114731336889675,0.05745280408788113,-9.747982355169464,0.015398290181363579,0.023075085203208338,-0.019775412005716517
1746445078.6562984,-0.3042418640601231,-0.01366102714711117,-10.031358689847066,0.0017699783888257476,0.02221911388057552,-0.018786805715773007
1746445078.6766152,-0.44238196802246293,0.1559360585955657,-10.076607889058428,0.0021259618374795215,0.021259887039103243,-0.015883114070892896
1746445078.6963565,-0.38251345058817954,0.10064804310496837,-10.052477417291964,0.015827113914436478,0.03009400421132164,-0.021862207282286703
1746445078.7165835,-0.2064470688493259,0.03125259405388395,-9.707672104728193,-0.0013523985592776417,0.01862286554034099,-0.0157053551025212
1746445078.7362952,-0.22327755436231495,-0.003758207410686769,-9.831924619454217,-0.0029819088679913985,0.019949890568562424,-0.0174586899054364
1746445078.756192,-0.18004162736574614,0.02259081436201287,-9.768192691043598,0.0035773161291333894,0.03338892468396478,-0.018911261376652035
1746445078.7763782,-0.30348874390357217,0.1105664511121654,-9.94081152719993,-0.0017598505726297011,0.02660118472265801,-0.018998886258660235
1746445078.7963002,-0.21811807857465737,-0.03224213490770132,-9.81844292529287,0.0030407507024748743,0.02526748947343355,-0.016733745511027416
1746445078.8163135,-0.43976603470431597,0.26988925975230643,-10.090735304024092,-0.005848128724806246,0.0233520324321066,-0.017347572882571084
1746445078.8363538,-0.1871058185442588,-0.04676555417254204,-9.82993073800044,0.0007916088041074168,0.02677705002133974,-0.017620799658577494
1746445078.8561974,0.059140277768539695,-0.21108631939937947,-9.535324419188212,0.0016621313977879743,0.036003037879684514,-0.017059983904114107
1746445078.8763313,-0.27091100951064506,0.020836750385396237,-10.01783347022211,-0.006784056789656162,0.028894185897609972,-0.015024434809219011
1746445078.896303,-0.1509858828834254,-0.0797150485462449,-9.879461941523894,-0.002598264961157781,0.032107691619126126,-0.016069197055197538
1746445078.9164102,-0.2194884097988364,0.0444059819841515,-9.816968151606657,-0.0035079170879738393,0.032558931257904565,-0.016834625808663236
1746445078.9363196,-0.04626462215046187,-0.15109690293787997,-9.742359039416801,-0.012356418634286864,0.026867972495575092,-0.01613281520466939
1746445078.9561763,-0.03752191862102698,-0.12078795243692739,-9.690931641135187,0.010860011811925028,0.04812245020659266,-0.019991978348311068
1746445078.9763086,-0.3326388615758406,0.179210432101018,-10.15289609300994,-0.002334444808555763,0.035434740909035006,-0.0165060627253777
1746445078.996263,-0.39088481615249926,0.22532852409725784,-10.171464263909757,-0.011054944623294715,0.029775576675644143,-0.01592932240406437
1746445079.0162833,-0.28179782302312806,0.11084127729180722,-10.004042320455959,-0.007365228810365833,0.03382835254963111,-0.01904513917407534
1746445079.0365696,-0.0011624893257520669,-0.23136088617940537,-9.786504305498704,0.0023344855226797336,0.03925197968527356,-0.018058402308161844
1746445079.056173,-0.22816978766811574,0.06753032884046375,-10.081607209980875,-0.005963482500601435,0.0323272850921094,-0.01975272150262613
1746445079.076305,-0.16986280413434282,0.06137673906950651,-9.919047236245067,-0.004600698462312232,0.03646784556871943,-0.01911714325752228
1746445079.0963602,-0.13070871345153254,0.021560141954059427,-9.861331014912059,0.012318368651646453,0.05241369036295236,-0.021942259918659807
1746445079.1162338,-0.0247855478697364,-0.09666738696911983,-9.753137510378828,-0.005659212179759116,0.03735416654633113,-0.01978101177195089
1746445079.1364293,-0.025357754831155835,-0.054364137623095145,-9.735310962320202,-1.7192322174637738e-05,0.04197451749556312,-0.018410708513972297
1746445079.156186,0.07550742831280328,-0.09998651139302486,-9.646716636438859,-0.0001082952602794447,0.04310241985904636,-0.026261132237651374
1746445079.1763175,-0.20698249835666616,0.12322121082786062,-10.096730950381081,-0.001793803710575367,0.04210078412720425,-0.022726492048325442
1746445079.196333,-0.11302135903154051,0.06636536113269359,-9.99252608224098,0.00774041327147956,0.048657416904187095,-0.02200605787260764
1746445079.2163086,-0.07824720661195608,0.07679340785336884,-9.87923660397904,-0.007257546717381048,0.043237026739592684,-0.019983595715493525
1746445079.236229,-0.00839603417280687,-0.10533600843922976,-9.778675085755985,0.0009747837825440123,0.0472176287769883,-0.022563961896564455
1746445079.2562106,0.2552665774313374,-0.29685841154707315,-9.502858765212599,0.00816554824518598,0.05184065348017428,-0.023299439590385954
1746445079.2762995,0.05549575712490566,-0.07476965606016847,-9.761929595029258,-0.007164893582861795,0.036690650129097134,-0.01907197224183455
1746445079.2962956,0.23436747995695395,-0.2593504057350524,-9.616202871824415,0.010047145445263844,0.04970237356000689,-0.023407376045145138
1746445079.3164172,0.08112061715498689,-0.11543982531558976,-9.829546217957843,9.590497340626375e-05,0.04227255432527531,-0.020986044047287145
1746445079.3363173,0.07758460237239227,-0.12693644505261764,-9.821066268694034,0.00454461357459306,0.04732246043695374,-0.021890811345104122
1746445079.356176,0.1180442933421513,-0.06498749475394967,-9.70509705343345,0.0019013249528365018,0.0455805347779057,-0.025822165785848686
1746445079.3763864,0.16849851273819613,-0.1360216901711264,-9.69283062765425,0.0014778619608926372,0.043213325932549236,-0.02221544846188402
1746445079.396301,0.23865181819976833,-0.16471800997784014,-9.572818896172123,-0.0033380383193714063,0.03751351529024107,-0.022246658317034127
1746445079.4163132,-0.07704976152308407,0.1298084404944943,-9.985006112985218,0.01013981597650969,0.05278354684290067,-0.023039621414305867
1746445079.4365692,0.18110020602440152,-0.13405008304383959,-9.636853900315717,0.0020922737082274103,0.04494287552247942,-0.02425669039717461
1746445079.4561763,0.02878223980108785,0.022122245816663954,-9.91235072816549,0.0017636631498087955,0.03962861522543866,-0.02291092786406515
1746445079.4763062,0.12730777326166165,-0.07521954317306206,-9.772238031552774,-0.008885282781307369,0.032159232568145034,-0.02245030761056405
1746445079.4962924,0.10963875362258185,-0.09658473096888257,-9.895673136550572,-0.0003935214779019707,0.03991974355577686,-0.022238541900151152
1746445079.5163362,0.20613422894238476,-0.115021399508837,-9.732444024671178,-0.009355822858610715,0.03186003643266874,-0.020951043441054463
1746445079.536504,0.2791538448218781,-0.1998674296852431,-9.606756392378859,-0.007422821127896024,0.03682782274119736,-0.022732787772473173
1746445079.5561478,0.1156546122191061,-0.052922860071560475,-9.911696844688638,-0.00943004452170653,0.028926684885352386,-0.022922977150260763
1746445079.5764039,0.3958903742739508,-0.2166784306939016,-9.422223491898867,0.021074651021128144,0.05391026725588226,-0.027886101475820282
1746445079.596302,0.3240326806365367,-0.2836817809960472,-9.659413117065654,-0.0009253400851522342,0.030050574690649513,-0.02697136596300418
1746445079.6163123,0.020084612326402032,0.06152099624871421,-10.00045798712962,-0.008290091937135152,0.02819694650687008,-0.02121160017835966
1746445079.6362996,0.18831350928858367,-0.09909263901079035,-9.779109801577892,-0.015712857882845342,0.023591342102601238,-0.021845904046337558
1746445079.6562796,0.19019006419317896,0.0013262553203362074,-9.733810261543018,0.0022852502877504337,0.031582477159551925,-0.024240999689061904
1746445079.6763134,0.2068756884082117,-0.07638722642227644,-9.73996275576959,0.007334416293900689,0.034024990658986794,-0.02515386228242074
1746445079.6962962,0.04592383284041571,0.021659529336135852,-10.035163359930102,-0.007444508139897592,0.02211307478080423,-0.022040728102565264
1746445079.7162876,0.11351557220391696,0.0039891236865873606,-9.934656474445744,-0.0011233576063351845,0.024368242395534312,-0.022975832127304963
1746445079.7362971,0.08208863676365954,0.05956872765567989,-9.849976071165845,-0.004906775498964094,0.023819627126376447,-0.023677467369386907
1746445079.7562256,0.12726069394372258,0.04240041446123485,-9.919033248221782,-0.001176281709236694,0.01891835828999808,-0.02321620640412948
1746445079.7763908,-0.06625556455155446,0.17938174355868802,-10.113615565857641,-0.006742936088668229,0.014057229436255939,-0.021864192476818686
1746445079.7963326,0.2666538594402258,-0.12488475440371558,-9.829797890731086,0.013848621128860166,0.03128799805721273,-0.02697382310097136
1746445079.8164492,0.2738917177445219,-0.09881150543175418,-9.626016851456756,-0.005531222965459457,0.018866521599179967,-0.023958081630135526
1746445079.8364115,0.20868997063230685,-0.026364049765195356,-9.785689714535794,-0.0001739382756956317,0.02103989360421605,-0.024681770867222237
1746445079.8561883,0.0968578389529867,0.03266718519387381,-10.008776412025135,0.005318345053037297,0.016347308911158286,-0.025204785122997776
1746445079.876314,0.14063028876058156,0.009360512517612832,-9.910494032079955,0.0003150223348685304,0.011691299058438173,-0.024253119020084184
1746445079.8965824,0.08491381492788956,0.09149861076414635,-9.931280415274722,-0.008141442652461025,0.0068541627024336,-0.020499076657992818
1746445079.9163573,0.2240799410955281,-0.013149413531874727,-9.770277077706606,-0.0001544448153592449,0.010113068784676904,-0.025142424152981725
1746445079.9363706,0.15437926097234878,0.008736596316346181,-9.935044315913045,0.0005969551157792565,0.014325589101886707,-0.0229721717773049
1746445079.956188,0.23121025246373839,-0.11781170370908438,-9.920728677579223,0.01011063511442561,0.007764507701417235,-0.030867798576366248
1746445079.976358,0.22513538773588382,-0.11469803977020254,-9.906847491959137,0.011194763483239606,0.011180323175715618,-0.02784355264307992
1746445079.9964168,-0.01291845839383704,0.21161580643707228,-10.059706249882204,-0.0008033941437388875,0.002103492024225318,-0.025092008709080422
1746445080.0163329,0.22590677061402517,-0.05113686936035444,-9.758498005078232,0.0037090425673695295,0.008457128609256362,-0.02575951734615642
1746445080.036372,0.392165792911637,-0.23967755119740936,-9.608940620175435,0.010644907381927252,0.012656319842544088,-0.027557108855881016
1746445080.0561788,0.49453743411261575,-0.3007697490056568,-9.380682379259403,0.005262250421175515,0.0010799701939221244,-0.028836722893707485
1746445080.076391,0.35256202727669594,-0.16042948549847338,-9.651149388115348,0.0032539812629152364,-0.003920789964594187,-0.02212498722871994
1746445080.0963914,0.0882710430613565,0.09188581526552558,-9.981791917152519,0.005289968603072765,-0.0017891788149235841,-0.02857553745684035
1746445080.1164439,0.33330246023792376,-0.04231966034594167,-9.579012917255001,0.003518421121192615,-0.002846487847928119,-0.02598652054306753
1746445080.1363764,0.3277007831400183,-0.12122055407461463,-9.690958262916247,0.009459656507284801,-0.0013075702111239387,-0.02823115120425613
1746445080.1561682,-0.047532584505556336,0.3338581332769521,-9.983021262016539,0.004129017933828636,-0.012431249116386356,-0.02703762634026482
1746445080.176325,0.08171478126086798,0.12500850584464962,-9.929937153592284,-0.0004611577280009385,-0.009568731180544975,-0.025130532177686578
1746445080.1963866,0.3116990020718917,-0.09044265725562914,-9.565849269005248,-0.008116410717035677,-0.018267723560019416,-0.0238165157184583
1746445080.216512,0.36705526120849086,-0.18251006644013307,-9.556715137596365,0.009774394325397943,-0.003728904365912729,-0.025743304127071303
1746445080.2362633,0.11890546808381357,-0.021808210896890428,-9.982540866091306,-0.0029926571906811086,-0.011381987605016082,-0.02145162174108365
1746445080.256242,0.2907143346423028,-0.15950290616735208,-9.658658404784761,-0.006929780532938492,-0.025505065613044497,-0.02475474487000977
1746445080.2764251,0.18202500233064633,-0.08546111491542027,-9.910970553302851,0.0029787435768339333,-0.020562438875766968,-0.02819405946597534
1746445080.2963176,0.3703486650001444,-0.2192578366331595,-9.608192180546885,0.00574556985042868,-0.015615808850695497,-0.024732671402595222
1746445080.3162968,0.01775272073315648,0.09617261668315442,-10.046512317132231,-0.009262119873576556,-0.023068698899158517,-0.02319676196675389
1746445080.3363037,0.24170693640265273,-0.13575843215369493,-9.722312039267475,-0.00429370966079105,-0.020941539084434455,-0.024723399035295687
1746445080.356201,0.2410478102533724,-0.1451988807887334,-9.74793438498197,-0.011643142910894624,-0.033535027651780416,-0.023248972474555735
1746445080.3763974,0.10892158741136061,0.12486173262180349,-9.658131990131182,0.005241606922962267,-0.02008501173511213,-0.025783591664954707
1746445080.3964207,0.028254579485347486,0.14454545801097116,-9.90373560415283,0.006469616715353207,-0.019300450007290342,-0.02556618137543975
1746445080.4165623,0.12412151608155943,0.0003052751451750376,-9.867821371993255,0.001465327239967612,-0.026579755494739402,-0.023979453323776396
1746445080.4363697,0.2293735962502839,-0.0984419745484172,-9.74532536567847,0.018191560872558604,-0.012830512306634876,-0.026452595725737313
1746445080.4561768,0.12274985346023073,-0.015368724800554708,-9.895707709861071,0.011885554346809988,-0.02342201276336952,-0.029816391716343427
1746445080.4763768,-0.009268048156851741,0.17510548135146214,-9.846873312421003,0.012796323284075165,-0.02222266355660328,-0.03285870345702114
1746445080.4964628,-0.026582681118547058,0.15372671053610862,-9.940734460738335,0.0016613235243935172,-0.03188030010047204,-0.024759737298206748
1746445080.5163114,0.1926715879766419,-0.05730730378700814,-9.697406685018906,-0.0011739293095146496,-0.03239808918152213,-0.0280861597276451
1746445080.5363986,0.1573993940638449,-0.07101219710360882,-9.782939649341309,0.0031655449555663987,-0.03010099546072036,-0.0273441685690234
1746445080.5562146,-0.07013375841653213,0.14643984133472754,-10.029510513798398,0.0065264410727838024,-0.03195520169166271,-0.024298965505072663
1746445080.5763776,0.5010534853827201,-0.3608488056031157,-9.200050813165431,0.004803806952809603,-0.03060531071622149,-0.028793881379494346
1746445080.596317,0.24589110318111293,-0.1924082733748817,-9.686238281731038,0.008486020630546638,-0.02736079823392533,-0.0262666236073483
1746445080.616293,0.12482910947099489,-0.017077150825247918,-9.75215899487609,0.0069740997159944175,-0.03072999618206918,-0.02969697256194114
1746445080.6364639,0.1789605561743783,-0.07966429849000112,-9.662394168715725,-0.0027297143614710647,-0.036928076451783864,-0.026316128878037234
1746445080.6561656,0.09105150254439216,-0.07358336285965898,-9.753332506318058,-0.009080699100676964,-0.0388167685224406,-0.023309793765848557
1746445080.6763232,-0.11433541530490667,0.1277696118084589,-10.039032645576343,-0.0027570567645781195,-0.03861018367601363,-0.024233666643639053
1746445080.6963174,0.09311670668224123,-0.037115352681217635,-9.69512770520675,0.015009703069599548,-0.02665721275027077,-0.029738707421593586
1746445080.716313,0.002777993470920906,-0.02615809571514239,-9.824212391594903,0.007065275731099979,-0.03138504114929376,-0.02574796243901306
1746445080.7363164,-0.010164226460715735,0.08329385548469173,-9.854470290968976,0.003589893270882255,-0.038408332464656504,-0.0257642049445624
1746445080.7562468,-0.030949055294056168,0.060223309371893935,-9.821785929673844,-0.003341557488922947,-0.04138671186125538,-0.026623016501114472
1746445080.7763214,-0.06049484333273855,0.08473485121085596,-9.825554380845793,0.004032348524697333,-0.03837775952969776,-0.028048743267742905
1746445080.7963,0.12578598086600973,-0.13226738787469555,-9.673729710748697,0.010741315856052031,-0.030600902484924402,-0.025566829202341917
1746445080.8163404,0.05968062910495446,-0.06423307556151041,-9.742658806477401,0.004692696064016455,-0.035283026569301865,-0.026400651767087946
1746445080.8363063,0.03727511100330008,-0.020387795987484574,-9.770812129082769,-0.0022741189286948956,-0.039326062080287334,-0.022972988578058906
1746445080.8562133,-0.057851738159759025,-0.020897924754109717,-9.945797888088924,0.0028435265051358675,-0.0346768529155432,-0.024890716136044776
1746445080.876367,-0.022709902698513116,-0.008711618903529169,-9.781669782696868,-0.006914511971009823,-0.045191874099516374,-0.022490240998763976
1746445080.8966064,0.15656632891053401,-0.26359666140288956,-9.591513345832961,-0.010189242058952348,-0.0488671941014971,-0.025049000286090715
1746445080.9162848,-0.06987035855226803,0.01444147099546565,-9.866852234884574,-0.003247276471089024,-0.03760795925623023,-0.026531496347365877
1746445080.9363625,0.038941378224694664,-0.1399662415938696,-9.77060057387313,0.0037086066760712412,-0.03766566527823171,-0.024539929143204197
1746445080.956169,-0.07781660938450012,0.028688694513059252,-9.724994989812716,-0.007692673885760341,-0.041539589594343715,-0.02380817747588567
1746445080.9764514,-0.13390726569777522,-0.007887378941677703,-9.897518057853866,0.005818240591821356,-0.030738379768825045,-0.024667473822449375
1746445080.996338,-0.05174207415225418,-0.03412797912244217,-9.820753168523042,0.003755592501550757,-0.031833852984710094,-0.026684808142540827
1746445081.0163805,-0.1713714615447921,0.06660130396216807,-9.886655219378262,0.014682953945118303,-0.02175799388953347,-0.030692362018527403
1746445081.0363166,-0.4517623194029158,0.36450735152186187,-10.231287330404825,-0.0010479136312586885,-0.03588362256838742,-0.024392332518892168
1746445081.0561647,-0.17468367665925766,0.09311841098413517,-9.851347737037006,-0.003937382654747013,-0.030811217983249886,-0.026234461650083155
1746445081.0763183,0.0922787933877636,-0.2531375533486365,-9.591779468856592,0.002797163096810212,-0.029329460765416766,-0.029427184507286826
1746445081.096367,-0.0372479158732429,0.003306914609208715,-9.612126319897515,-0.004413910836338884,-0.03862563789163389,-0.02349920192768775
1746445081.1163945,-0.019763270394508606,-0.09448204651641368,-9.61552151965759,0.005649319620410216,-0.02415323123787793,-0.025262727791302543
1746445081.1363847,-0.13787013517646524,-0.02830704418427536,-9.880731754327183,-0.012012876479365107,-0.044630936697559534,-0.021284921277568994
1746445081.156271,0.055532430759698354,-0.3058242393024067,-9.77206657026306,0.002334142263064866,-0.023632049722020973,-0.024931594623160684
1746445081.1763194,-0.10755388381760475,-0.033967384134091526,-9.726661202232728,0.006851981014566711,-0.022504744347808636,-0.02674274873725211
1746445081.1963155,-0.08431900068279825,-0.06125856975666462,-9.71534323558468,-0.005304733987804742,-0.028038383256455576,-0.0246246833937142
1746445081.2163303,-0.26722385063197296,0.04176949531633037,-10.021912081650528,-0.003242606689988414,-0.030187825015921238,-0.02474565303096224
1746445081.2363555,0.007272642669721968,-0.14456786135267566,-9.68101368469288,-0.006058082975672188,-0.03246361375498455,-0.023106513085933374
1746445081.2562757,-0.07590191824009042,-0.11104073755255044,-9.717618601069239,-0.006591885739863379,-0.02402810505606888,-0.026302427433708784
1746445081.2766504,-0.029587020029895134,-0.17620499644226872,-9.591532500569839,0.009085692369549465,-0.0147865709149252,-0.027554784228134815
1746445081.296322,-0.33309804012260613,0.20461899343027942,-9.93954266161556,-0.0003950633687775263,-0.023988483568647995,-0.026290432862596205
1746445081.3162873,-0.3617253931604812,0.15667286432841226,-10.056259865582602,-0.008745279842588993,-0.028212302430937152,-0.023332563213766307
1746445081.336301,-0.2646797219114889,0.19085577192165576,-9.818508312701518,-0.008244518410801841,-0.025919098469232727,-0.026325643393564437
1746445081.356224,-0.3692314409993659,0.20003680213627437,-10.102698567229208,-0.0043044480478080585,-0.015532875864727319,-0.02492940321867972
1746445081.376313,-0.3239635367103071,0.05254484104348447,-10.039512423346624,-0.0027041854689232843,-0.013632295275941005,-0.026964388094217598
1746445081.396343,-0.21015096494466434,-0.011257331471941492,-9.859028702182838,-0.010184675382188528,-0.02262301090866585,-0.02506685043953562
1746445081.4163043,-0.5041915176044995,0.29830377753764137,-10.141705166404597,-0.016153913276206303,-0.026782986652090914,-0.02314467204749854
1746445081.4363687,-0.30434274918405146,0.1317856303181263,-9.928913594040068,0.0011660479986814298,-0.010691948077043961,-0.024431801439916325
1746445081.4561782,-0.2619069063680324,0.06012205725678138,-9.871817174694096,-0.0013543238797632617,-0.006781784933200308,-0.026356402610483408
1746445081.4764168,-0.1677605905184123,-0.07137601941451237,-9.784809972890699,-0.007868867367373559,-0.013909447924243064,-0.02344115974995822
1746445081.4963133,0.04835899063083876,-0.22393242802045016,-9.512664274305115,0.008303003099986885,0.0013996528567861034,-0.025512059732063993
1746445081.5163329,-0.2435202739485639,0.08688540719807841,-9.829001112626278,-0.00276735112251038,-0.013036351204296602,-0.023378413113053893
1746445081.5363162,0.03343141514807707,-0.2646101733209541,-9.56869098081621,0.005154839571962918,-0.0026364673903988486,-0.026333956641457764
1746445081.5561504,-0.02905065590838482,-0.2364954369834216,-9.629649828980664,0.012784149793163078,0.010860746673064582,-0.025137130694739825
1746445081.5766125,-0.205020228344809,-0.061076536906294436,-9.879189531148002,-0.002839852439589304,-0.0010311460187601659,-0.0242113321041408
1746445081.5962968,0.06811480702470346,-0.2308421652063403,-9.489097392542025,0.003913101966603826,0.003932249418225475,-0.026214604984908137
1746445081.616302,-0.3050997614367039,0.03061670719767789,-10.105526293811602,0.008683027409469217,0.010303639618268773,-0.028508413404284103
1746445081.6364264,-0.24707233967345188,0.10894195577211778,-9.871181911544781,-0.004131367212063051,-0.0024077405917344004,-0.025405510276580088
1746445081.6561353,-0.2550510920202374,0.04839034870629203,-9.772809923007495,-0.011647818976849961,-0.0007796427962110958,-0.023087407958531904
1746445081.676591,-0.19364713973546852,0.025370839625185646,-9.829629929722184,-0.00883192301472074,-0.0034829783502395052,-0.020487678875526993
1746445081.6967006,-0.036974167198456365,-0.1708171544888201,-9.726491451919763,0.009350320456836227,0.014026966376058375,-0.028351356626674096
1746445081.7163818,-0.24786440477880833,0.01828840520665176,-9.915470657113758,0.00044500592402547533,0.00864228156780544,-0.026305630622593276
1746445081.7363153,0.0016304274499341076,-0.20585452442022548,-9.542303530556289,0.0001982642893850878,0.007560249197648742,-0.02639491609546906
1746445081.7562723,-0.2279530034752501,-0.004987063976201115,-9.905145887279964,-0.006377191475808457,0.00921720916416656,-0.021978722901972114
1746445081.7763128,0.018908818099771185,-0.2325730465829316,-9.598508466884157,-0.0016652245104955183,0.015326911985090888,-0.02534648858121805
1746445081.7963734,-0.24338634549886054,0.008959759422757386,-9.983262778230472,-0.0072649073175759865,0.009255582055613458,-0.02371097838798139
1746445081.8163488,-0.20462173260284028,-0.005048846636675702,-9.885643175185512,-0.003211823215952198,0.01517633882583308,-0.022264384420620714
1746445081.8363643,-0.4177762048582089,0.2021072446704897,-10.07099847996621,0.005157551271724619,0.021112642377034894,-0.02905448065580961
1746445081.8562746,-0.2531821621758728,0.10052628907336378,-9.861462846319949,-0.0045074343513382634,0.019683130119829546,-0.023301657276122427
1746445081.8764257,-0.17593153188733504,0.028871049610641474,-9.894910312133991,3.775642965907081e-05,0.01912626622589597,-0.02353518641417046
1746445081.8963716,0.0760665123989753,-0.22558556161299143,-9.554525979809323,-0.0031252064245111642,0.01867690354179165,-0.025614762457327547
1746445081.9163122,-0.014694275041557348,-0.14032910137072155,-9.565636812456654,-0.002984918202402495,0.021992932380241723,-0.023793720650179727
1746445081.9363668,-0.3065790381183955,0.10571787106028728,-10.05564173910845,-0.011722032066551702,0.010342589158357998,-0.021031367816003416
1746445081.9564466,-0.34155859288693924,0.1698659094643401,-10.180459310304737,0.0019215352308198654,0.02936668129514461,-0.0242417298842512
1746445081.9764998,-0.18762535414732226,0.08665263402131906,-9.867723254080259,-0.0071623036292061916,0.022307995099811656,-0.024415510144077952
1746445081.9963467,0.08900592468107135,-0.16035060693756845,-9.444449360629553,0.0026788358996532305,0.03137179476795624,-0.023863025169085623
1746445082.0163171,-0.25316809007864605,0.10204076910105409,-10.013727752195168,-0.004603449759184255,0.020177779489930808,-0.024761137187004716
1746445082.0363612,-0.20158070856084656,0.036427370995763195,-9.86424913099025,-0.005766945430277173,0.02171825004312015,-0.021505474186083548
1746445082.056185,0.18224915853767,-0.33749749068407736,-9.553532980604812,0.003682266109556779,0.03457396076971009,-0.02472108806511141
1746445082.0765092,-0.15266798029811815,-0.013042709515455313,-9.98158838141255,-0.0071610123802690814,0.02407997477046959,-0.02136745141973799
1746445082.0963025,-0.18071213006101933,0.031138255226433195,-9.97113306162916,0.009330886641903416,0.03496277571603765,-0.024377714224549377
1746445082.1163044,-0.20791619153581098,0.031958646655096096,-10.009446554918027,0.0033873557127494735,0.035683954729244786,-0.027383292836799984
1746445082.1363356,0.055607016714395927,-0.1848633749685198,-9.628594194270695,-0.010016691986952556,0.022687250876925587,-0.023263488093100127
1746445082.1561947,-0.22673255018726307,0.21766453091081797,-9.93911413081769,0.004874831455346055,0.03936158997772009,-0.028092653645667764
1746445082.1763296,0.13808855012557836,-0.14406529607665772,-9.435296711305014,0.008496394771404745,0.0390235208052792,-0.026650562244252385
1746445082.1963809,0.16130432972671016,-0.2631972156454579,-9.536113438775185,-0.005487784979919121,0.032055724855190926,-0.01935258086622586
1746445082.2163703,0.011456038288183965,-0.11168022324055164,-9.837044621449824,-6.076853077642487e-05,0.031295332683947484,-0.024497033698038344
1746445082.236299,-0.15788026205934058,0.11380874998978913,-9.884041190858156,0.006921417216341927,0.03878058328036986,-0.026320971799935828
1746445082.2563975,0.009409874636993214,-0.06619402681484465,-9.770808416198912,0.0024641850740780773,0.04030033061491142,-0.020478150286429186
1746445082.2766986,0.10009450475801179,-0.14756565718107129,-9.711256027277948,0.001197543244932992,0.039321245354115686,-0.02265696921633651
1746445082.296756,-0.2248265502135518,0.18904411848471223,-10.08869685691542,0.021032025853524403,0.05165184727530947,-0.023915038508885024
1746445082.316443,0.18986625784126568,-0.2372757807093771,-9.620236390558054,0.005913629488735381,0.04064097095218673,-0.025767386511124056
1746445082.336311,0.05199346372649895,-0.10076774479542491,-9.720647920913455,0.006384913484176157,0.04284911997753713,-0.02534539872580385
1746445082.3561666,0.02774115451593557,-0.009715231143596821,-9.779667308570708,-0.0032687345993294443,0.0377972324095026,-0.020407959391363188
1746445082.376312,-0.012126637257656713,-0.012917199068970358,-9.896726766506786,0.013645631008619484,0.046407324015339,-0.025280370652959412
1746445082.396307,0.16340852238986076,-0.16259709895795355,-9.639320605406905,0.009026928824484932,0.04382201954710631,-0.024827589227863534
1746445082.4163032,-0.150229090559806,0.16310584735953654,-9.94702683914298,-0.006301639241685768,0.031590337445746214,-0.021349615495128895
1746445082.43647,0.019246858425234777,-0.0028285276607198113,-9.764244266149348,-0.005449291430285121,0.03197253751951878,-0.01842157613532687
1746445082.4561543,0.04398437137046907,-0.019739668878961822,-9.811974137501354,0.005582492604714119,0.03896881469164559,-0.021441264720709115
1746445082.4764168,-0.060739663196042425,0.10573898810657853,-9.959162600902177,-0.005852582751402049,0.0283132468166769,-0.019841620998805532
1746445082.496299,-0.02770135501204165,0.04379418021217661,-9.9303241366319,-0.005523220600896028,0.03017011722948958,-0.018614912275748602
1746445082.5163114,-0.046767575890027537,0.06380758587247912,-9.959058046089094,3.3602389033586793e-06,0.03438805861814199,-0.02272638599233192
1746445082.536315,0.25831529029098127,-0.22780636467630225,-9.581386024455536,-0.0028486414222559753,0.03227850752642406,-0.02434887166678839
1746445082.556158,0.011275127293161713,-0.004473535027057864,-9.988185835613681,-0.011397233153816407,0.020947264903049833,-0.018113653227549
1746445082.5763345,0.06666616554429718,-0.019607318644171673,-9.817863992648894,-0.006947283212120626,0.028149216988485198,-0.020367275099971282
1746445082.5963237,0.08053402153368758,0.0684255168550311,-9.752176975512539,-0.0003723368473577854,0.03163131228996411,-0.022404703980280192
1746445082.6166086,0.2945279054481265,-0.21872424223410897,-9.556850493015624,-0.005493330277061536,0.02851233934550132,-0.01937575646526577
1746445082.636336,0.13506399894413118,-0.11324144144951646,-9.812253549921993,0.009459383653188439,0.03864421198642451,-0.024299028968882107
1746445082.6562147,0.07417437808852581,0.005316489618536701,-9.928230512437274,-0.011163680576220402,0.01803610509108692,-0.018764860932614574
1746445082.6764398,0.21789530418715608,-0.20893214125445614,-9.747100007362326,-0.0009839914486527068,0.025894763650850208,-0.021021379853348007
1746445082.6962955,-0.020705253226918297,0.10842279453632256,-10.030412960001602,0.004690332279668529,0.029387459677482273,-0.02102402363742551
1746445082.7162905,0.2014338763912772,-0.11213721989337541,-9.708598855845112,-0.0012537910699229118,0.025554388800669636,-0.017621840532074502
1746445082.73628,0.003462543408739527,0.06711280799470921,-9.991791614329632,-0.0012676899419672124,0.027156169783513776,-0.023817858158704627
1746445082.756213,0.24187985744841808,-0.11787905192278832,-9.646760371869723,0.001906179798632586,0.026219954254714357,-0.020078157187245923
1746445082.7767832,-0.018233659281799097,0.21366192460829975,-9.944079204920937,0.008200776817338993,0.025963666172652514,-0.022024279317820458
1746445082.7962074,0.25837264088240564,-0.17615322198165856,-9.741339017940987,0.00716741849861317,0.031517639094378797,-0.019612463627972986
1746445082.8162591,0.04462219551060792,0.07528565504528024,-9.923639256149428,-0.007711221229132248,0.013290821613013813,-0.02042082988486513
1746445082.8362827,0.14413147985589297,-0.0260687475322753,-9.792957839404385,-0.009325480971425867,0.015053000810718146,-0.016655221867672532
1746445082.8562334,-0.038065134524137456,0.20795551476129973,-10.042071784236576,0.007128578558671792,0.023357984111593094,-0.024223680486319163
1746445082.8763187,0.01603969943932762,0.13030061986213667,-10.038159926096213,-0.0015226525931694322,0.016135623765892462,-0.02232964891318704
1746445082.896312,0.14886833666712204,-0.018792360444883863,-9.883560969262918,0.004431108686105566,0.021212096093296932,-0.020650714904816438
1746445082.9163647,0.3321323705194933,-0.1751877146215292,-9.631957101336234,0.008888124960978728,0.023507827762398886,-0.020634872571800925
1746445082.9364462,0.1673051396902395,0.026288153946948736,-9.66853665298466,0.004044831686195243,0.017769544318073566,-0.018275230786675097
1746445082.956159,0.08299759435410135,0.06366315698231434,-9.915167522241756,-0.003261012284270052,0.005676768079429209,-0.019327309660262255
1746445082.9763155,0.03410957238298845,0.09357235827505639,-10.037173568587797,-0.005035070803688523,0.006894437662540724,-0.01947274822407372
1746445082.9962842,0.06444554791258375,0.08203954805419685,-9.964850999901696,-0.0016720838832493363,0.008525084974038907,-0.019362142260052173
1746445083.016305,0.023161292333866684,0.11029800665771657,-10.021433215848246,0.012276386586895793,0.020503771371215822,-0.023726638824323392
1746445083.0363188,0.24642565896713103,-0.07849041718743119,-9.743485580511821,0.01709483020393479,0.02376524579714759,-0.023394100311223333
1746445083.0561733,-0.06261303722863737,0.2371380131891582,-10.094962916036872,-0.009625075420718655,-0.003212097119890272,-0.014775949305080914
1746445083.076417,0.14203555526508427,0.0114291337214818,-9.831872633707063,-0.006217624264568457,-0.004045183560239502,-0.017898349682195946
1746445083.09638,0.005223706979800402,0.18813861270489302,-9.989155445684272,0.001069373171609697,0.003430980551363281,-0.018777497369539677
1746445083.1162891,-0.048525554632586704,0.29897128520483157,-9.926982819984168,-0.007908777586002847,-0.001553181485065897,-0.017443500467168225
1746445083.136334,0.1271594673745864,0.053045226168725965,-9.79070172416701,-0.004227933593078853,0.003063277378685117,-0.018598512195198466
1746445083.15621,0.32587085895551504,-0.165991582566887,-9.598502702335761,0.0011780553199986013,-0.0028208527548323507,-0.018984114001492722
1746445083.1763349,0.07679628059702599,0.1585970281102004,-9.808756612570496,-0.00010555037691503623,0.0038870700561938537,-0.0199947266118268
1746445083.1963804,-0.10257017338256633,0.30501994205060584,-10.114722271046126,-0.0005107003243156272,-0.0016842156094811376,-0.018699257766074916
1746445083.2163563,-0.042516216765548065,0.2124722122407251,-10.146333855147883,-0.00047275494863845374,-0.004759068443867847,-0.018902354397782532
1746445083.236291,-0.08259150599996576,0.19628906991996425,-10.161414045537912,0.004990234468137567,-0.004454183409644486,-0.018996922783288447
1746445083.256258,0.17450530345472992,-0.014198972876331761,-9.856438408057882,0.006205336584752666,-0.008048769684582738,-0.01888231557138591
1746445083.2766254,0.20674595048671943,-0.03498983481033232,-9.738623731596304,-0.011110325848490352,-0.02044686825939942,-0.015560783710007912
1746445083.2963612,0.19054094897675497,-0.07522044292518164,-9.819821660565214,0.007796899468805738,-0.003113194062286869,-0.020136225150444297
1746445083.316291,0.3602314592861233,-0.2342058629325997,-9.58508641796371,-0.00557901741802537,-0.018291392930467124,-0.017791220719354513
1746445083.3362863,0.19082689375143214,-0.07039436591530818,-9.850871148260422,0.01486370258625766,2.8135274088245468e-05,-0.020971305225857557
1746445083.3562207,0.03591675178512607,0.08457789391199311,-10.000531219067772,0.004695572602039677,-0.013763146866782466,-0.019087689516095303
1746445083.3763328,0.1495040339042269,-0.07259003085758048,-9.943824357668902,-0.004884680278351556,-0.020188435421537164,-0.018590504231660296
1746445083.3963845,0.08392125020430138,0.0806777850635241,-9.955984305310697,-0.0038469157510589618,-0.01695981920002765,-0.01733693370031984
1746445083.4163642,0.4256191726437891,-0.2793753742686857,-9.402976751424259,-0.000683177354897637,-0.017662685356689686,-0.017413518274548394
1746445083.4364595,0.10013706515588569,0.032490126578807794,-9.8559833132278,-0.012442670575137642,-0.023919984506345145,-0.015071549806626287
1746445083.456194,0.4792494665795343,-0.3516720945597481,-9.445696635729155,0.005553121593225318,-0.015729225595484515,-0.017844449434142894
1746445083.4762998,0.25322744249111817,-0.0780809306630932,-9.624555897798373,-0.007267998130784658,-0.02684819377850406,-0.014439222459446281
1746445083.4962752,-0.011067703245365018,0.11466105284481765,-10.009354261152703,-6.973660980828277e-05,-0.021956713226488574,-0.015468378195970762
1746445083.5163915,-0.19771870733935687,0.3659954748778065,-10.170929105813876,-0.00044552502809833735,-0.019849530202081536,-0.01598327224369689
1746445083.5362854,0.14112502234185492,0.038836185086860604,-9.708608409826075,-0.006013709862495215,-0.02908842917158802,-0.01403431010189451
1746445083.5561728,0.24940131687634332,-0.18913616391006494,-9.660184488744909,-0.0029191852990042397,-0.029199689846411143,-0.015443287144235159
1746445083.5762982,0.2475979654090283,-0.12202015370917718,-9.60103875359536,0.0018234146960705907,-0.023744211183011284,-0.016765117981164607
1746445083.5962834,-0.11521498182980104,0.1948378655114258,-10.021097056555707,-7.97838886370084e-05,-0.025449336871642622,-0.018106441242609954
1746445083.616309,0.274740505877615,-0.22121255104811427,-9.686512110439585,-0.0028332904501105634,-0.028873181942720455,-0.01685113886352905
1746445083.6363168,0.2278598815498768,-0.09996055480500113,-9.641518107786132,0.00904414518901922,-0.01778267617751597,-0.018115052513088502
1746445083.6561499,0.12078212949401744,-0.0713370157507262,-9.810310627868851,5.642624832964628e-05,-0.0279790288727264,-0.01768922587456102
1746445083.6766083,-0.05741083738693298,0.14128089086575593,-9.920768621359136,0.008524796433047797,-0.02614097482084612,-0.019489275734854258
1746445083.6963022,-0.30881820701067825,0.3784273131893953,-10.269976111610893,0.007099083228717482,-0.02485288509723556,-0.019401794690182134
1746445083.7162936,0.15183115828779467,-0.07523188749329064,-9.722562820113021,-0.0017951111250890407,-0.02902001470916038,-0.01667685399072191
1746445083.7362924,0.18864507897943428,-0.0917519237476049,-9.597558414167398,-0.0018020103649557444,-0.030111729089758735,-0.013917633847066672
1746445083.7561595,0.14119273066567578,-0.18484358603606796,-9.810398713124124,0.013268815836199281,-0.024453818489687907,-0.019188111570317377
1746445083.7763042,0.14899399931398813,-0.1217155761806644,-9.624716237981508,0.00261314125315402,-0.03060900268620775,-0.0166213430700423
1746445083.796359,-0.19953829977719423,0.2276551368199475,-10.055212267601759,-0.007815285623875151,-0.03913715628566393,-0.01305157607105933
1746445083.8163152,0.0027411816919055143,0.02359466617435036,-9.844788371710656,-0.0056784661984662,-0.03423996992281851,-0.014199527950472142
1746445083.8363178,-0.12763933326536073,0.1406371477083802,-9.972982513452234,0.002280635869278644,-0.030909311913624265,-0.018298153735253807
1746445083.8561785,0.20428599984490423,-0.20922197192623285,-9.51571220331219,-0.004799317554313336,-0.03350828277194762,-0.016717886848764463
1746445083.8762944,-0.017738373254379703,0.017285848855190532,-9.838659989966446,0.004710396931361866,-0.025407752533056147,-0.0181564353562008
1746445083.8964748,0.1488546388914372,-0.09001710421853602,-9.490446661402466,0.013541753004448858,-0.019413096587564266,-0.019540651380844605
1746445083.9164357,-0.17816843876707886,0.15554484576994665,-10.08800440672146,0.010042362220149578,-0.025027209851282248,-0.017358434086326657
1746445083.936496,0.19658558654477698,-0.1574332413170072,-9.541054854592362,-0.00218676293243192,-0.031953463414870376,-0.017318889573002403
1746445083.956226,-0.19419897032130082,0.1030876197583742,-10.030702119204834,-0.004503925585282297,-0.03614457114699973,-0.014075355119200071
1746445083.976646,0.24401966102487482,-0.24102137922862388,-9.513247817720696,-0.0013629398316596583,-0.03290402195838681,-0.01483132304640978
1746445083.9963408,-0.021174373945256304,-0.0028803160168734167,-9.805384233147088,-0.0019402859994604406,-0.030554205718821736,-0.012545290490470196
1746445084.016389,-0.04086795278411512,0.056304646548625936,-9.814680973515356,-0.00363671645890136,-0.034825984866173214,-0.014088338215091077
1746445084.0363626,-0.02503230536392926,0.02614039116015234,-9.716844634945648,0.0011735337623685576,-0.031892372101063084,-0.015183126951600127
1746445084.0562344,-0.2024355480723613,0.1470903534300657,-10.066877525431497,-0.005659639810331214,-0.03234159334076408,-0.010738150361761241
1746445084.076455,-0.05177508031478538,-0.04092130757163938,-9.900150530203488,0.007519791142807154,-0.02518834825523326,-0.0178243907866906
1746445084.096299,-0.21696973600502778,0.15684145192872304,-9.955273907802484,-0.0070896007224351305,-0.0309000513316094,-0.014480886412686802
1746445084.116273,0.0019769706371535814,-0.07211405479372171,-9.78346507302515,-0.00013458041717050344,-0.028526693803495935,-0.015712793688707254
1746445084.1361694,0.043453279074891035,-0.08446267457113943,-9.650729131441672,0.0012774385247630578,-0.029343498815677587,-0.012872366931795873
1746445084.15628,-0.07712602909670596,-0.02721007833427984,-9.816539740912267,0.007991742012180789,-0.016727782138602452,-0.014090809705559044
1746445084.1763728,-0.05546035954200037,-0.08157944883609985,-9.8160084295399,-0.013719668726339231,-0.03641246055023495,-0.01151459306611553
1746445084.1963065,0.03373880117260711,-0.12304647641757856,-9.64404649086283,0.0016241372324588158,-0.026243542271976717,-0.015661193531976036
1746445084.216328,-0.05441342512277487,-0.038475855294445964,-9.735333378874515,-0.0017811413935710772,-0.02653028135179341,-0.016141314127032007
1746445084.2363057,-0.2588483923142729,0.20543160533743715,-10.016629165350418,0.004930187466316956,-0.02200354413590686,-0.016797719212003515
1746445084.2561913,-0.09971358807645886,-0.06101999542321357,-9.806524556254141,-0.0025449914605831757,-0.01812789518037115,-0.009815447278045734
1746445084.2763562,-0.18668922026072704,0.04085411954994414,-9.908591204206068,0.002157631644904783,-0.02142587886557875,-0.017353793269828763
1746445084.2963395,-0.01446325453209496,-0.14187428270677183,-9.729713910672375,0.006401678977817293,-0.01827262243904688,-0.015876967560527963
1746445084.316555,0.010409634302480347,-0.12890194725608273,-9.591467153257,-0.0019949881685051023,-0.027035918951335218,-0.014898330471587947
1746445084.3364346,0.03335400841011055,-0.1863318961278374,-9.659436718883304,-0.007087549662733465,-0.02690131277604888,-0.012621096343796033
1746445084.3562596,-0.1868094613693305,0.063774241477753,-9.90960753536187,0.0007466197968675379,-0.01554120621297806,-0.013771381201446026
1746445084.3763955,-0.12597927206679446,0.10401085373052951,-9.702830775677318,-0.012944199193691051,-0.023549424854055798,-0.010834007068708877
1746445084.3963432,-0.25839218075754167,0.14367503268348003,-9.82383516405449,-0.008177315694274247,-0.02387778129190127,-0.010237180601992236
1746445084.4164138,-0.05047456149544656,-0.1343183339323484,-9.732610123698663,0.012134781301463358,-0.0074599532657423605,-0.014742576011956724
1746445084.4364333,0.008106295244510814,-0.12969347874094267,-9.574588923216732,-0.014680336137782963,-0.028952005073349753,-0.005904920561092606
1746445084.4562352,-0.319920175430523,0.1792730438012211,-9.942562015739652,0.0025062381579658427,-0.008071238486283938,-0.014123632656637491
1746445084.4763684,0.22433057195421524,-0.3835692333639811,-9.341399925751624,0.0018982711595992975,-0.011039716696531388,-0.0153925074039674
1746445084.49651,-0.2609901538231502,0.17262136501961525,-9.793438833313413,0.0004551297188485259,-0.011814663342643986,-0.011995862715007724
1746445084.5164306,0.16250566356144616,-0.3115109072071441,-9.45995321745353,-0.001359528111281707,-0.010904039183481727,-0.012871876762582318
1746445084.5362997,-0.18867368578983162,0.045005598131197005,-9.800070609653703,0.0015421783368791719,-0.011084540380585444,-0.012579546400390648
1746445084.556163,-0.22517044626554167,0.07119388114916261,-9.892798253295119,-0.00257970890294881,-0.008348628487917563,-0.013193709479864894
1746445084.5763006,-0.16555902725053417,0.02281059308871091,-9.811378586101773,-0.0032927523884919386,-0.010589664731286131,-0.011166684881122371
1746445084.5962903,-0.21142791921449178,0.0672584610062738,-9.89090156400412,0.0037999024076401746,-0.0011100814553611999,-0.015357984461546929
1746445084.6162767,-0.18901441696517954,-0.05808420021272866,-9.89429495083043,-0.0015895461608746888,-0.004475805705701049,-0.012330535196992436
1746445084.6361883,-0.01588080772202896,-0.1571974674206434,-9.645192636097,0.009271877746292484,0.0026028143277508206,-0.013074967419840216
1746445084.6562028,-0.10362614971707862,-0.10161567794006768,-9.74175743873752,0.00010130787688984971,0.0009137321717209308,-0.014546251112986158
1746445084.6763391,-0.19989116489011935,0.09434009807386907,-9.783324259309675,0.007806182557360696,0.005254318718942716,-0.0126427354639057
1746445084.6962988,-0.17376780629593075,-0.006097036684523602,-9.8133811294892,-0.007788857344940264,-0.0009529073608086239,-0.010248677350006377
1746445084.7162895,-0.10625080210387246,-0.04010246937587532,-9.715713773971832,-0.0019449691972161203,-0.0027258671917759526,-0.009487040373543403
1746445084.7362823,-0.1987742212007523,0.13847559934312734,-9.698021727977364,0.01355563012081951,0.010243345436299688,-0.015227270888281278
1746445084.756183,-0.19190539193303707,-0.006073094009669285,-9.947725369684562,0.0053687163974598445,0.0072787080345568175,-0.01363704617065816
1746445084.776452,-0.049418989554870854,-0.04459633673496524,-9.604827610458631,-0.012500840205312542,0.00046084650672916384,-0.00777418845165072
1746445084.796421,-0.005410403407884845,-0.1306370616351946,-9.634787721627466,-0.00034235399312010795,0.008261739411075301,-0.01344774688614268
1746445084.816359,-0.1608041758991134,0.05042330859428438,-9.78362170007311,-0.006317719289152717,0.0027533502419934018,-0.009040367813303512
1746445084.836385,-0.2839990243281004,0.22459886562087597,-9.89643983171557,-0.013530772564486003,-0.006427733461800604,-0.005675413038098234
1746445084.856213,-0.4720858510799109,0.2743908592102356,-10.307566700567678,-0.00656600024635004,0.009524357870588643,-0.007384924133169881
1746445084.8766208,0.048330962715433134,-0.1500503897792283,-9.485799469621858,0.0015575741473763866,0.013211966571947821,-0.010058415346686696
1746445084.8963847,-0.14096051410075328,-0.020279316596862756,-9.797861589030912,0.002145844608715744,0.016886416036861085,-0.011790847717271485
1746445084.9163694,-0.23083561034783961,0.07612859412809396,-9.986261852090246,-0.00852050111295894,0.003983510430920439,-0.010544336932955286
1746445084.936536,-0.3623694553694122,0.19465015291050256,-10.025319072455465,-0.011593271662652995,0.004331301818201537,-0.011432133127688475
1746445084.9562492,-0.09178233936884544,0.0007093555473956536,-9.710839487956282,-0.0009832103455660835,0.015462664353584718,-0.009709073986997835
1746445084.9762626,-0.1919904394551426,0.12181017942993533,-9.884427397044625,0.008392879956805722,0.026130141024853584,-0.01157593558728748
1746445084.996316,-0.14823097712926028,0.02366493273032842,-9.857686744495235,0.009644973850224498,0.02143152655053185,-0.012995064235021657
1746445085.0163765,0.007094422140703757,-0.1273794608921166,-9.688456552148835,-0.0022372668238538835,0.013325298650311863,-0.010161102468401266
1746445085.0363736,0.029986823743018004,-0.1286079041777653,-9.597243103472952,0.006751506057563308,0.02153705598841755,-0.014799541509586827
1746445085.056184,-0.015065627191567024,-0.09712039916400513,-9.690289638964094,0.003959959624789407,0.025621376377867877,-0.00928053061574661
1746445085.0766745,-0.13459834324542522,0.029795899507306475,-9.760279281943705,-0.0036730637097942428,0.020018425667565207,-0.00742011620952084
1746445085.0965276,0.06936506791353723,-0.18048897515945683,-9.687988564405769,0.0038390502949117947,0.023667602100447292,-0.01186968973655342
1746445085.116356,-0.03570236736947381,-0.07727247110677524,-9.6998448051528,0.00838442337919165,0.026045111297561246,-0.011717720631788667
1746445085.1364057,-0.01381808979938641,-0.09347643511812258,-9.702313354182284,-0.004761767414548795,0.017168240840640052,-0.008476166041137483
1746445085.156189,0.17336831153489218,-0.22511048392431432,-9.486191397477175,0.003960027869190474,0.03001600941640453,-0.012332378671892533
1746445085.1763382,0.09136909129049203,-0.16084013797766072,-9.538746003602597,0.005123811419546582,0.030344052899834474,-0.010133306307985666
1746445085.1963859,0.03437260110259578,-0.017273496327694617,-9.57238648027495,-0.003390746169985676,0.022841911650552025,-0.008255787495156791
1746445085.2163029,-0.12616247089446064,0.04650772842501407,-9.86060742911802,-0.0015015946406010555,0.025859096411593743,-0.007907360332215571
1746445085.2362962,-0.05969894547168668,-0.03519139884044245,-9.773914808676393,-0.003567712847080555,0.018543453201651364,-0.010699635453695712
1746445085.2561693,-0.13285450783341526,0.027973520367761105,-10.012582080967212,0.0006965172905194992,0.030272844633309638,-0.010215280301012342
1746445085.2763112,-0.2635606733158407,0.23884199269868447,-10.018306805000979,0.015572305977264094,0.04515027179529107,-0.011841372879022108
1746445085.296323,0.04865070496748307,-0.150074122267252,-9.806810253232918,-0.0022380789817772495,0.025769425797052836,-0.008990886974115713
1746445085.3163142,-0.06920536316168219,0.06991368081666798,-9.783025830438335,0.012054093245280086,0.036072775617454145,-0.009421369036483109
1746445085.3363004,-0.09300126633890912,-0.007006136381358253,-9.942953229799308,0.0017027862373583827,0.025425021149411288,-0.008438474547940477
1746445085.3562193,0.17722016985105787,-0.2230039635920708,-9.561326985321124,-0.007192718756168723,0.02268525530801355,-0.007078340672492877
1746445085.3763855,-0.0925407675528827,0.04932685285608366,-9.904729327806514,0.0025066307508755242,0.02979160651633952,-0.012458170062703649
1746445085.396324,0.09982135192641328,-0.12042215245888148,-9.61055698504272,0.006852445746074952,0.033744260309136576,-0.01122055800128199
1746445085.4164243,0.06405769666178943,-0.09694817127551753,-9.720911298011465,-0.004969018410116744,0.021996116094166684,-0.009436695566183458
1746445085.4363763,0.1553187638184019,-0.20585312106587147,-9.62926185483611,0.0032035034704248986,0.02887535635853419,-0.008434278580219189
1746445085.4562104,0.06358963525709162,-0.07770202373514125,-9.766649585059186,0.009651776451143838,0.0353172938359157,-0.011500860820041084
1746445085.4764998,0.292800174195049,-0.31131402745933073,-9.525802340767061,0.004029782630802034,0.034261894617984776,-0.009826556818248504
1746445085.4963822,-0.09237858578172327,0.06402484062978493,-9.920438811070778,-0.0037923288067650872,0.025977668852992217,-0.006748730190359995
1746445085.5162847,0.03874024557351591,-0.04707246652042961,-9.816522503622405,0.02055039059098327,0.04358975577544671,-0.011233875987952367
1746445085.5363019,0.003379354685965965,-0.008725656355255103,-9.88622076161883,0.00689084067030033,0.03601035510060571,-0.008881146125774494
1746445085.5561292,0.05424267002808682,0.01428904571325566,-9.78754610004312,0.003314115572615751,0.03274280829861844,-0.008181498509374184
1746445085.5763118,-0.11874989947417587,0.11434888380726148,-10.082221943081205,0.0010489988541018476,0.023768867259785425,-0.009909773133887152
1746445085.59616,0.11839756913094077,-0.1322652514997091,-9.849791852546657,0.006877954417417215,0.033396527334711316,-0.011084488389003968
1746445085.616283,0.13179093661979394,-0.15646817888229161,-9.782348413852612,0.006014222575997421,0.032954539835416116,-0.010189408167871358
1746445085.6363134,0.13535411223492716,-0.08713926706448229,-9.684696164379762,0.0018419631616423038,0.027984489483548404,-0.0061472614877094755
1746445085.6561966,0.12042288081870328,-0.04105443931922734,-9.744452671595786,-0.006573657409107849,0.016333200856719972,-0.006110913033892211
1746445085.6765444,0.16736474260804846,-0.09347634101732996,-9.749350724165675,0.003163167896965763,0.028489998223750593,-0.009115308258974893
1746445085.6963546,0.12050201965683716,0.002750450400765856,-9.620035831688384,-0.002793713002090206,0.02070815451569349,-0.00538473766579332
1746445085.7163825,0.177582837169585,-0.08457579589667384,-9.647244348274286,0.010610037281025093,0.031244970281961132,-0.013419661084445445
1746445085.7363138,-0.051169329831189894,0.11652829675717083,-9.909654293137486,-0.007616440718386274,0.018264569292822892,-0.007879336143914771
1746445085.756213,0.09408384607290145,-0.0859076472031502,-10.013464471523392,0.0019922833915360628,0.024073208986756228,-0.008715166510136534
1746445085.77632,0.07457483385586453,0.043694702150783964,-9.73824946972995,-0.00012135546592665885,0.018093536161925185,-0.004798952518390281
1746445085.7963164,-0.10377033103216902,0.18614979779712343,-10.102935270956126,-0.0035893245142802057,0.01686169353163932,-0.00697331611881224
1746445085.8167164,0.27314311613747,-0.2227120833748998,-9.61556534565373,0.004278406514764345,0.02402738023140014,-0.00805043617222723
1746445085.8363907,-0.11190268223319191,0.20568754852491503,-10.073043167482322,0.007741654488675704,0.03307106006753761,-0.009206736830374415
1746445085.8561602,-0.1568486982171102,0.2613011868840531,-10.100410794446491,0.007338936376986575,0.023908237471302753,-0.007590807285244254
1746445085.8764148,0.05205775084344109,0.10457651661452247,-9.783548011524454,-0.005672794655990366,0.011904158903254209,-0.004538665396664128
1746445085.8963172,0.23285313832313223,-0.1668985440251706,-9.657016949592986,0.0028450332612800166,0.02187311122293268,-0.007491390058787568
1746445085.916321,0.013299688382679933,0.12652587115649125,-9.864006511044254,0.0002713796608898968,0.01779496117069209,-0.007370900812826728
1746445085.9366674,0.5378678296852797,-0.41871787751755585,-9.219752110872822,-0.0028610956327256493,0.017144016510860824,-0.006853605680054694
1746445085.956302,0.07454357843717899,0.11253461800785207,-9.829686997880698,-0.010091294361541627,0.005322950221111831,-0.0033885329446087546
1746445085.976414,0.06156581768873919,0.0554924407479996,-9.926710821122182,-0.002452663392869281,0.012387241616104928,-0.005456734879640823
1746445085.9962945,0.0019299933544667108,0.08401292516510328,-10.011491481938375,0.0038370404281018546,0.017282498629949856,-0.007339497533831571
1746445086.016319,0.060898808897498616,0.01671541272195018,-9.994815504622633,-0.0021654169751664427,0.012871025306763779,-0.004983714762981608
1746445086.0363026,0.01218339082976752,0.07786997545153894,-9.984832625806405,-0.006814363469648582,0.004758024543950502,-0.004059581118121589
1746445086.056195,-0.08196342749295318,0.24209357440507506,-10.063370577172432,-0.011023937276620972,-5.0520026754510144e-05,-0.0037970199499957665
1746445086.0763228,0.005914659360754665,0.205344785783446,-9.930762528083077,0.009726249378540167,0.015551547918398193,-0.009893058356665773
1746445086.0963273,-0.05506945474161873,0.19327910941908277,-10.10402758535786,-0.0006947138066999859,0.0064957189302481105,-0.00374150356071324
1746445086.1163967,-0.12138924644594506,0.22019767370953014,-10.13395203523115,0.005457106921850534,0.009462257716274758,-0.004532061521764453
1746445086.1363654,0.16612038706441762,-0.03988154129447711,-9.769121431308928,0.011765717012785018,0.011852820554306438,-0.008718625521055245
1746445086.1561835,0.39688619578950646,-0.22728964085387202,-9.467539415822298,0.004437571256379815,0.004879708188806969,-0.009877911489967015
1746445086.1763902,0.26904239354707443,-0.23028921247272566,-9.785692278128181,0.0015799646195648557,0.0028086618348611867,-0.00850954810209981
1746445086.1963153,0.052597419069710535,0.1346942399622193,-9.82496791148011,-0.010947922139328697,-0.009025560008172543,-0.006419562865177284
1746445086.2163823,0.00014056197692011163,0.11684068874349512,-9.975175338498206,-0.01107775576783617,-0.00977414011464349,-0.005914305043345385
1746445086.236286,0.15758369785001725,-0.01131624428379885,-9.780552383713363,0.00227320925362485,-4.4770903333939734e-05,-0.0074626923513973695
1746445086.2561557,0.04158997086638297,0.1439103088179173,-9.85652756819688,-0.002117116145486669,-0.00490238633910288,-0.005396299053656845
1746445086.2764037,0.46822807443440884,-0.3137379578014452,-9.403358708135803,0.005476708571075986,-0.00010076778655936005,-0.00567643005543175
1746445086.2962947,0.24961284484192392,-0.06612103424304205,-9.642326062387642,-0.0037175831470476896,-0.007011400351234734,-0.0035885784051946854
1746445086.316388,0.017881623594389467,0.10444366399717504,-9.934759383007222,-0.002376005216488865,-0.004856673996984834,-0.006775602990236026
1746445086.3365133,-0.12187149848633935,0.3181214305637337,-10.042971412928711,0.001064767291136657,-0.0022548360616301984,-0.010465668303465682
1746445086.3562024,0.06241844163045873,0.032209233911326296,-9.92794222871913,-0.004390707040178153,-0.01396931037743443,-0.007641253178140265
1746445086.3763208,0.055245980073231726,0.1139197640242815,-9.905515093187107,0.007534355406135819,-0.0044508390171066154,-0.008451515026103078
1746445086.3964312,0.16782708912066854,-0.02153479497870763,-9.73934205261128,-0.0055277779411177525,-0.013308955364051387,-0.006677392684428266
1746445086.4163125,0.4205617230806722,-0.3152864330079472,-9.438612269126502,-0.002987046364245272,-0.008276860399258543,-0.004579836702053485
1746445086.4364076,0.13092043369990553,-0.0488968702146295,-9.877654341856573,-0.00011659187727582992,-0.00830602424359146,-0.006855638641774652
1746445086.456268,-0.009289750243489686,0.08734582976902362,-9.953046146802485,0.0033364565142378314,-0.011445586703006895,-0.0034720899803663023
1746445086.4764721,-0.11664558712892917,0.2931913395931926,-10.060874135754077,-0.01516668604163068,-0.022723496693771952,-0.002772391038360698
1746445086.4962978,-0.0434320509870908,0.11049736039989388,-10.170008589304983,-0.0033260681079706977,-0.014477363181713249,-0.006504272837872659
1746445086.5162814,-0.02418696929249252,0.17367533816843148,-9.965684581648206,0.0017872204806018523,-0.012458607612463686,-0.0036069733043421984
1746445086.53629,0.2581254614817502,-0.17221716723814157,-9.677758702728559,-0.006116543766905585,-0.01998128166811206,-0.0054522933286214265
1746445086.5561872,0.14237543174637515,-0.026506118463282165,-9.702339586061342,0.011831826503869904,-0.012939979480498003,-0.00951379334011777
1746445086.5762968,-0.03194451828448022,0.1526836369570125,-9.93463373102438,-0.019108609609016856,-0.0327571650770814,-0.005357921483870602
1746445086.5964189,-0.051310813226816285,0.1983196209847632,-9.896694976687337,-0.012213014970724792,-0.027011211902834432,-0.0031060554954569536
1746445086.6163101,0.3670226934370845,-0.2046125701254822,-9.441073396381398,0.0013517400578527564,-0.018792961246110268,-0.006397923150356005
1746445086.6363733,0.0633250251912311,0.009556470067839176,-9.876990100237961,-0.006774688654929596,-0.020123138158924626,-0.0030811573785377968
1746445086.6561835,0.3122822893081846,-0.24628026158141778,-9.599657957406064,-0.0012697312781561592,-0.02267940004867394,-0.0033425704390243455
1746445086.676368,0.24705200051059528,-0.2016949402293186,-9.620647557475472,-0.00952039862606178,-0.02837049270605988,-0.0025713791479530287
1746445086.6964357,0.4904615938575223,-0.45013009051014496,-9.359747678896904,0.0038555958803272645,-0.01837158034415523,-0.004217147412725735
1746445086.716413,0.03289180961934152,0.026289970146340727,-9.883535519393709,-0.006291339051016434,-0.02769825014184788,-0.004712212947437865
1746445086.7362964,0.2548645776403797,-0.17510459119856286,-9.632025058270697,0.005056799990998695,-0.02078316138386719,-0.005485197942615224
1746445086.7561786,-0.010907249621564162,0.05452104948617228,-9.924250487867036,-0.000445325658169957,-0.02432385384441539,-0.004662650434709231
1746445086.7766755,0.028184404857389732,0.011928998140833806,-9.864536048392546,0.010159737660906491,-0.01914590906353008,-0.008070091735145585
1746445086.7963028,0.29749953723144634,-0.27995521443284965,-9.458486962439471,0.007954245176291654,-0.018241734297143646,-0.008949418132900615
1746445086.8165092,0.07364591737185695,-0.041822106303335424,-9.75283998793486,-0.00011643286197374279,-0.022899048679462578,-0.005252690816570536
1746445086.8364215,0.10777564977895392,-0.04281583864297745,-9.756857299520533,0.01025451908154705,-0.012555374029229325,-0.004214564974422359
1746445086.8561604,-0.03310167952310607,0.1251816575785697,-9.799333850893692,0.014382346566323352,-0.010822498035492635,-0.005723260713222756
1746445086.8763366,-0.10757266344749537,0.16417107525874447,-9.918178310917682,-0.0017811153726215287,-0.027339857937765544,-0.004680217595253015
1746445086.8963,0.11879679266772315,-0.09515697756633787,-9.732278969323094,0.0039547540684380204,-0.022861478186982285,-0.004728833866594774
1746445086.916382,0.07003851091280108,0.010960247675962417,-9.723417627743201,0.00154699271095779,-0.023822256671251756,-0.001926169449501915
1746445086.9362342,0.22006414676113667,-0.1988375536678754,-9.590960362145177,0.009038016713476964,-0.01699981949650006,-0.006509094288889824
1746445086.9563038,-0.08072577194170351,0.10799965320587455,-9.819128149993936,-0.004212248171844688,-0.030628281233890928,-0.0035442363044483737
1746445086.9763567,0.16428089781328958,-0.11257198371949467,-9.551764318383501,-0.0036887957936446694,-0.028884152861987127,-0.0013498035419629434
1746445086.996312,-0.14551331224277697,0.14527154756862812,-9.955029189792091,-0.0025603870268237194,-0.027235938784815537,-0.0022564507751951833
1746445087.0162914,-0.0302999825752212,0.06690366048987689,-9.81408549268815,0.0024957795974437534,-0.026633631657266305,-0.006378670680398882
1746445087.0362868,0.007067667100163167,0.02785058801662379,-9.765616156843638,0.0016933930017886342,-0.022291605439839005,-0.003581853259287805
1746445087.0562086,-0.05570488201325721,0.020657208254560397,-9.908074742381313,-0.015718929717045055,-0.03944612990714329,0.0005267613983366013
1746445087.0763333,0.1676939073794223,-0.2594711464892803,-9.603401905390855,-0.0012631073352124117,-0.024610597413476393,-0.0025010718659402454
1746445087.09639,-0.10454058998152434,0.1011112006964357,-9.84484672642073,-0.009578301712872678,-0.03365383403731332,-0.0016732050955707506
1746445087.1163862,-0.19361897624464477,0.17000704936776292,-10.049567535020316,0.016444428440881027,-0.012616180947555351,-0.007401065578809319
1746445087.136383,-0.08526500369098214,0.10884751688151577,-9.848582163485691,-0.018543271378024074,-0.044040504493664215,0.0022272043518212917
1746445087.1562076,0.11318454220987789,-0.18399334882495155,-9.593490063452226,0.0015985753983417752,-0.021758053392482324,-0.006793260352110769
1746445087.1764092,0.017987214970627483,-0.05088704551234987,-9.723384570246978,0.0035551181444561835,-0.021562973205551082,-0.002529523568253333
1746445087.1963277,-0.13107669309671283,0.016150881721560546,-9.981122158539863,-0.0026771833654784982,-0.026568952024271272,-0.0028394172138608686
1746445087.2163498,0.012947273371388048,-0.06446021823465581,-9.79454681768189,-0.013792848841709105,-0.033826990048040705,-0.0017380037020889873
1746445087.236431,0.0994787532437359,-0.1463976302650942,-9.6150827538714,-0.005075814375636788,-0.031787016795301284,-0.0012412562771741786
1746445087.2561693,-0.13438884321940125,0.11860630763104195,-9.832839399466094,-0.0010807890274763365,-0.023341872649804786,-0.004463922312995038
1746445087.2763784,-0.25980099922089844,0.23212964510570963,-9.925781592127153,-0.005144238487106119,-0.024168318166173625,-0.002725417615017384
1746445087.296439,-0.18099734342579366,0.11648474080129097,-9.900349960174541,-0.006181545863647528,-0.024982332008301387,-0.003984121580367091
1746445087.3163056,0.18324842146497597,-0.15454210911359686,-9.469253871199818,-0.0038471736623974253,-0.0238828178686181,-0.003069258315010946
1746445087.3362951,-0.33291995357012133,0.317771967786962,-10.035641155200292,-0.008127386305777699,-0.025628286055184045,-0.0020939557288352445
1746445087.3561668,-0.051490949495967574,-0.017777082026113993,-9.711794306712894,0.010363759029738358,-0.00882866447931049,-0.006199260822508098
1746445087.3764544,-0.06453581767371999,-0.01122357375804563,-9.746880219345977,-0.006412571400695928,-0.02149151576963133,-0.001153854635092893
1746445087.3963516,0.015016294850391632,-0.08799364711392911,-9.652791662694694,-0.006372530543846321,-0.021131136652581425,-0.005626593129827094
1746445087.4163806,0.10628729808015176,-0.17338914543610723,-9.522025630290477,0.0007249323368728217,-0.01809123519995779,-0.002177343101100255
1746445087.4364717,-0.2258880257002313,0.14319649686660646,-9.919744525103113,-0.0055446721213967595,-0.022492338958000548,-0.003790438014263594
1746445087.456234,-0.1558993858771749,0.04911879129109551,-9.844517395913488,-0.0037307568501691434,-0.014560910445426508,-0.0027041104309987233
1746445087.4765856,-0.046872041791988575,-0.07032814258007233,-9.774209524247576,0.011675979865651581,-0.005345344283730704,-0.005696913949852407
1746445087.496372,-0.3218300950543907,0.2845906494114442,-9.918794575977588,-0.004680867756539931,-0.017507087029990227,-0.0008510550214409461
1746445087.516318,-0.3702101929502632,0.22688888939780194,-10.12559218250514,0.003168383568701157,-0.012895960846282162,-0.002769819861700107
1746445087.5362968,-0.17514013527103758,0.12540490628558826,-9.754139071417093,-0.006610554859070254,-0.019394685212286895,-0.0001854297744580129
1746445087.556221,-0.0431984478751193,-0.08987646777827098,-9.684776449304454,0.00875819984985,-0.0037427652059806556,-0.005889894491499386
1746445087.5764513,-0.25780225961491454,0.1296345683319974,-9.985032616605,0.0032070982164563284,-0.007126780377382336,-0.005905709296528988
1746445087.5963323,-0.1359912634610512,0.022569077614580633,-9.779125459585702,0.0023241562256666923,-0.009629813699162784,-0.0011908627583779121
1746445087.6162643,-0.13609171336080633,-0.03157461068945628,-9.846650469551236,0.004264420101815252,-0.006156191660031112,-0.0027103131566581624
1746445087.6363008,-0.17263415070550664,0.06344801667443178,-9.862591375312594,0.00050160886586916,-0.01755656663086371,-0.002758976593897317
1746445087.6561904,-0.010385227242815001,-0.10037000463417015,-9.738089347593597,-0.006444937163043991,-0.007258974373445956,-0.0011756901250342161
1746445087.6764078,0.19102539379438704,-0.30907681833660444,-9.473422237249485,-0.004198506480997086,-0.009791471333879281,-0.00029499841431562595
1746445087.6963367,0.11680179610999354,-0.2853910922771585,-9.52157511601482,0.004345134710724268,-0.004015264280272662,-0.004365033041992692
1746445087.7163281,-0.3195139318843268,0.1484788106813111,-10.114008631562916,0.006672694704396685,0.0022884844917416018,-0.004999368631001335
1746445087.7364326,0.05881971776454514,-0.17066717361342804,-9.52133273526241,-0.006698222356018997,-0.00673815189466427,-0.002368015640634555
1746445087.7561862,-0.22806788701820985,0.04604123051626546,-10.046763961943935,-0.013084259709582817,-0.00806248239500065,-0.0006762449969151198
1746445087.776334,-0.3425954179447568,0.20040586801690827,-10.116398353315443,-0.014758722976969231,-0.013855780603910593,0.00026845647374344923
1746445087.7963622,-0.08462497451576605,-0.035784299943025524,-9.747177633554504,0.010740735353447656,0.008311374492535491,-0.0025458754264743146
1746445087.8163218,-0.08595004770963159,-0.05176873694930065,-9.728238058205825,0.010701271098433466,0.008183004730312563,-0.003976275760271048
1746445087.836322,0.00243077744247841,-0.13704380585402112,-9.665791916865196,0.0005781763173915078,0.003165528294206488,-0.002594110402655089
1746445087.8561878,-0.294759086320014,0.11855362629501225,-10.031210796529347,-0.00032683296120488705,0.0039324397439368,-0.002555977515542176
1746445087.87643,-0.2190948632890914,0.0709863754545584,-9.98743684444123,-0.00805070205296012,-0.00013057149625770887,-0.0025072623706131093
1746445087.8963888,-0.06872287311187694,-0.08809336083013983,-9.810862102109482,0.0011069830941002612,0.00767396312715979,-0.0011369674572597824
1746445087.9163876,-0.28449922105432157,0.13232572985920077,-10.090971126601078,0.004759507399619694,0.009515592247524036,-0.002441753396865719
1746445087.9364324,-0.037478922551187496,-0.05457616426926697,-9.642353140853716,0.012508998200095028,0.01711408300011251,-0.006243342991440824
1746445087.9562213,-0.2664441681937564,0.1780533613535296,-9.955815410955406,-0.0004626540456646583,0.0059175932869406185,-0.0025993152860553006
1746445087.9764516,-0.4356334025241204,0.2542251075208809,-10.255364624924914,0.003716044053434236,0.014403549826224424,-0.0008921098688710906
1746445087.996383,0.03293784645511273,-0.15764120831975115,-9.666014790572317,-0.006437081995576208,0.004324510824916238,0.00011531082270799893
1746445088.0163603,-0.031025144193108534,-0.10730444700393958,-9.636374555020787,-0.0011651803064586389,0.005455122649602103,-0.0022238519429473133
1746445088.036514,0.024564625031871,-0.09668836741587424,-9.593826666317225,-0.007772367194837291,0.003287750427935391,-0.0010030518604973923
1746445088.0561635,0.12718382649238402,-0.38760326652530325,-9.665714667880902,-0.033848133597654574,0.008997848236415019,0.009933995960883683
