timestamp,angular_vel_x,angular_vel_y,angular_vel_z,linear_acc_x,linear_acc_y,linear_acc_z
1745666175.9351182,0.06981576234102249,-0.03718425706028938,-0.21944347023963928,0.560512363910675,-0.24363474547863007,-9.727508544921875
1745666175.935161,0.05529891327023506,-0.03159182146191597,-0.22238826751708984,0.7404088377952576,-0.71233069896698,-9.692631721496582
1745666175.9351966,0.07201092690229416,-0.03782564401626587,-0.22241175174713135,0.633212685585022,-0.609991192817688,-9.781486511230469
1745666175.935232,0.06283964961767197,-0.03133530169725418,-0.22151294350624084,0.666837215423584,-0.6883257627487183,-9.819564819335938
1745666175.951152,0.054076723754405975,-0.03607361763715744,-0.22118408977985382,0.8012124300003052,-0.7913945317268372,-9.748647689819336
1745666175.952983,0.05941133573651314,-0.04146425053477287,-0.22257021069526672,0.5584594011306763,-0.6702712774276733,-9.789817810058594
1745666175.9541268,0.047359030693769455,-0.03999054431915283,-0.22460050880908966,0.8143450617790222,-0.821302592754364,-9.854700088500977
1745666175.9566028,0.03332434967160225,-0.04277011379599571,-0.22555533051490784,0.5599955320358276,-0.6003745794296265,-9.882220268249512
1745666175.9586267,0.05288093164563179,-0.04084724187850952,-0.22586867213249207,0.6652639508247375,-0.8245976567268372,-9.682863235473633
1745666175.995534,0.03219131380319595,-0.033854879438877106,-0.2319660633802414,0.4256253242492676,-0.4704967439174652,-9.91795539855957
1745666175.9975266,0.07117258012294769,-0.04252639785408974,-0.23247449100017548,0.6939342021942139,-0.8075165748596191,-9.610430717468262
1745666176.0005789,0.05062342807650566,-0.052202679216861725,-0.23368923366069794,0.5598366856575012,-0.455646812915802,-9.476350784301758
1745666176.001208,0.05209251120686531,-0.03840263932943344,-0.23568212985992432,0.6006908416748047,-0.9038244485855103,-9.932746887207031
1745666176.03769,0.04933607950806618,-0.041534215211868286,-0.2344646006822586,0.5219299793243408,-0.7639427185058594,-9.846392631530762
1745666176.0472438,0.04624875634908676,-0.045313648879528046,-0.23615321516990662,0.6226440668106079,-0.771206259727478,-9.614668846130371
1745666176.047345,0.024141717702150345,-0.04613720253109932,-0.23767486214637756,0.7510905861854553,-0.780428946018219,-9.775049209594727
1745666176.0474143,0.037577468901872635,-0.04678233712911606,-0.23913952708244324,0.47838884592056274,-0.810502827167511,-10.024656295776367
1745666176.0474703,0.030843043699860573,-0.04090695083141327,-0.23932230472564697,0.6762614250183105,-0.618557870388031,-9.515480995178223
1745666176.0874512,0.010998936370015144,-0.043322037905454636,-0.24053092300891876,0.5131591558456421,-0.771624743938446,-9.602601051330566
1745666176.089226,0.049396760761737823,-0.04447537288069725,-0.24146883189678192,0.5979942083358765,-0.6192526817321777,-9.830044746398926
1745666176.0917306,0.014864671044051647,-0.04816765710711479,-0.24215836822986603,0.5432039499282837,-0.5489335656166077,-10.035819053649902
1745666176.0930138,0.05319210886955261,-0.03573954105377197,-0.2440272569656372,0.5301879048347473,-0.5948982238769531,-9.788087844848633
1745666176.1234777,0.020565852522850037,-0.026328612118959427,-0.2704266607761383,0.6602821350097656,-0.8171032667160034,-9.874859809875488
1745666176.1252472,0.03170127421617508,-0.028325477614998817,-0.26806116104125977,0.5259599685668945,-0.6784135103225708,-9.790864944458008
1745666176.1277845,0.031630970537662506,-0.025078386068344116,-0.27137669920921326,0.5429744720458984,-0.7081969976425171,-9.758203506469727
1745666176.128901,0.01266807597130537,-0.03304819017648697,-0.2716435492038727,0.6216744184494019,-0.9205835461616516,-9.780226707458496
1745666176.1684816,0.018890690058469772,-0.02304721251130104,-0.26957830786705017,0.4754522442817688,-0.7045522928237915,-9.704080581665039
1745666176.1690173,0.016153354197740555,-0.02915228344500065,-0.272197425365448,0.6506151556968689,-0.8945748209953308,-9.639894485473633
1745666176.1730535,0.005255646537989378,-0.024509349837899208,-0.27172917127609253,0.41712746024131775,-0.5014722943305969,-9.793696403503418
1745666176.1766002,0.01558704487979412,-0.022252514958381653,-0.27419888973236084,0.6037632822990417,-0.9472963213920593,-9.94500732421875
1745666176.2122235,0.02187882550060749,-0.030963456258177757,-0.2753658890724182,0.46845921874046326,-0.4126967489719391,-9.667219161987305
1745666176.2123375,0.0038010936696082354,-0.02073947712779045,-0.2736609876155853,0.523389458656311,-0.8802423477172852,-9.721460342407227
1745666176.2135222,0.032051049172878265,-0.02457239292562008,-0.27331745624542236,0.5005881190299988,-0.6903004050254822,-9.708949089050293
1745666176.2172644,0.004370709881186485,-0.01906575635075569,-0.27333638072013855,0.45858725905418396,-0.7153788805007935,-9.721598625183105
1745666176.217408,0.01991543546319008,-0.02393171936273575,-0.27268919348716736,0.6797373294830322,-0.8965253829956055,-9.723794937133789
1745666176.254929,0.015001768246293068,-0.023006491363048553,-0.2731940746307373,0.44548654556274414,-0.5981095433235168,-9.839716911315918
1745666176.2608526,0.01039627194404602,-0.020262455567717552,-0.27481144666671753,0.644274115562439,-0.882927417755127,-9.852992057800293
1745666176.2633758,0.0006299504893831909,-0.026249010115861893,-0.2746770977973938,0.49974188208580017,-0.6384279131889343,-9.658151626586914
1745666176.2679248,0.013408316299319267,-0.021057208999991417,-0.27556857466697693,0.5277698040008545,-0.8796411752700806,-9.651135444641113
1745666176.2957578,-0.0036503474693745375,-0.02148498222231865,-0.2763496935367584,0.5048266649246216,-0.5502133965492249,-9.658695220947266
1745666176.2975144,0.00515964487567544,-0.011939113028347492,-0.27692949771881104,0.4333731532096863,-0.803852379322052,-9.871129989624023
1745666176.299293,0.025896653532981873,-0.02129817195236683,-0.2762420177459717,0.6052392721176147,-0.506686806678772,-9.645119667053223
1745666176.3010592,0.0007633812492713332,-0.019280245527625084,-0.2772958278656006,0.4076361656188965,-0.6156293153762817,-9.84016227722168
1745666176.302009,0.03711680322885513,-0.015055236406624317,-0.277566522359848,0.6339842081069946,-0.7604915499687195,-9.860846519470215
1745666176.3410056,0.00311358948238194,-0.019281016662716866,-0.27893275022506714,0.6725317239761353,-0.7331787347793579,-9.74461555480957
1745666176.3427074,0.005999368615448475,-0.019955964758992195,-0.2820756137371063,0.42388564348220825,-0.8329392671585083,-9.674572944641113
1745666176.3446095,0.00863146223127842,-0.01914808712899685,-0.2797059118747711,0.6436520218849182,-0.6643231511116028,-9.610319137573242
1745666176.3470695,-0.014433866366744041,-0.017247185111045837,-0.281437486410141,0.4998667240142822,-0.7827845215797424,-9.91178035736084
1745666176.383912,0.026198679581284523,-0.009363270364701748,-0.27976638078689575,0.48833757638931274,-0.7841223478317261,-9.727147102355957
1745666176.3882122,-0.007379639893770218,-0.022165067493915558,-0.2775305211544037,0.5107077360153198,-0.592470109462738,-9.62768268585205
1745666176.3905454,0.021574217826128006,-0.013219070620834827,-0.27916795015335083,0.473680317401886,-0.7423858642578125,-9.857229232788086
1745666176.391892,0.017701562494039536,-0.017347019165754318,-0.27902278304100037,0.5829797983169556,-0.5413302183151245,-9.73647689819336
1745666176.4265823,0.013367213308811188,-0.014565831050276756,-0.28258004784584045,0.4690144956111908,-0.6941453814506531,-9.70899772644043
1745666176.430248,0.014185391366481781,-0.014783677645027637,-0.28216391801834106,0.6665087342262268,-0.8541688919067383,-9.658838272094727
1745666176.4332983,0.005619886796921492,-0.017510877922177315,-0.2823587954044342,0.4426727890968323,-0.813797116279602,-9.881409645080566
1745666176.4357557,0.0036725488025695086,-0.01129959337413311,-0.281255304813385,0.6056709885597229,-0.8383806943893433,-9.783178329467773
1745666176.4664204,-0.018262449651956558,-0.019396333023905754,-0.2811165153980255,0.5200310945510864,-0.9072381258010864,-9.744277000427246
1745666176.4684927,0.013357220217585564,-0.012691209092736244,-0.28203994035720825,0.4612545967102051,-0.6150888800621033,-9.645639419555664
1745666176.47112,0.0005149830249138176,-0.01851089484989643,-0.2848740220069885,0.6305086612701416,-0.9665189981460571,-9.794708251953125
1745666176.475264,-0.001792720751836896,-0.011778749525547028,-0.28509488701820374,0.3811001181602478,-0.4686453342437744,-9.694867134094238
1745666176.4791183,-0.013439307920634747,-0.010264107957482338,-0.2863033711910248,0.6104690432548523,-0.9269526600837708,-9.729822158813477
1745666176.5120833,0.01326638925820589,-0.018828552216291428,-0.2867550253868103,0.4200019836425781,-0.5056178569793701,-9.688394546508789
1745666176.5136385,-0.011524729430675507,-0.012042872607707977,-0.2868516147136688,0.4821825623512268,-0.662380576133728,-9.854058265686035
1745666176.5168009,0.007910685613751411,-0.017469555139541626,-0.28561997413635254,0.528685450553894,-0.771040678024292,-9.855352401733398
1745666176.5188441,0.009080282412469387,-0.009823804721236229,-0.28643351793289185,0.39517465233802795,-0.4921489357948303,-9.595270156860352
1745666176.553613,-0.002750739920884371,-0.01768409088253975,-0.28496113419532776,0.6259622573852539,-0.9629453420639038,-9.619980812072754
1745666176.5563397,0.010710065253078938,-0.01711178384721279,-0.28596851229667664,0.4475649893283844,-0.6102490425109863,-9.911417007446289
1745666176.5575802,-0.0033364039845764637,-0.013411316089332104,-0.2834245264530182,0.6140156388282776,-0.9046179056167603,-10.009237289428711
1745666176.5678005,-0.0007422480848617852,-0.016527825966477394,-0.2840089499950409,0.44853144884109497,-0.4828539788722992,-9.639938354492188
1745666176.5678968,-0.0073606036603450775,-0.01722865179181099,-0.28634557127952576,0.5030986070632935,-0.8457897305488586,-9.592567443847656
1745666176.5978775,0.004735470749437809,-0.019011572003364563,-0.28701817989349365,0.5337960124015808,-0.561464786529541,-9.713244438171387
1745666176.5994346,-0.01831320859491825,-0.012907931581139565,-0.2879391312599182,0.4762910306453705,-0.6012957692146301,-9.926627159118652
1745666176.600894,0.00678734015673399,-0.01618608459830284,-0.2885315716266632,0.5333813428878784,-0.8587526082992554,-9.770363807678223
1745666176.60272,-0.00410431856289506,-0.014844377525150776,-0.288887619972229,0.35336431860923767,-0.3821459114551544,-9.573379516601562
1745666176.6411016,0.0012866302859038115,-0.017948489636182785,-0.2870160937309265,0.6043370962142944,-0.8981348276138306,-9.773747444152832
1745666176.6435053,0.006279113702476025,-0.015384124591946602,-0.286357581615448,0.39405661821365356,-0.466139018535614,-9.815289497375488
1745666176.6455421,0.003588526975363493,-0.011836493387818336,-0.28837162256240845,0.5606043934822083,-0.8021396398544312,-9.733732223510742
1745666176.64859,0.004911734722554684,-0.020475761964917183,-0.28659576177597046,0.5155373811721802,-0.6988272666931152,-9.668152809143066
1745666176.6497538,0.0017611946677789092,-0.012039050459861755,-0.2863596975803375,0.4364871084690094,-0.7565947771072388,-9.814455032348633
1745666176.6873767,0.003047076053917408,-0.017472129315137863,-0.2856152355670929,0.6103066802024841,-0.6792138814926147,-9.736849784851074
1745666176.6902173,-0.004609514959156513,-0.01040993258357048,-0.2875789701938629,0.43294399976730347,-0.7926110625267029,-9.843501091003418
1745666176.6915054,0.011673731729388237,-0.01498718373477459,-0.2864407002925873,0.5496084094047546,-0.6757985353469849,-9.631097793579102
1745666176.6937158,0.0006803061696700752,-0.014992852695286274,-0.2849824130535126,0.3853607177734375,-0.5821934938430786,-9.714162826538086
1745666176.7275133,0.006364057306200266,-0.016547318547964096,-0.2859582304954529,0.5947064161300659,-0.7508792281150818,-9.885114669799805
1745666176.7297487,0.001517261378467083,-0.014574888162314892,-0.28772056102752686,0.39063021540641785,-0.5287691354751587,-9.80357837677002
1745666176.7317483,0.018682116642594337,-0.010332266800105572,-0.28690868616104126,0.5526806712150574,-0.665370523929596,-9.547323226928711
1745666176.7337751,-0.009607404470443726,-0.016917940229177475,-0.29014071822166443,0.46256929636001587,-0.6557759046554565,-9.693891525268555
1745666176.7785418,0.01608406938612461,-0.010309851728379726,-0.2878762185573578,0.48156818747520447,-0.8184053301811218,-10.001474380493164
1745666176.7786863,0.0034703281708061695,-0.019661638885736465,-0.28758177161216736,0.5320214629173279,-0.5915068984031677,-9.758919715881348
1745666176.7791336,-0.003465516958385706,-0.00839344970881939,-0.2883404493331909,0.3771858513355255,-0.7858582139015198,-9.65527057647705
1745666176.7791958,0.01930087059736252,-0.011608277447521687,-0.28720623254776,0.5594839453697205,-0.5940802693367004,-9.545145034790039
1745666176.8115628,-0.005591783206909895,-0.014902274124324322,-0.2874147891998291,0.4270001947879791,-0.619934618473053,-9.87800407409668
1745666176.815268,0.020257171243429184,-0.009045271202921867,-0.28629016876220703,0.5500699877738953,-0.7389779090881348,-9.944997787475586
1745666176.818334,0.03292577713727951,-0.012768810614943504,-0.28296422958374023,0.3816451132297516,-0.551451563835144,-9.817587852478027
1745666176.8212855,0.016174785792827606,-0.020291894674301147,-0.2834875285625458,0.5826470851898193,-0.7956350445747375,-9.815095901489258
1745666176.8551326,0.020937945693731308,-0.01564190536737442,-0.2840477526187897,0.3591426908969879,-0.5793596506118774,-9.726068496704102
1745666176.8582602,0.016397735103964806,-0.015612726099789143,-0.28609028458595276,0.553195595741272,-0.8269432187080383,-9.614853858947754
1745666176.8600688,0.020537853240966797,-0.01975332200527191,-0.28551286458969116,0.45215052366256714,-0.5866969227790833,-9.657966613769531
1745666176.8640423,0.0032165036536753178,-0.011750327423214912,-0.28325527906417847,0.486471563577652,-0.800641655921936,-9.96466064453125
1745666176.8986173,0.020000729709863663,-0.01978006772696972,-0.2853597402572632,0.512908935546875,-0.7606304883956909,-9.866265296936035
1745666176.901113,0.01288280077278614,-0.014910790137946606,-0.2843477129936218,0.41480937600135803,-0.45262041687965393,-9.538488388061523
1745666176.9039352,0.0039185164496302605,-0.021322673186659813,-0.28538334369659424,0.616329550743103,-0.9663875699043274,-9.649831771850586
1745666176.9060178,0.026057589799165726,-0.015466777607798576,-0.2819530665874481,0.33009636402130127,-0.42452168464660645,-9.838451385498047
1745666176.9077458,0.007722633890807629,-0.014508734457194805,-0.2835606336593628,0.6018487811088562,-0.8299212455749512,-9.909056663513184
1745666176.9437957,0.018198993057012558,-0.019960306584835052,-0.28361183404922485,0.3806532919406891,-0.6381487846374512,-9.680954933166504
1745666176.9473083,0.01773417741060257,-0.01669176295399666,-0.2832466661930084,0.48202505707740784,-0.7248569130897522,-9.671523094177246
1745666176.9494748,0.006217389367520809,-0.023156393319368362,-0.28285571932792664,0.45482057332992554,-0.7489187121391296,-9.83476448059082
1745666176.9515915,0.008884619921445847,-0.013217635452747345,-0.28438225388526917,0.39045804738998413,-0.6082689166069031,-9.779764175415039
1745666176.9845736,0.01862986944615841,-0.02187894657254219,-0.2817964255809784,0.6055195927619934,-0.7926127314567566,-9.57573413848877
1745666176.9871495,0.004845301620662212,-0.01654864475131035,-0.28428977727890015,0.31547826528549194,-0.4560660719871521,-9.690649032592773
1745666176.9899173,0.009714400395751,-0.017456762492656708,-0.2791179120540619,0.5006205439567566,-1.0652505159378052,-9.957082748413086
1745666176.991912,0.015369340777397156,-0.027750175446271896,-0.27662545442581177,0.21317557990550995,-0.5900635123252869,-9.833311080932617
1745666177.0264606,-0.009297629818320274,-0.01572658121585846,-0.27424612641334534,0.23616771399974823,-0.8695188760757446,-9.669275283813477
1745666177.0293283,0.009543982334434986,-0.023516476154327393,-0.2730832099914551,0.26450228691101074,-0.6251447796821594,-9.504926681518555
1745666177.0374055,-0.009205285459756851,-0.019705042243003845,-0.2720336318016052,0.330037921667099,-0.5842328071594238,-9.72485065460205
1745666177.0374463,-0.020699113607406616,-0.029577672481536865,-0.260748028755188,0.31877294182777405,-0.5159817337989807,-9.79262924194336
1745666177.0390947,-0.0075090182945132256,-0.023019833490252495,-0.2622152268886566,0.3079145550727844,-0.6277831196784973,-9.738452911376953
1745666177.0702627,-0.007486242800951004,-0.032547011971473694,-0.26316696405410767,0.455627977848053,-0.5281664133071899,-9.618306159973145
1745666177.072773,-0.008245391771197319,-0.028717562556266785,-0.2645980715751648,0.18764159083366394,-0.5243649482727051,-9.956059455871582
1745666177.0731733,0.005302340257912874,-0.030752703547477722,-0.2622970640659332,0.4703419804573059,-0.8064051866531372,-9.809202194213867
1745666177.0798442,-0.013408610597252846,-0.024533236399292946,-0.2602832317352295,0.29129666090011597,-0.6035085916519165,-9.521203994750977
1745666177.11136,-0.006587586365640163,-0.02598964236676693,-0.26053017377853394,0.4281507432460785,-0.8981246948242188,-9.591351509094238
1745666177.11329,-0.018878433853387833,-0.034626297652721405,-0.2568053603172302,0.4593392014503479,-0.6610137820243835,-9.855142593383789
1745666177.1156373,-0.015055187046527863,-0.02445034496486187,-0.2551545798778534,0.341801255941391,-0.7534480094909668,-10.071435928344727
1745666177.1186583,-0.017575420439243317,-0.028848474845290184,-0.255562424659729,0.45918750762939453,-0.694369912147522,-9.665375709533691
1745666177.1202316,-0.02226261980831623,-0.02767237089574337,-0.2571079134941101,0.22208337485790253,-0.3972448706626892,-9.490968704223633
1745666177.157719,-0.017584025859832764,-0.0297275148332119,-0.25498291850090027,0.4216349720954895,-0.8080042600631714,-9.768567085266113
1745666177.1609564,-0.006586533971130848,-0.027327993884682655,-0.25694960355758667,0.275334894657135,-0.42541056871414185,-9.883143424987793
1745666177.1637616,-0.015456114895641804,-0.022922856733202934,-0.2562321126461029,0.49865275621414185,-0.6448070406913757,-9.74827766418457
1745666177.202305,-0.012302840128540993,-0.011564594693481922,-0.2431030571460724,0.2955969274044037,-0.4585409164428711,-9.819162368774414
1745666177.2024055,-0.02575809881091118,-0.02310597337782383,-0.24140195548534393,0.38869979977607727,-0.7462068796157837,-9.592703819274902
1745666177.2041836,-0.010364120826125145,-0.01774449832737446,-0.23995070159435272,0.25927406549453735,-0.45436030626296997,-9.637697219848633
1745666177.2058947,-0.03244100511074066,-0.0200117789208889,-0.24077963829040527,0.4590362012386322,-0.785298228263855,-9.96411418914795
1745666177.209855,-0.0008560364367440343,-0.01612090691924095,-0.24030843377113342,0.2223200798034668,-0.4164876341819763,-9.816953659057617
1745666177.2433977,-0.031218435615301132,-0.012532535009086132,-0.23905816674232483,0.4062874913215637,-0.6461821794509888,-9.583494186401367
1745666177.247183,-0.013521336019039154,-0.021410364657640457,-0.237700417637825,0.368781179189682,-0.7025303244590759,-9.712580680847168
1745666177.2491832,-0.0107302600517869,-0.012197205796837807,-0.23887941241264343,0.36282259225845337,-0.4234379827976227,-9.835854530334473
1745666177.2517557,-0.03581104427576065,-0.01828298345208168,-0.23746387660503387,0.35534173250198364,-0.845486044883728,-9.985883712768555
1745666177.2853673,0.0008670214447192848,-0.009012066759169102,-0.2383577525615692,0.1889468878507614,-0.30408239364624023,-9.622648239135742
1745666177.2869177,-0.03395775705575943,-0.018325116485357285,-0.23632077872753143,0.5019158124923706,-0.7636725902557373,-9.638972282409668
1745666177.2880504,-0.009429561905562878,-0.017728310078382492,-0.2406253069639206,0.3595998287200928,-0.40706196427345276,-9.886334419250488
1745666177.2907717,-0.02211242914199829,-0.012063276022672653,-0.23817500472068787,0.4562711715698242,-0.5822632908821106,-9.920286178588867
1745666177.2936766,-0.01547003723680973,-0.016042381525039673,-0.24165546894073486,0.3293520212173462,-0.5979183316230774,-9.708759307861328
1745666177.3283706,-0.011162737384438515,-0.010875438340008259,-0.23886331915855408,0.4237433075904846,-0.5495463609695435,-9.577507019042969
1745666177.332784,-0.023636747151613235,-0.021059464663267136,-0.23670360445976257,0.4545466899871826,-0.788196861743927,-9.888412475585938
1745666177.3357842,-0.012850719504058361,-0.008133002556860447,-0.2387535274028778,0.2373349666595459,-0.33666563034057617,-9.887414932250977
1745666177.3403049,-0.02995017170906067,-0.014977695420384407,-0.23745134472846985,0.42300766706466675,-0.8206307291984558,-9.719958305358887
1745666177.3712354,-0.005282911937683821,-0.011224767193198204,-0.24044828116893768,0.23364455997943878,-0.3637266159057617,-9.526410102844238
1745666177.3736823,-0.034494344145059586,-0.012658627703785896,-0.24040718376636505,0.5196337699890137,-0.6218932867050171,-9.83823013305664
1745666177.3753822,-0.017901865765452385,-0.014753120020031929,-0.24088719487190247,0.33085596561431885,-0.6785162687301636,-10.059419631958008
1745666177.37839,-0.025316830724477768,-0.00863475538790226,-0.24187083542346954,0.3835422098636627,-0.47424811124801636,-9.9025297164917
1745666177.4157724,-0.012804453261196613,-0.013180917128920555,-0.23715683817863464,0.37072888016700745,-0.7729910612106323,-9.825008392333984
1745666177.4192038,-0.009149511344730854,-0.004895727150142193,-0.23574979603290558,0.1660747081041336,-0.35793909430503845,-9.555269241333008
1745666177.4223294,-0.037974100559949875,-0.01104489341378212,-0.2312917411327362,0.3513091206550598,-0.8858137130737305,-9.717569351196289
1745666177.4234545,-0.01369432546198368,-0.020062921568751335,-0.22963209450244904,0.08499127626419067,-0.6322555541992188,-10.024195671081543
1745666177.4584188,-0.046531401574611664,-0.00798840168863535,-0.2268342673778534,0.06756184995174408,-0.6663482785224915,-9.933486938476562
1745666177.4630814,-0.03699631989002228,-0.011503596790134907,-0.2264293134212494,-0.03861461207270622,-0.5358787775039673,-9.475458145141602
1745666177.4684525,-0.04405040293931961,-0.014668921008706093,-0.2253318727016449,0.22447676956653595,-0.406688392162323,-9.368548393249512
1745666177.4733298,-0.050236426293849945,-0.023877756670117378,-0.22533586621284485,0.34171897172927856,-0.5439097285270691,-10.055475234985352
1745666177.47795,-0.03724025562405586,-0.013525272719562054,-0.2231893539428711,0.21402771770954132,-0.47043856978416443,-10.245113372802734
1745666177.5021317,-0.042365916073322296,-0.018037235364317894,-0.21881814301013947,0.29801610112190247,-0.6149696707725525,-9.620831489562988
1745666177.504207,-0.040034759789705276,-0.02154809609055519,-0.21009445190429688,0.15852978825569153,-0.5969643592834473,-9.415809631347656
1745666177.5065885,-0.03854737803339958,-0.025393778458237648,-0.2072998285293579,0.28751519322395325,-0.5651919841766357,-9.817679405212402
1745666177.508427,-0.026950186118483543,-0.022250797599554062,-0.20712395012378693,0.020369509235024452,-0.2527661919593811,-10.041006088256836
1745666177.542464,-0.022522861137986183,-0.013270427472889423,-0.20674876868724823,0.13591082394123077,-0.4059654176235199,-9.63082504272461
1745666177.545042,-0.03633673116564751,-0.022195305675268173,-0.17177367210388184,0.24456648528575897,-0.3136741518974304,-9.486979484558105
1745666177.5484889,-0.034780144691467285,-0.029110878705978394,-0.17289134860038757,0.19529512524604797,-0.3218941390514374,-9.762595176696777
1745666177.5496173,-0.023748045787215233,-0.02046753466129303,-0.17182867228984833,0.2890011668205261,-0.32070714235305786,-10.061749458312988
1745666177.551962,-0.045836176723241806,-0.020837437361478806,-0.16917051374912262,0.18531426787376404,-0.7045296430587769,-9.952190399169922
1745666177.5877774,-0.01671624183654785,-0.014108255505561829,-0.16372719407081604,0.18862588703632355,-0.42882901430130005,-9.400869369506836
1745666177.590747,-0.048510245978832245,-0.02581072226166725,-0.1580933928489685,0.3218924403190613,-0.5706334114074707,-9.654566764831543
1745666177.5920424,-0.028893882408738136,-0.022169947624206543,-0.15809175372123718,0.1080806702375412,-0.3519994020462036,-10.199874877929688
1745666177.5921366,-0.026071611791849136,-0.014716694131493568,-0.1568465232849121,0.3597295880317688,-0.27221381664276123,-9.886882781982422
1745666177.6293852,-0.030188050121068954,-0.01824701577425003,-0.1610363870859146,0.08205320686101913,-0.2562200427055359,-9.564830780029297
1745666177.631929,-0.023498091846704483,-0.022118624299764633,-0.15966622531414032,0.18179777264595032,-0.3527466058731079,-9.707700729370117
1745666177.6363037,-0.03392578288912773,-0.02535487711429596,-0.1595154106616974,0.22930081188678741,-0.47546499967575073,-9.954595565795898
1745666177.6364052,-0.027056097984313965,-0.008562418632209301,-0.1576058715581894,0.17736950516700745,-0.3907436728477478,-9.798919677734375
1745666177.6380112,-0.03808528929948807,-0.021168429404497147,-0.15765944123268127,0.31317487359046936,-0.606944739818573,-9.632936477661133
1745666177.6765585,-0.02714826725423336,-0.017725037410855293,-0.15483516454696655,0.24775159358978271,-0.3051151633262634,-9.751338958740234
1745666177.6834183,-0.046558670699596405,-0.014186340384185314,-0.15175709128379822,0.3846057951450348,-0.45019030570983887,-9.994119644165039
1745666177.6849926,-0.02188986912369728,-0.016591381281614304,-0.15166865289211273,0.06836812198162079,-0.2653946876525879,-9.938709259033203
1745666177.6860774,-0.024609748274087906,-0.014286985620856285,-0.1515423208475113,0.23924598097801208,-0.3752382695674896,-9.625215530395508
1745666177.7159102,-0.024098409339785576,-0.018107278272509575,-0.1502602994441986,0.05467470362782478,-0.2962817847728729,-9.688451766967773
1745666177.7176354,-0.02029493637382984,-0.01143777184188366,-0.1478845179080963,0.11579857766628265,-0.3733442425727844,-9.811710357666016
1745666177.7191403,-0.02504606917500496,-0.014429239556193352,-0.1479247510433197,0.2888830602169037,-0.42689424753189087,-9.78962516784668
1745666177.720299,-0.021980784833431244,-0.005922193638980389,-0.1491876095533371,0.12357287108898163,-0.21193961799144745,-9.795990943908691
1745666177.7584505,-0.031864095479249954,-0.012847265228629112,-0.1330922544002533,0.39818647503852844,-0.6482188701629639,-9.648746490478516
1745666177.7597373,-0.03084501065313816,-0.005583287216722965,-0.12932412326335907,0.12297471612691879,-0.509809136390686,-10.044937133789062
1745666177.7680511,-0.029249917715787888,0.005347263999283314,-0.12738271057605743,0.19863060116767883,-0.2782512307167053,-9.740801811218262
1745666177.7681336,-0.05304861068725586,-0.009839239530265331,-0.12521770596504211,0.28572794795036316,-0.4303361475467682,-9.553449630737305
1745666177.8012044,-0.02646569348871708,-0.004072090610861778,-0.12442878633737564,0.3056657910346985,-0.08710705488920212,-9.81216812133789
1745666177.8036823,-0.049299515783786774,-0.008318329229950905,-0.125547856092453,0.234272763133049,-0.35758647322654724,-10.256607055664062
1745666177.80638,-0.014975028112530708,-0.0032102682162076235,-0.12252265214920044,0.018854964524507523,-0.061481576412916183,-9.75075626373291
1745666177.8088613,-0.04131574556231499,-0.0024341740645468235,-0.1197492703795433,0.36570876836776733,-0.43699875473976135,-9.25367546081543
1745666177.8102732,-0.022708440199494362,-0.007933682762086391,-0.11492421478033066,0.08500899374485016,-0.15377917885780334,-9.795896530151367
1745666177.8493845,-0.020503055304288864,-0.004289987031370401,-0.11241068691015244,0.30574390292167664,-0.3419141471385956,-10.184932708740234
1745666177.8507667,-0.009105728939175606,-0.0004036023165099323,-0.10989079624414444,0.1720682680606842,-0.2975536584854126,-9.881071090698242
1745666177.852628,-0.0021958693396300077,0.004429365508258343,-0.10752465575933456,0.20015349984169006,-0.20592038333415985,-9.383557319641113
1745666177.861555,-0.023075470700860023,-0.014061602763831615,-0.10441979020833969,0.22917859256267548,-0.5023416876792908,-9.797154426574707
1745666177.886199,-0.011366872116923332,0.001598410657607019,-0.10372944176197052,0.09908455610275269,-0.3528779447078705,-10.096857070922852
1745666177.8893495,-0.02412179857492447,0.006285605486482382,-0.10057959705591202,0.27471107244491577,-0.5373574495315552,-9.734930038452148
1745666177.8905246,-0.0378761887550354,0.015496362932026386,-0.0485621802508831,0.23064327239990234,-0.3571600019931793,-9.882352828979492
1745666177.8930109,-0.04175424203276634,0.007545867469161749,-0.04398661106824875,0.31898167729377747,-0.34284281730651855,-9.837125778198242
1745666177.8962014,-0.040342386811971664,0.009536695666611195,-0.042509373277425766,0.31566911935806274,-0.16423669457435608,-9.615772247314453
1745666177.933235,-0.05207033082842827,0.006280133035033941,-0.03977232426404953,0.45287027955055237,-0.3420540988445282,-9.822671890258789
1745666177.9332879,-0.047608789056539536,0.005994930863380432,-0.038201313465833664,0.1438591182231903,-0.11350023746490479,-10.018472671508789
1745666177.9350114,-0.048498496413230896,0.010673466138541698,-0.034686826169490814,0.39372116327285767,-0.36244767904281616,-9.649202346801758
1745666177.939582,-0.05987437814474106,0.0053145186975598335,-0.032026343047618866,0.22825129330158234,-0.08730438351631165,-9.539956092834473
1745666177.9720402,-0.04463540017604828,0.006026264280080795,-0.02983160689473152,0.2278917133808136,-0.2600521445274353,-9.882070541381836
1745666177.9749053,-0.05234992504119873,0.005170100834220648,-0.026264458894729614,0.29909801483154297,-0.05569571256637573,-9.895845413208008
1745666177.9770193,-0.032448120415210724,0.017876848578453064,-0.023860719054937363,0.1613469123840332,-0.20310337841510773,-9.756060600280762
1745666177.9793065,-0.039854928851127625,0.001021906966343522,-0.021173322573304176,0.39040082693099976,-0.15264259278774261,-9.510432243347168
1745666177.983642,-0.038355860859155655,0.005626173689961433,-0.018725279718637466,0.2251012623310089,-0.22070583701133728,-9.912951469421387
1745666178.0180776,-0.028728043660521507,0.011287049390375614,-0.01411011628806591,0.2942754924297333,-0.28927403688430786,-9.974508285522461
1745666178.0263433,-0.043636493384838104,0.009462790563702583,-0.014045925810933113,0.19079580903053284,-0.3024006485939026,-9.572332382202148
1745666178.026449,-0.04373401030898094,0.009308740496635437,-0.008150597102940083,0.3045892119407654,-0.3103100657463074,-9.539320945739746
1745666178.0265114,-0.06199188902974129,0.0031798630952835083,-0.00787862204015255,0.3139277696609497,-0.3760039210319519,-9.94668197631836
1745666178.0624683,-0.05259548872709274,0.013712979853153229,-0.005387702025473118,0.2362125664949417,-0.13685524463653564,-9.999832153320312
1745666178.0631433,-0.07263462990522385,0.00766376405954361,-0.005982686765491962,0.40084701776504517,-0.3745684325695038,-9.662572860717773
1745666178.0650594,-0.06360834836959839,0.008568743243813515,-0.00013440396287478507,0.18807563185691833,-0.1644870787858963,-9.583183288574219
1745666178.0684006,-0.07613886147737503,0.008436424657702446,0.002269290154799819,0.43015509843826294,-0.3237948715686798,-9.761063575744629
1745666178.1046693,-0.07336001098155975,0.012611987069249153,0.008219383656978607,0.21992972493171692,-0.28582674264907837,-10.007028579711914
1745666178.108401,-0.05782840773463249,0.011074515990912914,0.03485608100891113,0.30961593985557556,-0.11659924685955048,-9.59112548828125
1745666178.1152067,-0.056962620466947556,0.019711026921868324,0.03728128597140312,0.29937639832496643,-0.02634074166417122,-9.568914413452148
1745666178.11762,-0.06542505323886871,0.0057563199661672115,0.04247276857495308,0.34441742300987244,-0.28348734974861145,-9.943633079528809
1745666178.1209948,-0.04927259683609009,0.013174066320061684,0.04381353035569191,0.2617463767528534,-0.1258183717727661,-9.928175926208496
1745666178.146997,-0.07159076631069183,0.020430874079465866,0.04823494330048561,0.3130260109901428,-0.2501598596572876,-9.671209335327148
1745666178.1495943,-0.07094638049602509,0.008871222846210003,0.04688229411840439,0.1189752072095871,-0.2425251007080078,-9.612320899963379
1745666178.15196,-0.0805407240986824,0.01343913096934557,0.049675069749355316,0.46314454078674316,-0.18556790053844452,-9.645559310913086
1745666178.1553361,-0.10026349127292633,0.015057817101478577,0.05261031910777092,0.3264293074607849,-0.3172432780265808,-10.084840774536133
1745666178.1885407,-0.08526015281677246,0.015390980057418346,0.05334653705358505,0.3108641505241394,-0.06842633336782455,-9.83794116973877
1745666178.190742,-0.11113200336694717,0.008191974833607674,0.056891847401857376,0.44976505637168884,-0.2288200408220291,-9.546333312988281
1745666178.1928558,-0.09299661964178085,0.01462351530790329,0.05896162986755371,0.2794113755226135,-0.037307433784008026,-9.78141975402832
1745666178.1962292,-0.09597201645374298,0.012767596170306206,0.0660741776227951,0.3731640875339508,-0.06398753821849823,-9.903817176818848
1745666178.2319276,-0.09014926850795746,0.013351197354495525,0.066628098487854,0.22215454280376434,0.1874237209558487,-9.769990921020508
1745666178.2337058,-0.06758742034435272,0.009510872885584831,0.06710001081228256,0.36268338561058044,0.14374086260795593,-9.638875007629395
1745666178.2361226,-0.0643644705414772,0.009902571327984333,0.06562120467424393,0.06962820887565613,0.39030084013938904,-9.859052658081055
1745666178.2385845,-0.08952537924051285,-0.018181221559643745,0.07195509970188141,0.26138871908187866,0.12582384049892426,-9.697458267211914
1745666178.2401366,-0.06155773997306824,-0.008803422562777996,0.07371625304222107,0.21230152249336243,0.26634693145751953,-9.924728393554688
1745666178.277945,-0.07813993841409683,-0.017518609762191772,0.07394161075353622,0.2874946892261505,0.0618867389857769,-9.847040176391602
1745666178.2819688,-0.060968466103076935,-0.012142504565417767,0.07478891313076019,0.2440153807401657,0.21804973483085632,-9.689702033996582
1745666178.285631,-0.06503291428089142,-0.014478112570941448,0.07661837339401245,0.3922293782234192,0.06922055035829544,-9.760623931884766
1745666178.2872422,-0.06594391167163849,-0.018689747899770737,0.07552343606948853,0.1424674242734909,0.18102851510047913,-9.975465774536133
1745666178.3183026,-0.05896425247192383,-0.015434089116752148,0.07397448271512985,0.31324753165245056,0.08443409204483032,-9.822301864624023
1745666178.320476,-0.07348547875881195,-0.016589617356657982,0.07534229755401611,0.20155560970306396,-0.03399822860956192,-9.728836059570312
1745666178.325175,-0.060149967670440674,-0.013218507170677185,0.07584108412265778,0.14301452040672302,0.1369953453540802,-9.615734100341797
1745666178.328399,-0.08849474042654037,-0.016394158825278282,0.07861129194498062,0.24297168850898743,-0.2030601054430008,-9.852678298950195
1745666178.3314712,-0.07244395464658737,-0.016628937795758247,0.08101699501276016,0.38675495982170105,0.10853073745965958,-9.747164726257324
1745666178.3654277,-0.09126361459493637,-0.010959232226014137,0.08518803119659424,0.49777698516845703,-0.05371091887354851,-9.949246406555176
1745666178.3704512,-0.08635051548480988,-0.011346296407282352,0.08648160845041275,0.32444319128990173,0.26324015855789185,-9.858404159545898
1745666178.375233,-0.08938992023468018,-0.016041941940784454,0.08677574247121811,0.5499314069747925,0.14256425201892853,-9.643311500549316
1745666178.3792944,-0.08620183169841766,-0.02023530751466751,0.08973268419504166,0.4709068238735199,0.30276456475257874,-9.756048202514648
1745666178.4047186,-0.07852090895175934,-0.004216717556118965,0.08982007205486298,0.2969237267971039,0.4250732958316803,-10.05132007598877
1745666178.4106967,-0.06622602790594101,-0.018200712278485298,0.09308244287967682,0.3840639889240265,0.33933553099632263,-9.705596923828125
1745666178.4107597,-0.0552460178732872,-0.008073617704212666,0.09278479218482971,0.2867274880409241,0.6446227431297302,-9.537483215332031
1745666178.4108002,-0.04304187744855881,-0.01713443361222744,0.09229052066802979,0.41640225052833557,0.2870863080024719,-9.909245491027832
1745666178.4120467,-0.018633782863616943,-0.008346201851963997,0.09491701424121857,0.20106592774391174,0.6020137071609497,-10.001994132995605
1745666178.447587,-0.021061645820736885,-0.006009419448673725,0.09396142512559891,0.3348700702190399,0.11952261626720428,-9.728071212768555
1745666178.450952,-0.014394551515579224,-0.010137944482266903,0.09754718095064163,0.30712926387786865,0.07077260315418243,-9.502392768859863
1745666178.4545424,-0.08977712690830231,-0.005601282697170973,0.1055692657828331,0.3959718942642212,-0.02738095447421074,-10.11817741394043
1745666178.4549828,-0.07574466615915298,-0.004757331684231758,0.10572747141122818,0.31559333205223083,0.20631027221679688,-9.762002944946289
1745666178.492084,-0.07480993121862411,0.005147864110767841,0.10972745716571808,0.2957313060760498,0.38371795415878296,-9.506170272827148
1745666178.4946363,-0.08060641586780548,-0.013901946134865284,0.10977480560541153,0.33694037795066833,0.15217450261116028,-9.835739135742188
1745666178.4960613,-0.0389067605137825,0.0010275265667587519,0.11408688127994537,0.3902745246887207,0.6290485262870789,-9.924736976623535
1745666178.4988623,-0.05996845290064812,0.0052558742463588715,0.1158531904220581,0.4297916293144226,0.2460387647151947,-9.925561904907227
1745666178.5343308,-0.023662859573960304,-0.005169187672436237,0.11613219976425171,0.3201346695423126,0.5401754975318909,-9.61400032043457
1745666178.5365517,-0.030497346073389053,-0.004202139563858509,0.11603446304798126,0.547761082649231,0.3972617983818054,-9.695207595825195
1745666178.53857,-0.032289937138557434,-0.0011070721084252,0.11723893880844116,0.24831745028495789,0.21799370646476746,-10.088162422180176
1745666178.5412326,-0.014486501924693584,0.0038064017426222563,0.11741918325424194,0.38179126381874084,0.2888076901435852,-9.699165344238281
1745666178.5777626,-0.04759179428219795,-0.002902944339439273,0.11926541477441788,0.40300488471984863,0.032361485064029694,-9.54925537109375
1745666178.5828607,-0.024643387645483017,0.002229957142844796,0.12086381018161774,0.33683428168296814,0.21098363399505615,-9.769969940185547
1745666178.5870118,-0.05613075569272041,-0.00013540350482799113,0.11984968185424805,0.4360010027885437,0.08782046288251877,-10.082405090332031
1745666178.5893512,-0.04305259883403778,0.002466863486915827,0.12403669208288193,0.2794974446296692,0.12730827927589417,-9.798852920532227
1745666178.618362,-0.03192676231265068,-0.001977044390514493,0.11378385871648788,0.3378963768482208,0.09911255538463593,-9.815475463867188
1745666178.6207137,-0.054325588047504425,-0.01018994115293026,0.114626944065094,0.32036930322647095,0.1117577776312828,-9.79548454284668
1745666178.6233227,-0.047382473945617676,-0.006856097374111414,0.11605191230773926,0.11764214932918549,0.32033228874206543,-9.8356351852417
1745666178.6266007,-0.0363871231675148,-0.010349802672863007,0.11756845563650131,0.39983218908309937,0.287553608417511,-9.647509574890137
1745666178.630767,-0.03565870597958565,-0.001823166967369616,0.11562031507492065,0.17391134798526764,0.5736672878265381,-9.751336097717285
1745666178.6637447,-0.01996638998389244,-0.010403631255030632,0.11630983650684357,0.32822608947753906,0.32183197140693665,-9.840609550476074
1745666178.6723092,-0.015633350238204002,-0.010084111243486404,0.11389952898025513,0.20500357449054718,0.603622555732727,-9.724662780761719
1745666178.6751094,-0.011128714308142662,-0.0020987060852348804,0.11318857967853546,0.324199914932251,0.3948332667350769,-9.773537635803223
1745666178.6766794,-0.012919953092932701,-0.01407823245972395,0.11160652339458466,0.32356128096580505,0.30262449383735657,-9.81696891784668
1745666178.706238,-0.005789582617580891,-0.010221133008599281,0.11056424677371979,0.2797963619232178,0.5183676481246948,-9.766912460327148
1745666178.708599,-0.018122099339962006,-0.012932945974171162,0.11021383106708527,0.4852970540523529,0.15167424082756042,-9.765318870544434
1745666178.7105181,-0.008573773317039013,-0.008916481398046017,0.10830919444561005,0.18328137695789337,0.43777188658714294,-9.812665939331055
1745666178.7204957,-0.013670826330780983,-0.012837273068726063,0.11043556034564972,0.40384846925735474,0.1975921094417572,-9.747819900512695
1745666178.749835,-0.011936883442103863,-0.015176217071712017,0.10989868640899658,0.22041818499565125,0.34884724020957947,-9.774691581726074
1745666178.7522728,-0.004003418143838644,-0.01348238717764616,0.1100299209356308,0.2371738851070404,0.3049268424510956,-9.813119888305664
1745666178.7545493,-0.010645465925335884,-0.014854848384857178,0.11182630062103271,0.25268587470054626,0.28551048040390015,-9.744120597839355
1745666178.7560005,0.0017671979730948806,-0.00840091984719038,0.10955053567886353,0.1423872411251068,0.42140325903892517,-9.709028244018555
1745666178.7565045,-0.005409914068877697,-0.01385621726512909,0.11274997144937515,0.3559269607067108,0.15802471339702606,-9.690898895263672
1745666178.7933655,4.1093677282333374e-05,-0.010408321395516396,0.11134495586156845,0.19536328315734863,0.41698646545410156,-9.806397438049316
1745666178.796201,-0.0116281034424901,-0.010209955275058746,0.11053922027349472,0.46964970231056213,0.15713927149772644,-9.826495170593262
1745666178.7979505,-0.004412819165736437,-0.013145113363862038,0.11169745773077011,0.26970428228378296,0.32923197746276855,-9.800557136535645
1745666178.7994502,-0.010487968102097511,-0.006164914928376675,0.1106889620423317,0.3636694848537445,0.39790210127830505,-9.738484382629395
1745666178.8343685,0.008673252537846565,-0.01166115514934063,0.1098586767911911,0.4201914668083191,0.29444488883018494,-9.795681953430176
1745666178.8368115,0.02110990509390831,-0.006439916789531708,0.10956208407878876,0.12302236258983612,0.4391404986381531,-9.85423755645752
1745666178.8391886,0.02764229103922844,-0.012493026442825794,0.10958709567785263,0.33476272225379944,0.3000409007072449,-9.667205810546875
1745666178.8399398,0.010725127533078194,-0.01620766520500183,0.10979636758565903,0.3215133547782898,0.15864834189414978,-9.747037887573242
1745666178.8811326,0.023587841540575027,-0.005438734777271748,0.11106036603450775,0.2308598756790161,0.30141741037368774,-9.890365600585938
1745666178.8852851,0.0013573389733210206,-0.014538447372615337,0.10846356302499771,0.3506161570549011,0.08130871504545212,-9.790875434875488
1745666178.8853586,0.010017579421401024,-0.006592912133783102,0.10884447395801544,0.2239701747894287,0.33195939660072327,-9.682498931884766
1745666178.8854413,-0.009514213539659977,-0.012228003703057766,0.10924412310123444,0.3712070882320404,0.15818774700164795,-9.804465293884277
1745666178.9215732,-0.001994476653635502,-0.01289638876914978,0.10746892541646957,0.23773474991321564,0.3739679455757141,-9.875154495239258
1745666178.9233744,-0.004083594307303429,-0.005225335713475943,0.1074485182762146,0.3084335923194885,0.3208465278148651,-9.768503189086914
1745666178.9251974,-0.003551395144313574,-0.012647649273276329,0.10835887491703033,0.2387852966785431,0.25810641050338745,-9.693968772888184
1745666178.9274032,0.014816801063716412,-0.005112533923238516,0.11144207417964935,0.28528714179992676,0.5113199949264526,-9.726982116699219
1745666178.9284768,0.00046643411042168736,-0.011237000115215778,0.11089111864566803,0.32451996207237244,0.25460898876190186,-9.932963371276855
1745666178.968342,0.028891295194625854,-0.0015870693605393171,0.07465223222970963,0.49575552344322205,0.270037978887558,-9.357091903686523
1745666178.9706779,0.02358522266149521,-0.00630395719781518,0.07185617834329605,0.23184065520763397,0.5774683952331543,-9.914229393005371
1745666178.9788518,0.044779855757951736,0.0008089832263067365,0.07276290655136108,0.3170706629753113,0.21111495792865753,-10.284541130065918
1745666178.9790065,0.05730418115854263,0.00244434573687613,0.07313594222068787,0.21581873297691345,0.5750654339790344,-9.646295547485352
1745666179.0087235,0.06626410782337189,0.00016430867253802717,0.07046446949243546,0.2987736463546753,0.1873139888048172,-9.460658073425293
1745666179.011799,0.07274411618709564,-0.008465757593512535,0.06870286166667938,0.3248956501483917,0.4131050705909729,-9.838179588317871
1745666179.017005,0.06344537436962128,0.00438052648678422,0.06505008041858673,0.18878582119941711,0.33840376138687134,-10.158485412597656
1745666179.018898,0.06447039544582367,0.0027310524601489305,0.05978388711810112,0.3291718065738678,-0.05059025436639786,-9.711081504821777
1745666179.0506606,0.04847797751426697,0.0007394925924018025,0.05956311151385307,0.282814621925354,0.2961898148059845,-9.331293106079102
1745666179.0535424,0.03927130997180939,-0.007024773862212896,0.05677930638194084,0.4132263660430908,-0.2182384431362152,-9.987676620483398
1745666179.0567784,0.03295763581991196,-0.00420082313939929,0.0551704578101635,0.32844752073287964,0.27875643968582153,-10.111116409301758
1745666179.062985,0.0390675812959671,0.013408781960606575,0.054932303726673126,0.30852776765823364,0.11271633207798004,-9.719549179077148
1745666179.0630512,0.033732522279024124,-0.005377921275794506,0.05398618057370186,0.30839890241622925,0.3195376992225647,-9.329477310180664
1745666179.0930138,0.04898383095860481,0.001335403649136424,0.05269981548190117,0.16834929585456848,0.4495871067047119,-9.841626167297363
1745666179.0944543,0.058351267129182816,0.0012554179411381483,0.050663698464632034,0.27525007724761963,0.28860586881637573,-10.102278709411621
1745666179.09622,0.07083944976329803,0.01069136243313551,0.04755227640271187,0.0788644477725029,0.5466523170471191,-9.699960708618164
1745666179.097844,0.07735247910022736,-0.0014139518607407808,0.045815885066986084,0.3962782323360443,0.1894053816795349,-9.413037300109863
1745666179.143932,0.07790394127368927,0.0019461438059806824,0.0435553677380085,0.25879713892936707,0.3375229835510254,-9.821734428405762
1745666179.1440058,0.07631797343492508,0.0038990371394902468,0.042244017124176025,0.394375741481781,0.15085549652576447,-10.098633766174316
1745666179.1442087,0.06770889461040497,0.004711703397333622,0.03935686871409416,0.36919549107551575,-0.004575689323246479,-9.73493480682373
1745666179.1442795,0.07137717306613922,0.007832151837646961,0.03815557435154915,0.38794130086898804,0.2594422996044159,-9.494234085083008
1745666179.1829855,0.0440666601061821,-0.008189027197659016,0.03561440110206604,0.43252649903297424,-0.04944567009806633,-9.920698165893555
1745666179.1879196,0.08479000627994537,0.010425434447824955,0.02584443986415863,0.2536715567111969,0.41652899980545044,-9.673773765563965
1745666179.1917188,0.07089035212993622,-0.004688717424869537,0.026647845283150673,0.4113090932369232,-0.0885549932718277,-9.592565536499023
1745666179.1957884,0.08701097965240479,0.008036385290324688,0.024732746183872223,0.2589157521724701,0.29250311851501465,-9.788129806518555
1745666179.2223036,0.06142019107937813,0.0071109505370259285,0.02570786513388157,0.3722356855869293,-0.08509979397058487,-9.996240615844727
1745666179.2245584,0.07415863871574402,0.0008346291142515838,0.026592254638671875,0.22823472321033478,0.14062747359275818,-9.722986221313477
1745666179.2278292,0.05881299823522568,0.006260146386921406,0.02502916380763054,0.35862892866134644,0.1529415398836136,-9.657689094543457
1745666179.2289927,0.06478111445903778,0.0027539243455976248,0.023492481559515,0.20421583950519562,0.21074876189231873,-9.776031494140625
1745666179.2310758,0.06703288853168488,0.005544837564229965,0.022598087787628174,0.29638275504112244,0.261297345161438,-9.770853042602539
1745666179.2680817,0.06331740319728851,-0.0014521044213324785,0.023450274020433426,0.38629287481307983,0.19437018036842346,-9.779206275939941
1745666179.2706232,0.07972590625286102,0.009297017939388752,0.02278030291199684,0.15306833386421204,0.2592931389808655,-9.949033737182617
1745666179.2737296,0.07828857749700546,-0.0029311669059097767,0.025363245978951454,0.3825898766517639,0.0020201157312840223,-9.720775604248047
1745666179.275578,0.08968950808048248,0.004864237271249294,0.02737768553197384,0.23994474112987518,0.2787698209285736,-9.627518653869629
1745666179.3084645,0.07990895211696625,0.0011171040823683143,0.027653777971863747,0.3751733899116516,-0.046917594969272614,-9.89830493927002
1745666179.3117902,0.0896906703710556,-0.004925112705677748,0.02878420613706112,0.21260805428028107,0.23034405708312988,-9.88499927520752
1745666179.3153768,0.05300883576273918,-0.004334614612162113,0.016654955223202705,0.29743048548698425,0.022607332095503807,-9.67247486114502
1745666179.3188248,0.04581715911626816,-0.00924010295420885,0.016343051567673683,0.3658750057220459,-0.10847083479166031,-9.745442390441895
1745666179.322007,0.050804298371076584,0.0020164386369287968,0.01643730327486992,0.28483739495277405,0.10890563577413559,-9.887505531311035
1745666179.3539193,0.038274653255939484,-0.00802703108638525,0.01822742633521557,0.36304396390914917,-0.21210584044456482,-9.897378921508789
1745666179.355651,0.04715445637702942,-0.0025984810199588537,0.016291556879878044,0.16467826068401337,0.11144186556339264,-9.702527046203613
1745666179.3574228,0.03385847061872482,-0.0057433187030255795,0.014183638617396355,0.4371209144592285,-0.19318029284477234,-9.732617378234863
1745666179.3606172,0.04291705787181854,-0.005837537348270416,0.01228324230760336,0.18962273001670837,0.028413916006684303,-9.864243507385254
1745666179.3952584,0.027335867285728455,-0.004340440966188908,0.011626379564404488,0.38818058371543884,-0.06517722457647324,-9.766572952270508
1745666179.3992307,0.03138335794210434,-0.00648901890963316,0.013886166736483574,0.2602812647819519,-0.08957796543836594,-9.699498176574707
1745666179.400699,0.0305634792894125,-0.0008149559726007283,0.012755163013935089,0.2637549340724945,0.021121472120285034,-9.763662338256836
1745666179.4019313,0.024213051423430443,-0.009893182665109634,0.012109707109630108,0.36550554633140564,-0.09846411645412445,-9.879081726074219
1745666179.4371085,0.038362517952919006,-0.00015318169607780874,0.012715399265289307,0.15664434432983398,0.1295376718044281,-9.838712692260742
1745666179.4393635,0.025473743677139282,-0.005472087301313877,0.01139880996197462,0.38061434030532837,-0.1251436173915863,-9.707128524780273
1745666179.4416194,0.04466649517416954,-0.005425827112048864,0.010781530290842056,0.1580597460269928,0.1913498342037201,-9.692395210266113
1745666179.4460373,0.029148224741220474,-0.004485734738409519,0.009809771552681923,0.38970842957496643,-0.16258488595485687,-9.861642837524414
1745666179.4497485,0.04103079438209534,-0.004802461713552475,0.01071449089795351,0.21782250702381134,0.045531824231147766,-9.820806503295898
1745666179.4813547,0.02883610688149929,0.0003764199500437826,0.009379553608596325,0.2907247841358185,-0.05638203024864197,-9.764471054077148
1745666179.4829278,0.028329113498330116,-0.009347304701805115,0.01094298530369997,0.3810012638568878,-0.1714218407869339,-9.73528003692627
1745666179.483249,0.029906580224633217,-0.00027842080453410745,0.008837850764393806,0.21213524043560028,0.11572420597076416,-9.834519386291504
1745666179.484433,0.014188110828399658,-0.00702371820807457,0.009245879016816616,0.41545599699020386,-0.3393752872943878,-9.832656860351562
1745666179.5223866,0.02996315434575081,-0.0027252663858234882,0.009241798892617226,0.17607082426548004,0.197525292634964,-9.718212127685547
1745666179.5247486,0.008803704753518105,-0.0033555657137185335,0.009927705861628056,0.3904120922088623,-0.29532262682914734,-9.814143180847168
1745666179.5272026,0.020549947395920753,-0.001025218516588211,0.008901764638721943,0.1677890121936798,0.20046734809875488,-9.758543014526367
1745666179.5277686,0.020816048607230186,-0.007852762006223202,0.01176393311470747,0.4317144453525543,-0.3451802134513855,-9.846834182739258
1745666179.5666933,0.022262092679739,-0.0005753711448051035,0.01125441025942564,0.18732628226280212,0.1858637034893036,-9.814070701599121
1745666179.5700207,0.0179453007876873,0.0008011137251742184,0.008860208094120026,0.36800235509872437,-0.2543083727359772,-9.73888111114502
1745666179.5744998,0.02542453445494175,-0.008175643160939217,0.009422150440514088,0.2545841336250305,0.09143964946269989,-9.595636367797852
1745666179.5822465,0.0031652331817895174,0.0021185639780014753,0.007742484100162983,0.3153780996799469,-0.13993167877197266,-9.882944107055664
1745666179.58234,0.026988711208105087,-0.0034809759818017483,0.009810304269194603,0.3314046263694763,-0.13510164618492126,-9.870806694030762
1745666179.612446,0.004119116812944412,0.004024766385555267,0.011232594028115273,0.16448204219341278,0.021430527791380882,-9.727032661437988
1745666179.6161165,0.018056582659482956,-0.00389525736682117,0.009986639954149723,0.40335503220558167,-0.23726563155651093,-9.698176383972168
1745666179.6207695,0.009492098353803158,-0.0025607964489609003,0.009986511431634426,0.20868322253227234,0.1117829829454422,-9.775863647460938
1745666179.6223896,0.008193080313503742,0.002716662595048547,0.008566799573600292,0.34542423486709595,-0.21083514392375946,-9.961248397827148
1745666179.6532366,0.013025829568505287,-0.002299689222127199,0.005550220143049955,0.4215273857116699,0.15463143587112427,-9.680044174194336
1745666179.65553,0.007113830652087927,-0.0071927928365767,0.003385851625353098,0.5140194296836853,0.023139338940382004,-9.8400239944458
1745666179.658068,0.03189763426780701,0.009576884098351002,-0.005484134890139103,0.3044549822807312,0.32499247789382935,-9.92419719696045
1745666179.6618907,0.055034272372722626,0.010917956940829754,-0.09599684178829193,0.6937488317489624,-0.2251405417919159,-9.883929252624512
1745666179.6938906,0.06510481983423233,0.025730574503540993,-0.09976084530353546,0.37817269563674927,-0.023151572793722153,-10.422322273254395
1745666179.6960697,0.0615537166595459,0.028603440150618553,-0.0984298437833786,0.5270190238952637,-0.3174588084220886,-9.631587028503418
1745666179.6961353,0.06066709756851196,0.019622426480054855,-0.10246752202510834,0.3380036950111389,0.0591878816485405,-9.107637405395508
1745666179.6993833,0.06552185118198395,0.01571730710566044,-0.1058293804526329,0.5919631719589233,-0.12180767953395844,-9.835844039916992
1745666179.6997757,0.06346555054187775,0.017088351771235466,-0.1090134009718895,0.4116686284542084,-0.012240612879395485,-10.385890007019043
1745666179.7403448,0.07580090314149857,0.030266720801591873,-0.11274061352014542,0.4071806073188782,-0.05668063834309578,-9.756579399108887
1745666179.7419543,0.07681401073932648,0.017162442207336426,-0.11437951028347015,0.4135313630104065,-0.31148552894592285,-9.18742847442627
1745666179.74407,0.0640198141336441,0.014360198751091957,-0.11025456339120865,0.32602763175964355,-0.19430454075336456,-9.66605281829834
1745666179.7455692,0.0689430758357048,0.02409135363996029,-0.11252608150243759,0.5142221450805664,-0.5077572464942932,-10.227933883666992
1745666179.7806475,0.05485297366976738,0.019720962271094322,-0.10955528914928436,0.19763940572738647,-0.16903056204319,-9.87403678894043
1745666179.786119,0.04998738318681717,0.02188175357878208,-0.10923822224140167,0.3312617838382721,-0.2636483311653137,-9.372191429138184
1745666179.7901535,0.04330119118094444,0.00846455991268158,-0.11404825747013092,0.22055847942829132,0.013996097259223461,-9.620765686035156
1745666179.7934926,0.042214419692754745,0.020193258300423622,-0.11671221256256104,0.4001637399196625,-0.15935197472572327,-10.065939903259277
1745666179.8037596,0.04835459589958191,0.009559792466461658,-0.11845728009939194,0.39304131269454956,0.03650315850973129,-9.842249870300293
1745666179.8262455,0.043163083493709564,0.013321888633072376,-0.11696264892816544,0.2500457763671875,-0.23086366057395935,-9.682101249694824
1745666179.828481,0.06792226433753967,0.007994896732270718,-0.11390803009271622,0.46888700127601624,-0.12960314750671387,-9.544954299926758
1745666179.8304543,0.047242917120456696,0.008377090096473694,-0.11210425198078156,0.30345410108566284,-0.19415442645549774,-9.892997741699219
1745666179.8329415,0.0829332023859024,0.008604954928159714,-0.1100764274597168,0.47099485993385315,-0.15465499460697174,-9.884419441223145
1745666179.876075,0.06548454612493515,0.006705033592879772,-0.11133670806884766,0.24378713965415955,0.2399023026227951,-9.733617782592773
1745666179.8761914,0.08994589745998383,0.011485959403216839,-0.11312232911586761,0.3057762682437897,-0.2955132722854614,-9.704029083251953
1745666179.8762877,0.08161284029483795,-0.0029734403360635042,-0.1170157641172409,0.40137046575546265,-0.04010797664523125,-9.582595825195312
1745666179.8763638,0.031674642115831375,-0.004358815960586071,-0.11357302963733673,0.28508123755455017,-0.006403028964996338,-9.627671241760254
1745666179.9121323,0.07451377809047699,-0.0172507856041193,-0.11959461122751236,0.3494892418384552,0.03379446268081665,-9.512134552001953
1745666179.9132876,0.06021646410226822,-0.00895538367331028,-0.12754647433757782,-0.01326444186270237,0.10979761928319931,-10.043954849243164
1745666179.9170096,0.05063273385167122,-0.011400213465094566,-0.13335207104682922,-0.04814659059047699,-0.3256548047065735,-9.779619216918945
1745666179.9197574,0.07334434241056442,-0.0006905904156155884,-0.12786060571670532,0.4379952847957611,-0.6717659831047058,-9.224479675292969
1745666179.9223256,0.028516162186861038,-0.012368426658213139,-0.12184163182973862,0.6862411499023438,-0.5546308755874634,-9.650640487670898
1745666179.9541662,0.048899274319410324,-0.0016649700701236725,-0.11721739917993546,0.4976426064968109,-0.6040308475494385,-10.528487205505371
1745666179.9570131,0.024239879101514816,-0.007088212762027979,-0.11538656055927277,0.80274897813797,-0.22728195786476135,-9.521739959716797
1745666179.9596128,0.024282939732074738,0.0004955727490596473,-0.11737711727619171,0.730964183807373,-0.12920433282852173,-9.35151481628418
1745666179.9695108,0.04991679638624191,-0.02922111190855503,-0.1251963973045349,0.5843650698661804,0.05154344439506531,-10.169919967651367
1745666179.9984574,0.024805692955851555,-0.009506858885288239,-0.12909922003746033,0.1384619027376175,0.08116963505744934,-10.410154342651367
1745666179.9998815,0.06423474848270416,-0.0026241110172122717,-0.12998990714550018,0.25670698285102844,-0.048267997801303864,-9.076330184936523
1745666180.0023873,0.040987528860569,-0.016540994867682457,-0.13360266387462616,0.1767621785402298,0.21150369942188263,-8.955034255981445
1745666180.0057883,0.08322659879922867,-0.02248539961874485,-0.1344192922115326,0.5266813635826111,-0.19047674536705017,-10.395744323730469
1745666180.0411985,0.029371798038482666,-0.00740910554304719,-0.1249915137887001,0.49796590209007263,-0.3949100971221924,-10.13389778137207
1745666180.0418527,0.02819540724158287,-0.014716056175529957,-0.1262061595916748,0.33836013078689575,-0.23049142956733704,-9.657623291015625
1745666180.043602,0.03255839645862579,-0.012536011636257172,-0.12713009119033813,0.14883244037628174,-0.14822638034820557,-9.53776741027832
1745666180.044847,0.03672600910067558,-0.018251225352287292,-0.1270119994878769,0.29279524087905884,-0.2970653474330902,-9.767024040222168
1745666180.049179,0.027590826153755188,-0.01362763624638319,-0.12980829179286957,0.0004514358879532665,-0.11442402750253677,-10.046916961669922
1745666180.0847683,0.04912136122584343,-0.010720549151301384,-0.12950631976127625,0.38312041759490967,-0.38107985258102417,-9.727813720703125
1745666180.0886018,0.0328831747174263,-0.017019815742969513,-0.12888500094413757,0.26396477222442627,-0.2414834201335907,-9.585257530212402
1745666180.0917037,0.03923698887228966,-0.014802729710936546,-0.12564149498939514,0.47049179673194885,-0.6744002103805542,-9.947766304016113
1745666180.0919936,0.024014880880713463,-0.02015993557870388,-0.12434301525354385,0.47343364357948303,-0.5695189237594604,-10.02497386932373
1745666180.1250458,0.013662492856383324,-0.006409482564777136,-0.12207647413015366,0.3068985641002655,-0.5887177586555481,-9.840208053588867
1745666180.1342685,0.007253330200910568,-0.018407301977276802,-0.12033878266811371,0.4487881660461426,-0.48766183853149414,-9.475107192993164
1745666180.13435,-0.0037103486247360706,-0.016391552984714508,-0.12104751914739609,0.2284344881772995,-0.19149331748485565,-9.791631698608398
1745666180.1344287,0.000587231304962188,-0.016442717984318733,-0.12425128370523453,0.37140971422195435,-0.24482424557209015,-10.018911361694336
1745666180.1344802,0.007267517037689686,-0.01110053900629282,-0.1289479285478592,0.1763543039560318,0.002378033008426428,-9.774876594543457
1745666180.1800182,0.011401332914829254,-0.012830731458961964,-0.1277930736541748,0.33963167667388916,-0.18281246721744537,-9.502815246582031
1745666180.1843228,0.012229290790855885,-0.017574800178408623,-0.12945596873760223,0.3359591066837311,-0.2749931514263153,-9.772478103637695
1745666180.1879933,0.024664904922246933,-0.011424200609326363,-0.12373390048742294,0.27350524067878723,-0.3033455014228821,-10.109594345092773
1745666180.1911733,0.0303652286529541,-0.008390112780034542,-0.12330438941717148,0.4270334839820862,-0.46225103735923767,-9.778923988342285
1745666180.2121258,0.032285425812006,-0.009316692128777504,-0.11978238821029663,0.23049989342689514,-0.1606517881155014,-9.48914623260498
1745666180.2135851,0.028968218713998795,-0.014683266170322895,-0.12161125242710114,0.48857492208480835,-0.43113046884536743,-9.759799003601074
1745666180.2152793,0.02979021705687046,-0.013420087285339832,-0.12293039262294769,0.2223295271396637,-0.13067521154880524,-10.059121131896973
1745666180.2180328,0.022098422050476074,-0.0025676076766103506,-0.12305502593517303,0.2764691710472107,-0.489013135433197,-9.833974838256836
1745666180.2545116,-0.0020526961889117956,-0.0077432915568351746,-0.11690525710582733,0.33411985635757446,-0.2830579876899719,-10.07607364654541
1745666180.2580628,0.003414775710552931,-0.016168856993317604,-0.11828366667032242,0.19848844408988953,-0.17548364400863647,-9.725406646728516
1745666180.2606912,0.018423734232783318,-0.010064663365483284,-0.11685210466384888,0.2633628845214844,-0.1578461229801178,-9.476707458496094
1745666180.262815,0.005829920992255211,-0.013448378071188927,-0.118471659719944,0.3451332151889801,-0.3251309394836426,-9.766942977905273
1745666180.2645073,0.008621538057923317,-0.008456726558506489,-0.11895275115966797,0.2567989230155945,-0.18006201088428497,-9.958260536193848
1745666180.3013978,0.010424656793475151,-0.008154270239174366,-0.11832191050052643,0.4577302038669586,-0.4640364646911621,-9.798057556152344
1745666180.3029544,-0.0015217311447486281,-0.012949059717357159,-0.11933887004852295,0.28636056184768677,-0.3190956711769104,-9.7017822265625
1745666180.3054762,0.009826978668570518,-0.00880844984203577,-0.11661579459905624,0.4257539212703705,-0.4756867289543152,-9.799897193908691
1745666180.3091755,-0.016351979225873947,-0.011892324313521385,-0.11717754602432251,0.2722470760345459,-0.4064514636993408,-9.798757553100586
1745666180.3421092,-0.00014241431199479848,-0.00420694425702095,-0.11577131599187851,0.295368492603302,-0.3705237805843353,-9.717453002929688
1745666180.3442578,-0.013578061945736408,-0.007360970135778189,-0.11304916441440582,0.23333501815795898,-0.23134753108024597,-9.732924461364746
1745666180.3470306,-0.005539309233427048,-0.009416183456778526,-0.11461031436920166,0.16402748227119446,-0.37239760160446167,-9.866792678833008
1745666180.349679,0.0021368302404880524,-0.0092493686825037,-0.11460711061954498,0.4292406141757965,-0.19017386436462402,-9.762474060058594
1745666180.3518806,-0.011579660698771477,-0.00779383722692728,-0.11414917558431625,0.10552766174077988,-0.3292633891105652,-9.977762222290039
1745666180.386936,-0.023471051827073097,0.00450187036767602,-0.12046010792255402,0.1768440157175064,-0.355837881565094,-9.630644798278809
1745666180.389236,0.0005410623271018267,-0.0006413383525796235,-0.11999799311161041,0.40599536895751953,-0.21107177436351776,-9.519609451293945
1745666180.3939397,-0.0272905882447958,-0.0035064846742898226,-0.12120749801397324,0.3706827163696289,-0.33103957772254944,-10.063551902770996
1745666180.3968482,0.006397435907274485,0.00655828882008791,-0.12209051847457886,0.3108794689178467,-0.20307128131389618,-10.052663803100586
1745666180.4295166,-0.014375023543834686,0.0050610629841685295,-0.12378755956888199,0.39138540625572205,-0.17086197435855865,-9.485920906066895
1745666180.4324405,0.006074541714042425,0.0008718812605366111,-0.12508441507816315,0.3334920108318329,-0.20905688405036926,-9.488775253295898
1745666180.433636,-0.015636373311281204,-0.0013680675765499473,-0.12564633786678314,0.5173274278640747,-0.3652365207672119,-9.930824279785156
1745666180.4357867,0.0033018416725099087,0.007080593146383762,-0.12767158448696136,0.26215091347694397,-0.2728400230407715,-10.111669540405273
1745666180.4733858,-0.0056548211723566055,0.008604034781455994,-0.1254827231168747,0.4357510209083557,-0.3617408871650696,-9.637066841125488
1745666180.4772618,-0.014968362636864185,-0.0014504377031698823,-0.1281827986240387,0.30147162079811096,-0.31829991936683655,-9.515735626220703
1745666180.4807365,-0.0034001246094703674,0.003132855985313654,-0.12927034497261047,0.41930675506591797,-0.2253212034702301,-9.825961112976074
1745666180.4838865,-0.020487984642386436,0.004359755199402571,-0.13124887645244598,0.37039607763290405,-0.2759360671043396,-10.026894569396973
1745666180.5135047,-0.002027451526373625,0.010789255611598492,-0.13523364067077637,0.2882798910140991,-0.14070741832256317,-9.674417495727539
1745666180.5155013,-0.019185667857527733,-0.0013531444128602743,-0.13618887960910797,0.5078266859054565,-0.43578091263771057,-9.566534042358398
1745666180.5197246,-0.0037646121345460415,0.002595351543277502,-0.13537421822547913,0.31449607014656067,-0.16690942645072937,-9.862846374511719
1745666180.523569,-0.009935683570802212,0.0077393874526023865,-0.13534662127494812,0.4188266396522522,-0.3339478075504303,-9.910618782043457
1745666180.5270526,-0.008644693531095982,0.008661750704050064,-0.13368262350559235,0.22772963345050812,-0.21594023704528809,-9.595649719238281
1745666180.567375,-0.0028285165317356586,0.005106972064822912,-0.13552695512771606,0.4173654019832611,-0.11153040826320648,-9.53437328338623
1745666180.5708954,-0.006233580876141787,0.0007984920521266758,-0.1379530429840088,0.4002981185913086,-0.2682276964187622,-9.995092391967773
1745666180.573694,0.01695125550031662,0.012851251289248466,-0.1387179046869278,0.2629474401473999,-0.020364349707961082,-10.010458946228027
1745666180.5763047,-0.0006514443666674197,0.005691082216799259,-0.1417275369167328,0.4271811842918396,-0.3302614092826843,-9.539200782775879
1745666180.605198,-0.007498296443372965,0.0035229704808443785,-0.13314007222652435,0.1559472531080246,-0.037806589156389236,-9.771276473999023
1745666180.6074917,-0.027598824352025986,-0.002523350529372692,-0.1331358700990677,0.37873131036758423,-0.5038214325904846,-9.887685775756836
1745666180.611832,-0.0058318255469202995,-0.0036488515324890614,-0.12776440382003784,0.1588020771741867,-0.08605869114398956,-9.80360221862793
1745666180.614591,-0.01980573683977127,0.00033364948467351496,-0.12841662764549255,0.379387229681015,-0.4624482989311218,-9.708104133605957
1745666180.641548,-0.005562915001064539,-0.009486449882388115,-0.12140880525112152,0.2653537392616272,-0.09277550131082535,-9.711423873901367
1745666180.643591,-0.008783425204455853,-0.0027798705268651247,-0.1228208914399147,0.13185134530067444,-0.009776982478797436,-9.885676383972168
1745666180.6458209,0.0003628685954026878,-0.007581236772239208,-0.12222699820995331,0.20524533092975616,-0.33150357007980347,-9.870683670043945
1745666180.6491268,0.01724020019173622,-0.0015503379981964827,-0.12384221702814102,0.14299264550209045,0.17748458683490753,-9.526061058044434
1745666180.6506433,-0.0019975933246314526,-0.018008891493082047,-0.12478091567754745,0.35635697841644287,-0.4523342251777649,-9.799070358276367
1745666180.6868815,0.0163853969424963,-0.009506397880613804,-0.12209589779376984,0.141816183924675,-0.10898568481206894,-9.9401216506958
1745666180.6887794,-0.0020515446085482836,-0.0028187574353069067,-0.1222437173128128,0.31908556818962097,-0.47339582443237305,-9.753263473510742
1745666180.6947072,-0.004939361475408077,-0.010771771892905235,-0.11544273048639297,0.24700391292572021,-0.5716254115104675,-9.546699523925781
1745666180.699575,-0.008413824252784252,-0.009451555088162422,-0.11654434353113174,0.3062466084957123,-0.2840118110179901,-9.741071701049805
1745666180.7297053,-0.022293906658887863,-0.016317103058099747,-0.11366740614175797,0.2652220129966736,-0.5153549909591675,-10.128509521484375
1745666180.7320454,-0.009394298307597637,-0.004029393196105957,-0.1139625534415245,0.0630270466208458,-0.045422591269016266,-9.794364929199219
1745666180.7355683,-0.009572514332830906,-0.006503203418105841,-0.07926860451698303,0.24871091544628143,-0.40604227781295776,-9.473251342773438
1745666180.738499,-0.04000851511955261,-0.01614803448319435,-0.08407487720251083,0.35797515511512756,-0.4928801953792572,-10.00471305847168
1745666180.7727246,-0.03429624065756798,-0.0009147903183475137,-0.0813346654176712,0.29102736711502075,-0.2810627520084381,-10.026766777038574
1745666180.7762222,-0.06281761825084686,-0.0043478659354150295,-0.08098336309194565,0.4991980195045471,-0.5710938572883606,-9.643299102783203
1745666180.7794347,-0.04894533380866051,-0.00620373897254467,-0.07531999796628952,0.3182334899902344,-0.28518009185791016,-9.554483413696289
1745666180.7826822,-0.04901658371090889,-0.005788850132375956,-0.06825606524944305,0.44085821509361267,-0.18286870419979095,-9.93671989440918
1745666180.791237,-0.0375383123755455,-0.0008446715655736625,-0.06532315909862518,0.18081220984458923,0.0820496678352356,-10.098817825317383
1745666180.814469,-0.0032384744845330715,0.0031267106533050537,-0.06369359791278839,0.24904930591583252,0.3332468867301941,-9.573895454406738
1745666180.816043,0.003147310111671686,-0.006173010915517807,-0.06870850175619125,0.3055134415626526,0.2666493058204651,-9.507993698120117
1745666180.8176901,0.02961885929107666,-0.0027417719829827547,-0.07170222699642181,0.134409099817276,0.2518620193004608,-10.025186538696289
1745666180.8187263,0.017702734097838402,-0.006675495766103268,-0.07565983384847641,0.3971628248691559,-0.1687818020582199,-10.037795066833496
1745666180.857392,0.03125426173210144,-0.0010642509441822767,-0.07428083568811417,0.3037588894367218,-0.3180059790611267,-9.722280502319336
1745666180.8598435,0.00986759178340435,-0.0014460206730291247,-0.06804029643535614,0.4815245568752289,-0.5212258696556091,-9.602644920349121
1745666180.8621335,-0.0038421626668423414,-0.008830640465021133,-0.06667579710483551,0.36405861377716064,-0.5894619226455688,-9.910585403442383
1745666180.8685873,-0.008723496459424496,-1.929849349835422e-05,-0.06302803754806519,0.5137649774551392,-0.47616109251976013,-9.861074447631836
1745666180.874837,-0.03583695739507675,-0.0030078082345426083,-0.06136385351419449,0.26327306032180786,-0.40130066871643066,-9.873682975769043
1745666180.9031277,-0.019443931058049202,-0.003180432366207242,-0.06322195380926132,0.19480285048484802,-0.18267688155174255,-9.758200645446777
1745666180.9051785,-0.03109811246395111,-0.0023969286121428013,-0.0627794936299324,0.23610715568065643,-0.24157778918743134,-9.699263572692871
1745666180.90669,-0.025659045204520226,0.000960209290497005,-0.06493537873029709,0.01097633596509695,-0.02115016058087349,-9.776374816894531
1745666180.9090216,-0.022861922159790993,0.005228952970355749,-0.06285098940134048,0.27186182141304016,-0.33690088987350464,-9.68940258026123
1745666180.9459128,-0.023670170456171036,0.0047402167692780495,-0.061517197638750076,0.14296703040599823,0.013254573568701744,-9.673628807067871
1745666180.9479969,-0.0073839398100972176,0.00157340953592211,-0.05879991129040718,0.29101210832595825,-0.10429258644580841,-9.696020126342773
1745666180.9498286,-0.0009489998337812722,0.006182873621582985,-0.05642678588628769,0.34387218952178955,-0.4679374098777771,-9.899171829223633
1745666180.9530177,-0.009891705587506294,0.0012615739833563566,-0.05324878171086311,0.3836817443370819,-0.34338074922561646,-9.82681941986084
1745666180.9932735,-0.016798820346593857,0.007898793555796146,-0.05033168941736221,0.2267458736896515,-0.41306257247924805,-9.79953670501709
1745666180.9934263,-0.02026664838194847,-0.0005307042738422751,-0.04756401106715202,0.3853049874305725,-0.33387503027915955,-9.668490409851074
1745666180.9934804,-0.03245985135436058,0.0023938098456710577,-0.04947338253259659,0.23411592841148376,-0.09802086651325226,-9.817866325378418
1745666180.9971924,-0.020063895732164383,0.008642474189400673,-0.05319712311029434,0.34908828139305115,-0.12307967990636826,-9.843091011047363
1745666181.0016081,-0.03945797309279442,-0.001273459754884243,-0.05569453164935112,0.2026394158601761,0.0449703112244606,-9.74416446685791
1745666181.0304515,-0.018110428005456924,0.005267316475510597,-0.05682975798845291,0.24849505722522736,-0.11673486232757568,-9.747783660888672
1745666181.033115,-0.026553407311439514,0.004845101851969957,-0.058020781725645065,0.31344765424728394,-0.15673604607582092,-9.690568923950195
1745666181.0384085,-0.008460518904030323,0.008687135763466358,-0.05652566999197006,0.2856239676475525,-0.06762651354074478,-9.7298583984375
1745666181.0404153,-0.008871996775269508,0.0025009845849126577,-0.05380243808031082,0.4824073314666748,-0.26282256841659546,-9.731359481811523
1745666181.075995,-0.007345075719058514,0.011557120829820633,-0.054257847368717194,0.22625192999839783,0.04372540861368179,-9.863001823425293
1745666181.0863414,0.008236742578446865,0.012747702188789845,-0.05269388481974602,0.3396621644496918,-0.2007763832807541,-9.7988862991333
1745666181.0864284,-0.0008873585611581802,0.003282484132796526,-0.056807272136211395,0.27002957463264465,-0.040168844163417816,-9.600777626037598
1745666181.091659,-0.0001464748929720372,-0.004126033745706081,-0.07288132607936859,0.1872277706861496,-0.04081351310014725,-9.573674201965332
1745666181.1148574,0.020393574610352516,-0.0008140080608427525,-0.07221491634845734,0.38986700773239136,-0.0753713920712471,-9.644505500793457
1745666181.1194975,-0.0016675044316798449,-0.0002874089404940605,-0.07621607929468155,0.19563651084899902,-0.16794070601463318,-10.007828712463379
1745666181.121626,0.02887444570660591,0.0055558569729328156,-0.07334531843662262,0.33920177817344666,-0.048007670789957047,-9.719629287719727
1745666181.1251302,0.004693206399679184,0.000393829308450222,-0.07178738713264465,0.4148378372192383,-0.2987752854824066,-9.600358963012695
1745666181.1274407,0.021163973957300186,0.0024801779072731733,-0.0718209370970726,0.2682632803916931,-0.11631177365779877,-9.774386405944824
1745666181.1603873,0.010634503327310085,-0.0017853460740298033,-0.0700925812125206,0.4966251254081726,-0.3105664849281311,-9.845990180969238
1745666181.1620812,0.006704217754304409,0.004396292380988598,-0.07274891436100006,0.22287127375602722,-0.17934241890907288,-9.86665153503418
1745666181.164737,0.010845893993973732,0.006089826114475727,-0.07076296210289001,0.37238508462905884,-0.1656426042318344,-9.590389251708984
1745666181.1676679,-0.009346510283648968,-0.002754584886133671,-0.07436978816986084,0.3062764108181,-0.13765408098697662,-9.665316581726074
1745666181.2009192,0.0037204388063400984,0.0073194606229662895,-0.07418789714574814,0.2711036801338196,-0.058840312063694,-9.915281295776367
1745666181.204287,-0.006614215672016144,-0.0058884890750050545,-0.07300561666488647,0.35849690437316895,-0.19275060296058655,-9.953311920166016
1745666181.2070286,0.0160517580807209,0.004818304441869259,-0.07383479177951813,0.2892048954963684,0.07693493366241455,-9.65775203704834
1745666181.2100463,0.001884237863123417,-0.00028234149795025587,-0.0751892551779747,0.4173634648323059,-0.24149827659130096,-9.690242767333984
1745666181.2132053,0.01352681964635849,-0.002136599738150835,-0.07016684859991074,0.3009043037891388,-0.1427161693572998,-9.809341430664062
1745666181.2511652,0.023488838225603104,0.0002990046632476151,-0.07084199786186218,0.4369593560695648,-0.05922631174325943,-9.797136306762695
1745666181.2512634,0.007082195486873388,-0.0022230907343328,-0.06937313079833984,0.18976275622844696,-0.2424510419368744,-9.974682807922363
1745666181.2513132,0.03500925749540329,-0.0007289015338756144,-0.07253991812467575,0.29808565974235535,-0.003186947200447321,-9.67893123626709
1745666181.2514813,0.009890604764223099,-0.007910264655947685,-0.07238902896642685,0.41470980644226074,-0.20483875274658203,-9.645604133605957
1745666181.2888582,0.020558403804898262,-0.0004677708784583956,-0.07328073680400848,0.18860062956809998,-0.10308653116226196,-9.940313339233398
1745666181.290931,0.008948197588324547,-0.006723937578499317,-0.07321449369192123,0.435654878616333,-0.2980748116970062,-9.785000801086426
1745666181.2956235,0.014382844790816307,0.0008225628989748657,-0.07990752160549164,0.5065768361091614,-0.22914668917655945,-9.76269817352295
1745666181.2958844,0.01906990446150303,-0.00385845685377717,-0.07869446277618408,0.3037959635257721,-0.25968319177627563,-9.849651336669922
1745666181.330451,0.026077458634972572,-0.0011761356145143509,-0.07826821506023407,0.46127575635910034,-0.19624079763889313,-9.777511596679688
1745666181.3334124,0.005982573609799147,-0.008762874640524387,-0.07999473810195923,0.3917842507362366,-0.16595050692558289,-9.820795059204102
1745666181.33868,0.01733640395104885,0.0028354646638035774,-0.0820893868803978,0.2998533844947815,-0.2194511443376541,-9.770101547241211
1745666181.341272,0.00933461170643568,-0.004202538635581732,-0.08193214237689972,0.4351347088813782,-0.17493197321891785,-9.62835693359375
1745666181.3448336,0.005100311245769262,-0.007070132996886969,-0.08525040000677109,0.18361148238182068,-0.013844931498169899,-9.95192813873291
1745666181.375665,0.018618766218423843,-0.0010438727913424373,-0.0843885987997055,0.43549203872680664,-0.3597046434879303,-9.905669212341309
1745666181.3785288,0.008932994678616524,-0.003812632290646434,-0.0863996371626854,0.25060194730758667,0.0999508872628212,-9.69505786895752
1745666181.38118,0.021403443068265915,-0.004979395307600498,-0.08466191589832306,0.38661354780197144,-0.24652211368083954,-9.711536407470703
1745666181.3829846,0.017908364534378052,-0.010517454706132412,-0.08622009307146072,0.38985028862953186,-0.18150578439235687,-9.824806213378906
1745666181.418974,0.02184206247329712,0.006709871347993612,-0.08475673198699951,0.32595595717430115,-0.0896390825510025,-9.810162544250488
1745666181.4201703,0.01770741119980812,-0.0068009779788553715,-0.08768079429864883,0.34249216318130493,-0.34624844789505005,-9.723589897155762
1745666181.4214272,0.013268768787384033,7.443539652740583e-05,-0.08767689764499664,0.2482222616672516,-0.07085882872343063,-9.653820991516113
1745666181.424395,0.008723445236682892,-0.002005769405514002,-0.08540713787078857,0.6328223943710327,-0.4003390371799469,-9.755162239074707
1745666181.464449,0.00663802633062005,-0.005312199238687754,-0.03175457566976547,0.2815897464752197,-0.27347442507743835,-9.470318794250488
1745666181.466726,-0.012436481192708015,-0.00971574243158102,-0.031592957675457,0.5053026080131531,-0.3371410667896271,-9.804182052612305
1745666181.470127,-0.011477113701403141,-0.005262250080704689,-0.029713863506913185,0.2558293044567108,-0.2372017204761505,-10.158190727233887
1745666181.4726288,-0.010017553344368935,-0.0029958821833133698,-0.029018282890319824,0.4295881688594818,-0.2592938542366028,-9.746162414550781
1745666181.5030627,-0.027008647099137306,-0.00798256229609251,-0.02751898765563965,0.20477759838104248,-0.21511626243591309,-9.546667098999023
1745666181.5061421,-0.011863792315125465,-0.008079621009528637,-0.02477891929447651,0.2767459750175476,-0.19206520915031433,-9.710664749145508
1745666181.510231,-0.029170125722885132,-0.0071228742599487305,-0.024574507027864456,0.2793397903442383,-0.18775533139705658,-9.944544792175293
1745666181.5129566,-0.017047034576535225,-0.0001924615353345871,-0.022345494478940964,0.14163970947265625,-0.1046183705329895,-9.837250709533691
1745666181.5151637,-0.016131285578012466,-0.006399180740118027,-0.023550190031528473,0.40474238991737366,-0.14844033122062683,-9.476829528808594
1745666181.546782,-0.023197565227746964,-0.003124177921563387,-0.022487979382276535,0.25821301341056824,-0.033504143357276917,-9.745464324951172
1745666181.5495574,-0.015077346935868263,-0.0009046279010362923,-0.020290637388825417,0.4012690484523773,-0.30416932702064514,-10.015721321105957
1745666181.5516703,-0.015478977933526039,-0.0064903749153018,-0.019921157509088516,0.32186391949653625,-0.06354866921901703,-9.763422012329102
1745666181.555208,-0.01996813341975212,0.0021387666929513216,-0.01904480531811714,0.3301604092121124,-0.30091458559036255,-9.728940963745117
1745666181.594011,-0.021773841232061386,-0.007165154907852411,-0.016106393188238144,0.3299381136894226,-0.12106789648532867,-9.706666946411133
1745666181.5941026,-0.018584128469228745,-0.003291752887889743,-0.016961684450507164,0.290726900100708,-0.13997569680213928,-9.85767936706543
1745666181.5942032,-0.024139486253261566,-0.003829087596386671,-0.014040661975741386,0.4311453700065613,-0.15161725878715515,-9.809175491333008
1745666181.5963247,-0.0183443333953619,-0.0032759911846369505,-0.015906399115920067,0.17063277959823608,-0.0028861414175480604,-9.833491325378418
1745666181.5985584,-0.011845812201499939,-0.007014058530330658,-0.016176309436559677,0.3797491192817688,-0.16057126224040985,-9.719332695007324
1745666181.6317067,-0.02549050748348236,-0.010243899188935757,-0.014376024715602398,0.2830257713794708,-0.18060949444770813,-9.826066970825195
1745666181.632798,-0.0019790653605014086,-0.0006947469664737582,-0.011409577913582325,0.3115050196647644,-0.20267386734485626,-9.852113723754883
1745666181.6350193,-0.030727829784154892,-0.008853008970618248,-0.01228587981313467,0.28678980469703674,-0.24271920323371887,-9.781118392944336
1745666181.636943,-0.026743102818727493,-0.006071746814996004,-0.006623932160437107,0.2281837910413742,-0.05650908499956131,-9.726829528808594
1745666181.677048,-0.023195672780275345,-0.0064684124663472176,-0.00613095099106431,0.4558406472206116,-0.106697216629982,-9.761911392211914
1745666181.6805668,-0.031804077327251434,-0.005012522451579571,-0.004415558185428381,0.18591353297233582,-0.07119828462600708,-9.947513580322266
1745666181.684962,-0.012956827878952026,-0.001860091113485396,-0.004734116140753031,0.3330729007720947,-0.1221577376127243,-9.735250473022461
1745666181.6883113,-0.030390333384275436,-0.01018456555902958,-0.002243564696982503,0.3476586937904358,-0.12412242591381073,-9.678081512451172
1745666181.6888428,-0.02365102246403694,-0.004854404367506504,-0.004321824759244919,0.28273656964302063,-0.14833185076713562,-9.874690055847168
1745666181.719048,-0.03158964589238167,-0.010773899964988232,-0.005642346106469631,0.4265894293785095,-0.1967369168996811,-9.858353614807129
1745666181.7210422,-0.027687329798936844,-0.00020683584443759173,-0.003906975965946913,0.2791152596473694,-0.00536464573815465,-9.739583015441895
1745666181.7218215,-0.033485837280750275,-0.00837282557040453,-0.004321479704231024,0.41089099645614624,-0.24944205582141876,-9.68290901184082
1745666181.731584,-0.03825376182794571,-0.012764474377036095,-0.0031591630540788174,0.23385588824748993,-0.08080944418907166,-9.848329544067383
1745666181.7635865,-0.02773742377758026,-0.001377410488203168,-0.0010011231061071157,0.37759214639663696,-0.1660749465227127,-9.900216102600098
1745666181.7654412,-0.03290989249944687,-0.007275332696735859,9.306285210186616e-05,0.16628603637218475,-0.07293969392776489,-9.765923500061035
1745666181.766766,-0.028908884152770042,-0.003007885068655014,-0.001715068006888032,0.2729082703590393,-0.0002505764423403889,-9.529586791992188
1745666181.7730854,-0.03237103298306465,-0.012701546773314476,-0.0012814417714253068,0.3750361502170563,-0.16917839646339417,-9.769035339355469
1745666181.8053322,-0.023251459002494812,0.002176437061280012,-0.0008407600107602775,0.22176873683929443,0.01871098019182682,-9.988874435424805
1745666181.807286,-0.028769567608833313,-0.004762838128954172,0.0043945955112576485,0.36181676387786865,-0.10841928422451019,-9.709123611450195
1745666181.8108945,-0.01892831362783909,0.0018269410356879234,0.006304060108959675,0.17531976103782654,0.0985223799943924,-9.674321174621582
1745666181.8136716,-0.025306979194283485,-0.0031276769004762173,0.006184750702232122,0.3965373635292053,-0.14625197649002075,-9.834433555603027
1745666181.84712,-0.01511182077229023,-0.0033117644488811493,0.005007742438465357,0.21284279227256775,0.18610122799873352,-9.872941970825195
1745666181.8501298,-0.007182492408901453,0.0038009409327059984,0.004202690906822681,0.3263583779335022,0.04774022847414017,-9.725589752197266
1745666181.8517087,-0.0161899384111166,-0.005039586685597897,0.002088131383061409,0.3012442886829376,-0.01817927695810795,-9.65786361694336
1745666181.8549576,-0.0009775913786143064,0.00040463925688527524,0.0009317519143223763,0.3044205904006958,0.05290474370121956,-9.790450096130371
1745666181.8582816,-0.015570474788546562,-0.0010322650196030736,0.003893500193953514,0.37651699781417847,-0.2048620879650116,-9.948430061340332
1745666181.8924713,-0.004765232093632221,0.0014513878850266337,0.001521771540865302,0.15921448171138763,0.02236875705420971,-9.764426231384277
1745666181.8961854,-0.011033297516405582,0.0002518175169825554,0.00219812267459929,0.4686667025089264,-0.16960231959819794,-9.525703430175781
1745666181.9104888,-0.017145590856671333,-0.0016665745060890913,0.0024965903721749783,0.16771963238716125,0.04734079912304878,-9.847262382507324
1745666181.9108188,-0.011181931011378765,2.601929054435459e-06,-0.00035914653562940657,0.3912522792816162,-0.14447493851184845,-9.955156326293945
1745666181.9332178,-0.014280964620411396,0.0008234340930357575,-0.0011199808213859797,0.27601462602615356,0.022455189377069473,-9.734907150268555
1745666181.9349506,-0.016535267233848572,0.00789490807801485,-0.0017264310736209154,0.32999834418296814,-0.08723469078540802,-9.64950942993164
1745666181.9367492,-0.016780534759163857,-0.006567482836544514,-0.00033880065893754363,0.33839184045791626,-0.05410255864262581,-9.807669639587402
1745666181.9390023,-0.017849992960691452,0.0038606389425694942,-0.002569600474089384,0.3142600655555725,0.0006613314035348594,-9.961275100708008
1745666181.9422963,-0.0046646473929286,0.005916523281484842,0.0008611986413598061,0.36859163641929626,-0.06466475874185562,-9.787497520446777
1745666181.9827402,-0.01909978687763214,-0.0014407269190996885,-0.0027450076304376125,0.18869630992412567,0.12398798763751984,-9.667743682861328
1745666181.9829092,0.0020501073449850082,-0.002772929845377803,-0.0003074738779105246,0.5155874490737915,-0.09561498463153839,-9.688379287719727
1745666181.9862826,-0.011196626350283623,0.002496748697012663,-0.005277491174638271,0.23170311748981476,0.24980072677135468,-9.94201946258545
1745666181.9890668,0.004934342578053474,0.006014497950673103,-0.003774043871089816,0.2957299053668976,-0.13630570471286774,-9.918957710266113
1745666182.0233917,-0.017261499539017677,0.006883446127176285,0.0016954668099060655,0.24135418236255646,-0.008305895142257214,-9.92560863494873
1745666182.0241559,0.0029677236452698708,-0.0008542675641365349,0.003968956880271435,0.3905729651451111,0.003743159817531705,-9.663251876831055
1745666182.0274868,-0.01742323860526085,0.005776320118457079,0.005810486618429422,0.26059842109680176,0.11672470718622208,-9.667890548706055
1745666182.027906,0.0043607065454125404,-0.0009992982959374785,0.007204147987067699,0.4284089207649231,-0.059774965047836304,-9.875755310058594
1745666182.0664833,0.00015673637972213328,0.002713138936087489,0.007895788177847862,0.23805756866931915,0.28156307339668274,-9.893545150756836
1745666182.0760877,0.009525272995233536,0.007470260374248028,0.009120254777371883,0.36546552181243896,-0.1460699737071991,-9.826841354370117
1745666182.0762672,0.012755632400512695,-0.0014733357820659876,0.010795166715979576,0.2700756788253784,0.205474853515625,-9.56340217590332
1745666182.0763738,0.0032180589623749256,0.0007002813508734107,0.011157753877341747,0.3194078803062439,-0.19874365627765656,-9.886677742004395
1745666182.1053088,0.018739404156804085,0.0029145660810172558,0.010821354575455189,0.35623854398727417,-0.01920148730278015,-9.856223106384277
1745666182.1083646,-0.0027562719769775867,0.007023022975772619,0.011239929124712944,0.16769345104694366,-0.04130785912275314,-9.780611038208008
1745666182.1138167,0.009563952684402466,-0.0029608223121613264,0.012641129083931446,0.4650300443172455,-0.20106332004070282,-9.553203582763672
1745666182.1168075,-0.01393907330930233,0.00266413320787251,0.013121368363499641,0.27151331305503845,0.0021834522485733032,-9.869054794311523
1745666182.1218352,-0.0017376746982336044,0.003922695759683847,0.013883238658308983,0.3590030074119568,-0.18694446980953217,-10.055200576782227
1745666182.1516526,-0.01128180231899023,0.0017716772854328156,0.013094696216285229,0.23749324679374695,0.07606135308742523,-9.633420944213867
1745666182.1564176,-0.007595310918986797,0.003934824373573065,0.01520969532430172,0.38579946756362915,-0.12854453921318054,-9.58458423614502
1745666182.1579807,-0.0011612627422437072,-0.001367976889014244,0.018910106271505356,0.34653645753860474,-0.16270530223846436,-9.830829620361328
1745666182.1631246,-0.0005233160336501896,-0.005006101913750172,0.017269540578126907,0.29368987679481506,0.04380933940410614,-9.688796043395996
1745666182.1918404,-0.003822780679911375,0.0027788118459284306,0.017711663618683815,0.34524160623550415,-0.01723203808069229,-9.770288467407227
1745666182.198069,-0.006730156950652599,-0.005081217736005783,0.017552288249135017,0.35677099227905273,-0.07243755459785461,-9.88917350769043
1745666182.199834,0.004890711046755314,-0.0012749455636367202,0.017200777307152748,0.2690053880214691,0.08308424055576324,-9.800924301147461
1745666182.2022123,-0.00973693560808897,-0.00109205674380064,0.016965705901384354,0.4347420632839203,-0.09864792972803116,-9.647478103637695
1745666182.2043526,0.00535710621625185,-0.00217044516466558,0.016530070453882217,0.23474064469337463,0.10576699674129486,-9.728302955627441
1745666182.241431,-0.0028888278175145388,-0.0022628773003816605,0.017245730385184288,0.4419620633125305,-0.13794997334480286,-9.826129913330078
1745666182.2414722,-0.004886142909526825,-0.0030362627003341913,0.017452886328101158,0.2318490743637085,0.0888424813747406,-9.880697250366211
1745666182.2442563,0.006340596824884415,0.002789366291835904,0.017962640151381493,0.37556537985801697,-0.0878736823797226,-9.761475563049316
1745666182.246104,0.00027581537142395973,-0.006144949235022068,0.017863769084215164,0.29302993416786194,0.014236493036150932,-9.670974731445312
1745666182.2796297,0.00021228427067399025,0.0008580211433582008,0.018950074911117554,0.3075219988822937,0.007814651355147362,-9.788856506347656
1745666182.28306,0.007499058730900288,-0.004659005906432867,0.016672052443027496,0.38564103841781616,-0.10839136689901352,-9.832175254821777
1745666182.284639,-0.0042909299954771996,0.004051562398672104,0.017610767856240273,0.1633070558309555,0.10910477489233017,-9.832792282104492
1745666182.2878883,0.007885558530688286,-0.00541961332783103,0.01631118543446064,0.42690277099609375,-0.15567412972450256,-9.65218734741211
1745666182.319987,-0.0029889256693422794,-0.003142815548926592,0.017868924885988235,0.23914916813373566,0.03439369052648544,-9.791836738586426
1745666182.3231094,0.0026891562156379223,0.001909433281980455,0.015817884355783463,0.3496004641056061,-0.07247243821620941,-9.980332374572754
1745666182.324518,-0.0004941722145304084,-0.004839615430682898,0.01619938760995865,0.24300861358642578,0.011400826275348663,-9.72230052947998
1745666182.3262584,0.004377557430416346,-0.000661256373859942,0.015027950517833233,0.3610943555831909,-0.06315619498491287,-9.535402297973633
1745666182.3302743,-0.006291089113801718,-0.006180796772241592,0.015139351598918438,0.3804425299167633,-0.0345698818564415,-9.891230583190918
1745666182.366774,0.005646304693073034,-0.0005662616458721459,0.014448126778006554,0.18779127299785614,-0.004987351596355438,-10.07685661315918
1745666182.3693268,-0.0016810331726446748,-0.001733413664624095,0.011922808364033699,0.2169305980205536,0.14087679982185364,-9.710992813110352
1745666182.3708804,0.009311074391007423,3.2415614441561047e-06,0.013230381533503532,0.42791634798049927,-0.1566765308380127,-9.563692092895508
1745666182.3736231,-0.0044760266318917274,-0.008886853232979774,0.009448482654988766,0.31186047196388245,0.08860846608877182,-9.788949966430664
1745666182.410033,0.005449119955301285,0.006398510187864304,0.011726479046046734,0.2769079804420471,-0.1107129454612732,-10.034833908081055
1745666182.4152868,-0.00452175410464406,-0.0059457803145051,0.011898403987288475,0.429082453250885,-0.0510932095348835,-9.657381057739258
1745666182.4174783,0.004394434858113527,0.004602201748639345,0.014560376293957233,0.3388553261756897,-0.012817365117371082,-9.68574047088623
1745666182.4191773,-0.0003335965739097446,-0.0064371200278401375,0.015305663459002972,0.42051854729652405,-0.11003968864679337,-9.86634635925293
1745666182.4490452,-0.001445471541956067,0.00017633894458413124,0.014655331149697304,0.29924651980400085,0.0775812640786171,-9.840923309326172
1745666182.4508986,0.003640193957835436,0.0014150962233543396,0.01720227301120758,0.534256100654602,-0.04623369127511978,-9.641825675964355
1745666182.4523246,-0.014412885531783104,-0.0001759767474140972,0.01836894452571869,0.2033843696117401,0.014143961481750011,-9.855545043945312
1745666182.4547725,0.014718505553901196,-0.0005467900773510337,0.017898086458444595,0.32563310861587524,0.1240890771150589,-9.781427383422852
1745666182.4557986,-0.014174705371260643,-0.0013630471657961607,0.021259421482682228,0.40044188499450684,-0.07402955740690231,-9.767236709594727
1745666182.4939346,0.01964278519153595,0.0030832423362880945,0.019467171281576157,0.24722082912921906,0.20007464289665222,-9.797255516052246
1745666182.4947295,-0.0005865169805474579,-0.004538271576166153,0.020561624318361282,0.3978520333766937,-0.01957886293530464,-9.778684616088867
1745666182.497724,0.017289599403738976,0.002870407421141863,0.02447223663330078,0.2491910457611084,0.04925645515322685,-9.771894454956055
1745666182.4987855,-0.009494995698332787,-0.0009016746771521866,0.049734242260456085,0.3681338131427765,-0.026595881208777428,-10.033772468566895
1745666182.537454,-0.016363801434636116,0.00863021332770586,0.051014356315135956,0.2259056568145752,0.06674979627132416,-9.701047897338867
1745666182.544289,-0.01846648007631302,5.431286808743607e-06,0.05389627069234848,0.5230349898338318,-0.1399461179971695,-9.50636100769043
1745666182.5457375,-0.010412866249680519,-7.024649676168337e-05,0.054161399602890015,0.18049366772174835,0.20277075469493866,-9.884725570678711
1745666182.5476685,-0.012668820098042488,0.0034066748339682817,0.04924304038286209,0.38693881034851074,0.01850665733218193,-10.00012493133545
1745666182.5505745,-0.006721544079482555,-0.002051417948678136,0.0512763075530529,0.2847960293292999,0.13095073401927948,-9.736306190490723
1745666182.5811872,-0.0008247492951340973,0.003703536931425333,0.0517362579703331,0.24281620979309082,0.03280811384320259,-9.620634078979492
1745666182.5830884,-0.0088679613545537,-0.006478212773799896,0.0514536015689373,0.29116833209991455,-0.09182385355234146,-9.759389877319336
1745666182.585408,-0.0015148066449910402,0.00480245053768158,0.054402172565460205,0.2880229949951172,-0.07754066586494446,-9.86457633972168
1745666182.5901313,-0.009972283616662025,5.616770431515761e-05,0.05421452596783638,0.42100071907043457,-0.2368534505367279,-9.811134338378906
1745666182.622995,-0.016680831089615822,-0.0006088368827477098,0.056386251002550125,0.22300243377685547,0.07595985382795334,-9.77672004699707
1745666182.6262724,-0.008205912075936794,-0.0007050273707136512,0.05428064987063408,0.47061070799827576,-0.23756727576255798,-9.757865905761719
1745666182.6289537,-0.029847275465726852,-0.0007720828289166093,0.05561358854174614,0.22247645258903503,0.1166236624121666,-9.76696491241455
1745666182.6301067,-0.020500406622886658,0.0019223957788199186,0.05279386043548584,0.36783573031425476,-0.15131597220897675,-9.791422843933105
1745666182.6670132,-0.027554970234632492,-0.0033372826874256134,0.053483329713344574,0.3178134560585022,0.07786364108324051,-9.750388145446777
1745666182.6689372,-0.03438311070203781,0.004025288857519627,0.05322898179292679,0.2038179636001587,-0.015491405501961708,-9.867643356323242
1745666182.6718073,-0.020252520218491554,-0.004653044976294041,0.05530054494738579,0.5101569890975952,-0.03307065740227699,-9.685989379882812
1745666182.6738229,-0.0306914784014225,0.0010819437447935343,0.0528092160820961,0.22987405955791473,0.23232868313789368,-9.798482894897461
1745666182.675438,-0.012744830921292305,-0.003726694732904434,0.05448545888066292,0.413098007440567,-0.057199131697416306,-9.874807357788086
1745666182.7153113,-0.01414432656019926,-0.0031542503274977207,0.05497414618730545,0.25941601395606995,0.24165265262126923,-9.762292861938477
1745666182.715465,-0.004189755767583847,0.0027809373568743467,0.05521174520254135,0.38733282685279846,-0.036550454795360565,-9.712891578674316
1745666182.7155285,-0.027819469571113586,-0.0018674649763852358,0.05996806547045708,0.29817619919776917,0.10705415904521942,-9.772587776184082
1745666182.7555563,-0.023326624184846878,-0.005283658392727375,0.05984370782971382,0.36602145433425903,-0.016651147976517677,-9.918663024902344
1745666182.758483,-0.01753261126577854,0.0008111445349641144,0.05778731033205986,0.171889990568161,0.32891541719436646,-9.816071510314941
1745666182.7586448,-0.016519920900464058,-0.007628335151821375,0.05843837931752205,0.42630141973495483,-0.008271964266896248,-9.65501880645752
1745666182.7739758,-0.005594179965555668,-0.006274131592363119,0.05804108455777168,0.28752678632736206,0.17684540152549744,-9.692513465881348
1745666182.774093,-0.016881998628377914,0.002228122903034091,0.05702236294746399,0.3566552698612213,-0.0063691651448607445,-9.908038139343262
1745666182.796718,-0.008580943569540977,-0.010748608037829399,0.05817217379808426,0.3729654848575592,-0.12595246732234955,-9.770891189575195
1745666182.800544,-0.025009283795952797,0.0017362423241138458,0.05981883406639099,0.31807032227516174,0.0681186318397522,-9.719522476196289
1745666182.802442,-0.021476788446307182,-0.011031141504645348,0.057235825806856155,0.42146992683410645,-0.16951869428157806,-9.85102367401123
1745666182.804482,-0.014264613389968872,-0.002863542875275016,0.05954013392329216,0.2747038006782532,0.2108869105577469,-9.799398422241211
1745666182.8397431,-0.03419067710638046,-0.0021721001248806715,0.059823356568813324,0.4012734889984131,-0.057209812104701996,-9.817571640014648
1745666182.8424115,-0.014431443996727467,-0.006240406073629856,0.056670982390642166,0.1848112791776657,0.15831884741783142,-9.719614028930664
1745666182.84454,-0.023281656205654144,-0.0045034983195364475,0.0597020760178566,0.3825853168964386,-0.06645293533802032,-9.751720428466797
1745666182.844771,-0.017906298860907555,-0.004621399100869894,0.058256275951862335,0.2699414789676666,0.14664998650550842,-9.827875137329102
1745666182.8813567,0.009996910579502583,-0.0035619004629552364,0.02863932028412819,0.4065325856208801,-0.08748157322406769,-10.002747535705566
1745666182.8838618,0.004051622003316879,0.004017706029117107,0.02909119799733162,0.2750250995159149,0.18280526995658875,-9.802596092224121
1745666182.8872926,0.013383865356445312,0.0025568793062120676,0.028286878019571304,0.476297527551651,-0.15978404879570007,-9.663705825805664
1745666182.8887148,-0.0014702134067192674,-0.008060184307396412,0.027487944811582565,0.22971343994140625,0.23561593890190125,-9.791632652282715
1745666182.9228039,0.013993004336953163,0.002856660634279251,0.028738612309098244,0.42776113748550415,-0.12240855395793915,-9.954049110412598
1745666182.9244072,0.006258727516978979,0.000813594670034945,0.02798273228108883,0.32615283131599426,0.2257450371980667,-9.741312026977539
1745666182.9261324,0.005610204301774502,-0.0020484488923102617,0.026681819930672646,0.19800418615341187,0.039053067564964294,-9.794026374816895
1745666182.9340408,0.019593562930822372,-0.008720485493540764,0.028263071551918983,0.45863237977027893,0.0587150938808918,-9.674046516418457
1745666182.9341881,-0.0023069684393703938,0.006272965110838413,0.02587222121655941,0.18182453513145447,0.22088000178337097,-9.93755054473877
1745666182.968187,0.028118470683693886,-0.007269726600497961,0.025617867708206177,0.4422461986541748,-0.10831178724765778,-9.783467292785645
1745666182.9694488,0.005742169450968504,-0.0030813380144536495,0.02620808221399784,0.2647415101528168,0.23597323894500732,-9.689748764038086
1745666182.9720328,0.018016217276453972,-0.0012948901858180761,0.02561781369149685,0.3805430829524994,-0.10185591131448746,-9.841463088989258
1745666182.9764597,0.017595786601305008,-0.0055596232414245605,0.026757705956697464,0.27163219451904297,0.059462208300828934,-9.789926528930664
1745666183.0113404,0.0093157310038805,0.0003568730317056179,0.02449093759059906,0.29355835914611816,0.07808496057987213,-9.712121963500977
1745666183.0125942,0.023134062066674232,-0.003223131177946925,0.026797374710440636,0.41225284337997437,-0.07775275409221649,-9.714239120483398
1745666183.0168216,0.009340822696685791,0.002952658338472247,0.02380196377635002,0.15816250443458557,0.24917078018188477,-9.854116439819336
1745666183.0286677,0.015312498435378075,-0.0033760755322873592,0.023686006665229797,0.44542163610458374,-0.17118749022483826,-9.778358459472656
1745666183.028746,0.007914433255791664,0.0003894871915690601,0.02386605367064476,0.17880779504776,0.18280458450317383,-9.784636497497559
1745666183.0570652,0.015082472935318947,-0.00018113777332473546,0.021530747413635254,0.3875963091850281,-0.12599340081214905,-9.806432723999023
1745666183.0617757,0.016040030866861343,-0.0005507711903192103,0.023691823706030846,0.32311806082725525,0.12744836509227753,-9.70167064666748
1745666183.0655065,0.007245131768286228,0.0028937715105712414,0.023044349625706673,0.3446362614631653,0.029401659965515137,-9.770606994628906
1745666183.071571,0.02425975725054741,-0.00131340348161757,0.024419773370027542,0.40852785110473633,0.031131813302636147,-9.798747062683105
1745666183.1007996,0.016257822513580322,0.005766635295003653,0.020659413188695908,0.30034470558166504,-0.09954114258289337,-9.91386604309082
1745666183.1008515,0.02834346517920494,-0.008104493841528893,0.018979374319314957,0.4333667755126953,0.011839332990348339,-9.691004753112793
1745666183.1009116,0.013503390364348888,0.0007524184766225517,0.01808527298271656,0.30356913805007935,-0.002772396896034479,-9.812073707580566
1745666183.102698,0.028523851186037064,0.002543442649766803,0.019457034766674042,0.41193851828575134,-0.06748373806476593,-9.815388679504395
1745666183.1392298,0.009116931818425655,-0.004834492690861225,0.016575079411268234,0.14393524825572968,0.13913598656654358,-9.758102416992188
1745666183.1433809,0.026661325246095657,0.0008861480164341629,0.018599718809127808,0.4746425747871399,-0.1333508938550949,-9.648284912109375
1745666183.1481733,0.008192901499569416,-0.0013453280553221703,0.016792934387922287,0.2211940735578537,0.20429876446723938,-9.84005069732666
1745666183.150625,0.027001027017831802,0.002310781506821513,0.012772980146110058,0.30226629972457886,-0.12765976786613464,-9.902920722961426
1745666183.1817555,0.01646798476576805,-0.001660788431763649,0.015010155737400055,0.39085835218429565,0.19516220688819885,-9.571745872497559
1745666183.1930094,0.009029990062117577,0.002558685140684247,0.014290260151028633,0.29108381271362305,-0.07943592220544815,-9.851320266723633
1745666183.1930978,0.03347351402044296,-0.0018965313211083412,0.014594541862607002,0.4531485140323639,0.0382160022854805,-9.802240371704102
1745666183.1943455,0.003716290695592761,-0.000387546926504001,0.012292111292481422,0.2631722092628479,0.08553227037191391,-9.84479808807373
1745666183.1973083,0.04028437286615372,0.00798729993402958,0.013929048553109169,0.4490692615509033,-0.06604155898094177,-9.708478927612305
1745666183.2256417,0.012849007733166218,-0.004516207613050938,0.012489916756749153,0.23649318516254425,0.26922065019607544,-9.712198257446289
1745666183.2352827,0.03726280480623245,-0.004221315495669842,-0.004812966100871563,0.3096615970134735,0.1513829529285431,-9.7218017578125
1745666183.235431,0.02245044708251953,0.006721979938447475,-0.0059194802306592464,0.29017117619514465,-0.1323428750038147,-9.762524604797363
1745666183.2355115,0.036979127675294876,-0.008728492073714733,-0.005790568422526121,0.3781193494796753,-0.06050891801714897,-9.690823554992676
1745666183.2670875,0.022028926759958267,0.0027488458435982466,-0.006466733757406473,0.29049158096313477,-0.019690942019224167,-9.834040641784668
1745666183.269609,0.02736889198422432,-0.0005132819642312825,-0.005764543078839779,0.4142155051231384,-0.18888631463050842,-9.88072395324707
1745666183.2710254,0.026143589988350868,0.002582923974841833,-0.007131451275199652,0.21365055441856384,0.08278988301753998,-9.71982479095459
1745666183.2725656,0.023555945605039597,-0.0016896690940484405,-0.008018316701054573,0.42440325021743774,-0.16172470152378082,-9.682191848754883
1745666183.2848964,0.020414825528860092,-0.002445776015520096,-0.006374862976372242,0.22492699325084686,0.036022283136844635,-9.875964164733887
1745666183.3118145,0.02526087686419487,0.00043851026566699147,-0.012184646911919117,0.36102110147476196,-0.07033839076757431,-9.883418083190918
1745666183.316347,0.019297678023576736,-0.003589090658351779,-0.00812408234924078,0.344657838344574,-0.028214896097779274,-9.705615997314453
1745666183.318839,0.029593955725431442,0.0012118417071178555,-0.009349651634693146,0.27410995960235596,0.002548596356064081,-9.716024398803711
1745666183.3239257,0.021003026515245438,-0.0041154660284519196,-0.00895656831562519,0.44008564949035645,-0.12116273492574692,-9.834348678588867
1745666183.3581164,0.028297096490859985,-0.001445708447135985,-0.009481951594352722,0.21415260434150696,0.05763285234570503,-9.92418384552002
1745666183.3587391,0.02559496834874153,0.0022574651520699263,-0.008312670513987541,0.4796421527862549,-0.12051902711391449,-9.678960800170898
1745666183.361612,0.023898929357528687,-0.006990117486566305,-0.009175801649689674,0.19641533493995667,0.04455733299255371,-9.732023239135742
1745666183.363597,0.03357531875371933,-0.0012893198290839791,-0.01050863228738308,0.4027954638004303,-0.08215652406215668,-9.78271198272705
1745666183.3648622,0.027051467448472977,-0.0025476631708443165,-0.0127389682456851,0.31621742248535156,0.02306251972913742,-9.814326286315918
1745666183.3998306,0.03090473636984825,0.0009739518282003701,-0.015087539330124855,0.2664998173713684,-0.026480600237846375,-9.78639030456543
1745666183.404193,0.03204365447163582,-0.0024435617960989475,-0.013540971092879772,0.43734341859817505,-0.13809873163700104,-9.61021900177002
1745666183.4068122,0.015047473832964897,0.004585388116538525,-0.015733784064650536,0.19087736308574677,0.07138176262378693,-9.836725234985352
1745666183.4106884,0.03745575621724129,-0.002789129037410021,-0.015484700910747051,0.4410565495491028,-0.3304785192012787,-9.86810302734375
1745666183.443514,0.02323893830180168,-0.0012623431393876672,-0.015029937028884888,0.27170735597610474,0.1690523326396942,-9.693020820617676
1745666183.4476986,0.02710564061999321,-0.003614463610574603,-0.021500498056411743,0.2693766951560974,0.012987324967980385,-9.791781425476074
1745666183.4510846,0.025027329102158546,0.0008744109654799104,-0.018431317061185837,0.48454681038856506,-0.11194147914648056,-9.734220504760742
1745666183.4542456,0.017727112397551537,-0.002494727959856391,-0.019420526921749115,0.23606760799884796,-0.11210010945796967,-9.872835159301758
1745666183.4881585,0.04096462205052376,0.0038345432840287685,-0.019751358777284622,0.31589001417160034,-0.03068516030907631,-9.7455472946167
1745666183.490822,0.01227146852761507,-0.005940919741988182,-0.019973667338490486,0.36830466985702515,-0.07054094970226288,-9.702139854431152
1745666183.494741,0.039368145167827606,0.0033681399654597044,-0.020806005224585533,0.2403329312801361,-0.05188475176692009,-9.841191291809082
1745666183.4979532,0.03040805459022522,-0.0024522230960428715,-0.022913288325071335,0.4234789311885834,-0.05197354406118393,-9.763579368591309
1745666183.52521,0.019733967259526253,0.0015486732590943575,-0.02375604584813118,0.22288766503334045,-0.06426261365413666,-9.845641136169434
1745666183.529135,0.032755911350250244,-0.0018645214149728417,-0.023966321721673012,0.4162572920322418,-0.14208634197711945,-9.706140518188477
1745666183.5318785,0.0160056222230196,-0.0034788879565894604,-0.024222031235694885,0.3099544048309326,-0.19520440697669983,-9.732959747314453
1745666183.5367134,0.030103567987680435,0.005636113230139017,-0.026124780997633934,0.36262908577919006,-0.06579254567623138,-9.759843826293945
1745666183.5388932,0.013689910992980003,-0.005229394417256117,-0.027166474610567093,0.355561763048172,-0.11849717795848846,-9.83395767211914
1745666183.57023,0.031233694404363632,0.0063751800917088985,-0.024875227361917496,0.340059757232666,0.03366853669285774,-9.666759490966797
1745666183.5735056,0.0046096243895590305,-0.0037811852525919676,-0.02658792957663536,0.4225960671901703,-0.0973992794752121,-9.801087379455566
1745666183.5746968,0.013272812590003014,-0.0005223255720920861,-0.04113268479704857,0.3823363184928894,-0.15722092986106873,-9.6759614944458
1745666183.576317,0.029141882434487343,-0.0004679430276155472,-0.04297437146306038,0.21621891856193542,-0.2070072442293167,-9.736879348754883
1745666183.6137571,0.02360280603170395,-0.001464860513806343,-0.04176304489374161,0.4957761764526367,-0.03924097865819931,-9.734285354614258
1745666183.616492,0.01190507784485817,0.002177109941840172,-0.041940897703170776,0.25137418508529663,-0.18262208998203278,-10.00415325164795
1745666183.6174383,0.037139393389225006,0.002982731908559799,-0.04432958364486694,0.3944247364997864,-0.012872499413788319,-9.681798934936523
1745666183.6191447,0.011145791038870811,-0.00755197461694479,-0.044558919966220856,0.37806469202041626,-0.17464852333068848,-9.624944686889648
1745666183.6201997,0.037497155368328094,0.006668432150036097,-0.04403514415025711,0.2881176471710205,-0.07443654537200928,-9.874567985534668
1745666183.6574302,0.016392335295677185,-0.004344024695456028,-0.04597942531108856,0.39483800530433655,-0.16197678446769714,-9.849348068237305
1745666183.6589284,0.03462671488523483,0.0017269026720896363,-0.044328439980745316,0.2645440697669983,-0.08359333127737045,-9.678960800170898
1745666183.6624439,0.019921472296118736,0.0029405553359538317,-0.04544616863131523,0.4464121460914612,-0.1623401790857315,-9.70240306854248
1745666183.6667178,0.029432620853185654,-0.0027954764664173126,-0.0472167544066906,0.22939161956310272,-0.15629717707633972,-9.931270599365234
1745666183.6975431,0.037659645080566406,0.001616583438590169,-0.04782906919717789,0.44756588339805603,-0.16038624942302704,-9.748723030090332
1745666183.69935,0.010366246104240417,0.002197572495788336,-0.047716785222291946,0.2642924189567566,-0.08319772034883499,-9.706464767456055
1745666183.7014313,0.03852352499961853,0.0016130510484799743,-0.047913458198308945,0.3684312105178833,-0.2462249994277954,-9.672085762023926
1745666183.7032382,0.013272332958877087,-0.0013635819777846336,-0.04786261171102524,0.3945538103580475,-0.12167875468730927,-9.82572078704834
1745666183.7442281,0.022284360602498055,0.0019784693140536547,-0.04804671183228493,0.23430006206035614,-0.15001769363880157,-10.00016975402832
1745666183.7456062,0.03216501325368881,0.00025921742781065404,-0.04972140118479729,0.467031329870224,-0.24296388030052185,-9.617433547973633
1745666183.7474923,0.01107514277100563,0.00045685144141316414,-0.04896852746605873,0.20717744529247284,-0.0172230564057827,-9.697137832641602
1745666183.7489178,0.030177410691976547,-0.0039878664538264275,-0.05115277320146561,0.4735911786556244,-0.2674197554588318,-9.836504936218262
1745666183.7833414,0.01371830515563488,-0.0006251928280107677,-0.05237621068954468,0.28307604789733887,-0.10673870146274567,-9.877922058105469
1745666183.7875497,0.03146912902593613,0.0058976272121071815,-0.051245253533124924,0.3617554306983948,-0.15114523470401764,-9.733243942260742
1745666183.789794,0.026895180344581604,-0.004019307438284159,-0.05634692311286926,0.40009766817092896,-0.23413915932178497,-9.926575660705566
1745666183.791351,0.013273772783577442,-0.002190896775573492,-0.05847335606813431,0.33565154671669006,-0.02709277905523777,-9.696429252624512
1745666183.8280368,0.011300663463771343,0.003265662584453821,-0.05834273248910904,0.3065604865550995,-0.26460784673690796,-9.695171356201172
1745666183.8291154,0.029449796304106712,-0.009799271821975708,-0.05909495800733566,0.5035600662231445,-0.16319558024406433,-9.706062316894531
1745666183.831567,0.01582283154129982,0.0009774204809218645,-0.06071393936872482,0.25381138920783997,-0.10513882339000702,-9.993631362915039
1745666183.8358839,0.018857654184103012,0.0036134582478553057,-0.06033461168408394,0.4135991930961609,-0.27552691102027893,-9.73654842376709
1745666183.8372176,0.01847836934030056,-0.003976901993155479,-0.060758136212825775,0.31398528814315796,-0.04177705571055412,-9.485389709472656
1745666183.8739262,0.013783462345600128,0.0043771700002253056,-0.06416323035955429,0.3843853771686554,-0.25907042622566223,-9.880392074584961
1745666183.8773632,0.013312265276908875,-0.005076382774859667,-0.0635872632265091,0.33948081731796265,-0.15220676362514496,-10.076971054077148
1745666183.8813999,0.025911126285791397,0.006147146224975586,-0.06513050198554993,0.32674139738082886,-0.16016770899295807,-9.72899341583252
1745666183.8847404,0.008878092281520367,-0.004404861945658922,-0.0645284652709961,0.4249657690525055,-0.22813227772712708,-9.535536766052246
1745666183.9130743,0.020894337445497513,-0.0025689981412142515,-0.06722970306873322,0.3218699097633362,-0.12600184977054596,-9.845703125
1745666183.9168425,0.011410394683480263,-4.1965115087805316e-05,-0.06576365232467651,0.4543471932411194,-0.28130772709846497,-9.993796348571777
1745666183.9206653,0.012178580276668072,0.001375246443785727,-0.06742645800113678,0.220789834856987,-0.0746605321764946,-9.752395629882812
1745666183.925699,0.009170083329081535,0.0027291018050163984,-0.08806397765874863,0.20108409225940704,-0.27622222900390625,-10.123878479003906
1745666183.9588492,0.02986881695687771,-0.0003532447444740683,-0.08479860424995422,0.4648151397705078,-0.2546626925468445,-9.761838912963867
1745666183.967481,0.01099078357219696,0.0007176555809564888,-0.08514510095119476,0.262580931186676,-0.13015694916248322,-9.577189445495605
1745666183.972074,0.02367457002401352,-0.007926898077130318,-0.082285575568676,0.42585867643356323,-0.3691912889480591,-9.860905647277832
1745666183.9767892,0.021553872153162956,-0.005016258452087641,-0.08132815361022949,0.2674020528793335,-0.00023395568132400513,-9.948493003845215
1745666184.005346,0.024247851222753525,0.006962100509554148,-0.08258046954870224,0.32644394040107727,-0.2772059440612793,-9.788148880004883
1745666184.0054514,0.020130708813667297,-0.008728673681616783,-0.08458535373210907,0.27669382095336914,-0.09613779932260513,-9.554327011108398
1745666184.0055068,0.022146862000226974,-0.002012514276430011,-0.08268459886312485,0.3923466205596924,-0.29289329051971436,-9.77856159210205
1745666184.0092287,0.015268674120306969,-0.004447727929800749,-0.08284852653741837,0.3656972348690033,-0.2529187798500061,-9.96463680267334
1745666184.0177498,0.013763310387730598,-0.000411689979955554,-0.08494964241981506,0.24904251098632812,-0.22373537719249725,-9.782771110534668
1745666184.0431142,0.016820203512907028,-0.006245850585401058,-0.08248491585254669,0.5394370555877686,-0.33596187829971313,-9.473925590515137
1745666184.0442035,0.0032933689653873444,-0.002366006840020418,-0.08085397630929947,0.27684342861175537,-0.167161226272583,-9.851125717163086
1745666184.0469828,0.015758328139781952,-0.003242029342800379,-0.0829625129699707,0.4441410005092621,-0.2689135670661926,-9.9882230758667
1745666184.048435,0.004342158790677786,-1.8226541214971803e-05,-0.08073562383651733,0.28106433153152466,-0.11773916333913803,-9.738018989562988
1745666184.085685,0.01302180252969265,-7.26857251720503e-05,-0.08101078122854233,0.26639848947525024,-0.22946086525917053,-9.678689956665039
1745666184.086942,0.02050885185599327,-0.01176377385854721,-0.08176903426647186,0.3994460701942444,-0.111667200922966,-9.747802734375
1745666184.0939324,0.013466370292007923,0.0034715677611529827,-0.08099997788667679,0.22601565718650818,-0.09729824960231781,-9.944108963012695
1745666184.0943902,0.02080460451543331,-0.0023640585131943226,-0.08312399685382843,0.4417168200016022,-0.31630340218544006,-9.715485572814941
1745666184.0966,0.021410301327705383,-0.006857705302536488,-0.0817880630493164,0.26876193284988403,-0.012340446002781391,-9.597829818725586
1745666184.1314754,0.012320555746555328,-0.0024073002859950066,-0.08081431686878204,0.4380684792995453,-0.48091691732406616,-9.918338775634766
1745666184.132394,0.016453908756375313,-0.006789101753383875,-0.08152304589748383,0.2885856628417969,-0.1350952386856079,-9.964147567749023
1745666184.1335597,0.016375018283724785,-0.0025631384924054146,-0.08060221374034882,0.3734821081161499,-0.29128408432006836,-9.719853401184082
1745666184.1360652,0.014735433273017406,-0.0069584473967552185,-0.0818500891327858,0.43141961097717285,-0.45087963342666626,-9.814311027526855
1745666184.1824358,0.006440701894462109,-0.009305140003561974,-0.07980333268642426,0.27757787704467773,-0.048458050936460495,-9.777012825012207
1745666184.1824975,0.0026195391546934843,-0.0019915744196623564,-0.07937891036272049,0.32606247067451477,-0.3417258858680725,-9.862940788269043
1745666184.1839628,0.014357189647853374,-0.010912171564996243,-0.07824738323688507,0.4120093286037445,-0.22700104117393494,-9.64472484588623
1745666184.188958,-0.0008457150543108582,-0.0012531222309917212,-0.07893816381692886,0.3241017460823059,-0.08751731365919113,-9.757880210876465
1745666184.2158232,0.012000407092273235,-0.008574267849326134,-0.08040957152843475,0.4249822497367859,-0.31280529499053955,-9.88357925415039
1745666184.220997,-0.0020846519619226456,-0.0052007585763931274,-0.08301572501659393,0.23979124426841736,-0.07120342552661896,-9.848566055297852
1745666184.2252953,0.015339232981204987,-0.009360420517623425,-0.08050982654094696,0.5244232416152954,-0.3645036220550537,-9.703338623046875
1745666184.2276826,0.006302208639681339,-0.006316018756479025,-0.08249538391828537,0.27278316020965576,-0.05905789136886597,-9.772381782531738
1745666184.2567534,0.008524280041456223,-0.0036104214377701283,-0.08434081822633743,0.32386305928230286,-0.19025246798992157,-9.822763442993164
1745666184.2609878,0.014402369037270546,-0.008638663217425346,-0.08481661230325699,0.5159734487533569,-0.19955214858055115,-9.578486442565918
1745666184.2719738,0.011670277453958988,0.0030595026910305023,-0.08597402274608612,0.24649366736412048,-0.13507167994976044,-9.891763687133789
1745666184.2768948,0.014856998808681965,-0.013687105849385262,-0.08657040446996689,0.4595314860343933,-0.3560316562652588,-9.956900596618652
1745666184.2793102,0.024185914546251297,-0.00127560889814049,-0.08442540466785431,0.2798677086830139,-0.1381874531507492,-9.755741119384766
1745666184.3002691,0.023827839642763138,-0.0004517141787800938,-0.1095135360956192,0.41277986764907837,-0.21079954504966736,-10.091853141784668
1745666184.3042917,0.01664983481168747,-0.006974606774747372,-0.11060012876987457,0.28943222761154175,-0.25171905755996704,-10.001306533813477
1745666184.3074536,0.0421607680618763,0.010893626138567924,-0.10889919847249985,0.3784398138523102,-0.1717745065689087,-9.487981796264648
