timestamp,angular_vel_x,angular_vel_y,angular_vel_z,linear_acc_x,linear_acc_y,linear_acc_z
1745671862.169981,0.04192337766289711,-0.08146406710147858,-0.36085158586502075,0.4412134289741516,-0.7456356883049011,-9.597040176391602
1745671862.1700864,0.04290762171149254,-0.08515961468219757,-0.3591518998146057,0.662850022315979,-0.7162057161331177,-9.715230941772461
1745671862.1701615,0.02730376645922661,-0.08567045629024506,-0.3575275242328644,0.4150605797767639,-0.8311012983322144,-10.074457168579102
1745671862.1702297,0.04747835546731949,-0.07866774499416351,-0.35802316665649414,0.30499371886253357,-0.41687852144241333,-9.737774848937988
1745671862.170288,0.02962370589375496,-0.08661151677370071,-0.3589800000190735,0.6173959374427795,-0.6373242139816284,-9.427207946777344
1745671862.1776605,0.05555931478738785,-0.050286538898944855,-0.3652283549308777,0.6556859016418457,-0.45818036794662476,-9.87730884552002
1745671862.1789541,0.03299040347337723,-0.043854840099811554,-0.3697246015071869,0.40810471773147583,-0.49749794602394104,-9.837265014648438
1745671862.1859303,0.05671042948961258,-0.03443871811032295,-0.3711477220058441,0.4323570728302002,-0.6246391534805298,-9.583186149597168
1745671862.1883783,0.03529664874076843,-0.04382074996829033,-0.37327906489372253,0.611371636390686,-0.8527986407279968,-9.563271522521973
1745671862.221787,0.03879844397306442,-0.0367342010140419,-0.3717561662197113,0.43835514783859253,-0.7114754915237427,-10.04955768585205
1745671862.2251704,0.03864374756813049,-0.03596037998795509,-0.3722445070743561,0.6594060063362122,-0.9448034167289734,-9.962657928466797
1745671862.227616,0.016847098246216774,-0.03199150040745735,-0.3703305125236511,0.5571506023406982,-0.8032307624816895,-9.486841201782227
1745671862.2384968,0.008128799498081207,-0.03406602889299393,-0.36841440200805664,0.6656841039657593,-0.9203140139579773,-9.580889701843262
1745671862.266067,0.008893417194485664,-0.034762002527713776,-0.3678436279296875,0.4631044268608093,-0.6930297613143921,-10.020318031311035
1745671862.2662332,0.006487581878900528,-0.018230950459837914,-0.36862069368362427,0.4079158306121826,-0.6074516773223877,-9.901952743530273
1745671862.267655,0.00970533024519682,-0.027904927730560303,-0.3714677691459656,0.5359244346618652,-0.7012698650360107,-9.435338973999023
1745671862.2698858,0.018726998940110207,-0.026987779885530472,-0.3721144497394562,0.4499737620353699,-0.2200184166431427,-9.487116813659668
1745671862.2709646,0.01302386075258255,-0.02228592336177826,-0.37311702966690063,0.6115826368331909,-0.7568163275718689,-10.146978378295898
1745671862.3063152,0.03484831005334854,-0.018478740006685257,-0.37410804629325867,0.4083656668663025,-0.5017658472061157,-9.982992172241211
1745671862.3085928,0.03496647626161575,-0.019169945269823074,-0.3718631863594055,0.6834366917610168,-0.6597486734390259,-9.400232315063477
1745671862.310397,0.027321141213178635,-0.025605399161577225,-0.3699210584163666,0.5454627871513367,-0.757154107093811,-9.66080093383789
1745671862.3124123,0.04079453647136688,-0.01664823666214943,-0.3695548474788666,0.5575146675109863,-0.6087795495986938,-9.983640670776367
1745671862.3468003,0.01721878908574581,-0.016312915831804276,-0.37042754888534546,0.6332259178161621,-0.8738269805908203,-9.843469619750977
1745671862.3486576,0.016115108504891396,-0.016343168914318085,-0.3729625344276428,0.4394397735595703,-0.7423064112663269,-9.582048416137695
1745671862.350742,0.020158912986516953,-0.0220489501953125,-0.3715175986289978,0.6600791811943054,-0.7581521272659302,-9.66494369506836
1745671862.3522096,-0.0024956543929874897,0.00035779428435489535,-0.37482184171676636,0.4268081784248352,-0.6199246644973755,-9.867319107055664
1745671862.3549159,-0.000985454418696463,-0.0023124634753912687,-0.37580880522727966,0.6927787661552429,-0.7758949398994446,-9.541618347167969
1745671862.4025052,-0.01250087283551693,-0.00814382079988718,-0.37815985083580017,0.5509774088859558,-0.5326295495033264,-9.659663200378418
1745671862.4026723,0.00022680629626847804,0.00476836459711194,-0.37468641996383667,0.4698026776313782,-0.6788661479949951,-9.947373390197754
1745671862.4027758,-0.001234859460964799,-0.004242598079144955,-0.37772542238235474,0.5531236529350281,-0.7897146344184875,-9.790105819702148
1745671862.405017,0.0013476380845531821,0.0014045021962374449,-0.37674933671951294,0.45318517088890076,-0.53511643409729,-9.553028106689453
1745671862.434025,-0.007303869817405939,-0.0032040930818766356,-0.3780478835105896,0.6361039876937866,-0.8017427325248718,-9.668760299682617
1745671862.4368854,-0.01346578635275364,0.0022162427194416523,-0.3774576187133789,0.4822753965854645,-0.5911319255828857,-9.804566383361816
1745671862.438583,-0.014455157332122326,0.003787324531003833,-0.37842148542404175,0.699583888053894,-0.8702875971794128,-9.73781967163086
1745671862.442772,-0.021401766687631607,-0.006236468441784382,-0.3779096007347107,0.5673343539237976,-0.7718431949615479,-9.73499584197998
1745671862.4776814,-0.015999767929315567,0.005209374241530895,-0.3759619891643524,0.5843733549118042,-0.5670560598373413,-9.809435844421387
1745671862.4819262,-0.03057156130671501,-0.003782037179917097,-0.3782931864261627,0.5950483679771423,-0.7815869450569153,-9.7689847946167
1745671862.482914,-0.020794322714209557,0.006917094346135855,-0.37589210271835327,0.4431496560573578,-0.5045303106307983,-9.517647743225098
1745671862.4856088,-0.016975263133645058,-0.0029455150943249464,-0.3769010901451111,0.6543806791305542,-0.6548652648925781,-9.647002220153809
1745671862.4892337,-0.006380732171237469,-0.00036696725874207914,-0.37948089838027954,0.3855392336845398,-0.35287222266197205,-9.910347938537598
1745671862.5211308,-0.0038938478101044893,0.010918981395661831,-0.37984201312065125,0.6578813791275024,-0.6209862232208252,-9.71115493774414
1745671862.523746,-0.042290154844522476,-0.01531238667666912,-0.3728455901145935,0.7111933827400208,-0.6880607604980469,-9.94197940826416
1745671862.5272746,-0.04658195748925209,-0.010933132842183113,-0.374706894159317,0.5450884103775024,-0.5733473300933838,-10.106919288635254
1745671862.5275307,-0.04804784804582596,-0.0035065312404185534,-0.37275242805480957,0.6289759874343872,-0.681440532207489,-9.53126049041748
1745671862.565621,-0.058540016412734985,-0.02242955192923546,-0.37354379892349243,0.656139075756073,-0.8505345582962036,-9.473797798156738
1745671862.5679579,-0.04886869713664055,-0.013948557898402214,-0.3705883026123047,0.5237916111946106,-0.43024563789367676,-9.924958229064941
1745671862.569176,-0.06415747106075287,-0.015047977678477764,-0.3709041476249695,0.6138651967048645,-0.7427834272384644,-10.025014877319336
1745671862.5732665,-0.053664691746234894,-0.009211050346493721,-0.37055012583732605,0.4288051128387451,-0.39312657713890076,-9.461840629577637
1745671862.611357,-0.04872135445475578,-0.016587628051638603,-0.37200888991355896,0.6581071615219116,-0.5688605904579163,-9.464874267578125
1745671862.6130943,-0.04247627034783363,-0.023306500166654587,-0.3715382218360901,0.44526243209838867,-0.4206293523311615,-9.964869499206543
1745671862.613143,-0.036111824214458466,-0.00564360897988081,-0.37343987822532654,0.5808823108673096,-0.48329678177833557,-9.947301864624023
1745671862.6131837,-0.0502198152244091,-0.014999395236372948,-0.37232595682144165,0.6044981479644775,-0.714533269405365,-9.586967468261719
1745671862.613521,-0.04313090071082115,-0.018305107951164246,-0.372810035943985,0.5353028178215027,-0.5664095878601074,-9.570444107055664
1745671862.6511264,-0.04999370500445366,-0.020293110981583595,-0.370008647441864,0.725263237953186,-0.8199371099472046,-9.977609634399414
1745671862.6530793,-0.052146065980196,-0.016717927530407906,-0.3707972466945648,0.5104899406433105,-0.5434572100639343,-9.949542045593262
1745671862.6594145,-0.05661071091890335,-0.015937672927975655,-0.37103086709976196,0.7001763582229614,-0.6904162168502808,-9.539945602416992
1745671862.6951191,-0.07769832015037537,-0.02629671059548855,-0.3695369362831116,0.5372669100761414,-0.5364409685134888,-9.664388656616211
1745671862.6979735,-0.049661241471767426,-0.018444862216711044,-0.37087997794151306,0.5765063762664795,-0.525915265083313,-9.902462005615234
1745671862.70601,-0.06618770211935043,-0.021392179653048515,-0.37084001302719116,0.5645833611488342,-0.5987405776977539,-9.856576919555664
1745671862.706277,-0.0570962131023407,-0.01982131227850914,-0.372104674577713,0.48346710205078125,-0.42317184805870056,-9.57784652709961
1745671862.7092671,-0.060719579458236694,-0.02461307868361473,-0.36905473470687866,0.681115448474884,-0.6257294416427612,-9.725791931152344
1745671862.7350013,-0.05163867026567459,-0.024479230865836143,-0.3748861849308014,0.6487326622009277,-0.4204990267753601,-9.6196870803833
1745671862.736613,-0.05828922241926193,-0.031060796231031418,-0.37216711044311523,0.7495654821395874,-0.456623375415802,-9.945621490478516
1745671862.7403812,-0.05497128888964653,-0.016320252791047096,-0.37287840247154236,0.5165991187095642,-0.3941509425640106,-9.987531661987305
1745671862.7432816,-0.04890576750040054,-0.025251174345612526,-0.3718782067298889,0.7015171647071838,-0.5958684682846069,-9.634817123413086
1745671862.778853,-0.05590170621871948,-0.028747987002134323,-0.37182655930519104,0.489279568195343,-0.35924869775772095,-9.6287202835083
1745671862.7840822,-0.03970836475491524,-0.024182656779885292,-0.37262165546417236,0.6409302949905396,-0.5457083582878113,-9.933772087097168
1745671862.7877343,-0.05538057163357735,-0.024858983233571053,-0.3773835301399231,0.5663255453109741,-0.3435276448726654,-9.790793418884277
1745671862.7878199,-0.053977180272340775,-0.019830679520964622,-0.37627285718917847,0.5873985290527344,-0.46026158332824707,-9.571990013122559
1745671862.7878811,-0.06160912662744522,-0.03033040091395378,-0.37616273760795593,0.6535170674324036,-0.5991937518119812,-9.75934886932373
1745671862.8228018,-0.048111118376255035,-0.022569671273231506,-0.3734307885169983,0.3364776074886322,-0.3951930105686188,-10.008596420288086
1745671862.8254306,-0.05086107179522514,-0.01985921338200569,-0.37128373980522156,0.383968323469162,-0.6815130114555359,-9.7894868850708
1745671862.827321,-0.05245096608996391,-0.03237330541014671,-0.36582648754119873,0.3134508728981018,-0.5311199426651001,-9.450532913208008
1745671862.828375,-0.06568970531225204,-0.025876834988594055,-0.3600451946258545,0.25029614567756653,-0.5005679726600647,-9.835949897766113
1745671862.8638222,-0.0667802095413208,-0.026541104540228844,-0.3606184124946594,0.038306113332509995,-0.41391268372535706,-10.010841369628906
1745671862.8656943,-0.04763145372271538,-0.019672194495797157,-0.36294203996658325,0.2760166525840759,-0.1485019326210022,-9.549586296081543
1745671862.8685856,-0.07629577070474625,-0.03412918373942375,-0.36261647939682007,0.4810226857662201,-0.4092457890510559,-9.605728149414062
1745671862.8695793,-0.0011601170990616083,-0.04054253548383713,-0.3205128610134125,0.4554821848869324,-0.05567266419529915,-9.68099594116211
1745671862.8730109,0.009092708118259907,-0.025932123884558678,-0.3198213279247284,0.36629530787467957,-0.11403944343328476,-10.568733215332031
1745671862.9123068,0.03850160911679268,-0.01847689226269722,-0.3168119490146637,0.17701396346092224,-0.12422950565814972,-9.922917366027832
1745671862.9126596,0.04867253825068474,-0.029052233323454857,-0.3117913603782654,0.60026615858078,-0.39894720911979675,-8.974205017089844
1745671862.915616,0.03895179182291031,-0.03345196321606636,-0.3055580258369446,0.3090890049934387,-0.5164725184440613,-9.787408828735352
1745671862.9157083,0.049122653901576996,-0.021021772176027298,-0.29984626173973083,0.22832801938056946,-0.6429919004440308,-10.441388130187988
1745671862.953197,0.0189463309943676,-0.014076104387640953,-0.3019344210624695,0.0677904486656189,-0.39327555894851685,-9.642863273620605
1745671862.9542558,0.02256629429757595,-0.017121002078056335,-0.3073507249355316,0.32749849557876587,-0.41819262504577637,-8.997254371643066
1745671862.9557838,-0.003154576988890767,-0.03575477749109268,-0.31217867136001587,0.5658470392227173,-0.29158905148506165,-9.838006973266602
1745671862.9578018,-0.004997571464627981,-0.013729381375014782,-0.31631019711494446,0.3656335473060608,-0.3192603886127472,-10.679117202758789
1745671862.9956234,0.0017493057530373335,-0.009340666234493256,-0.3156077265739441,0.7698556184768677,-0.47436100244522095,-9.647624015808105
1745671862.997057,-0.0061598727479577065,-0.020521942526102066,-0.31168726086616516,0.5058140158653259,-0.4364739954471588,-9.144201278686523
1745671863.001518,0.017878709360957146,-0.02142481692135334,-0.3035852313041687,0.5807306170463562,-0.4440987706184387,-9.847901344299316
1745671863.006006,0.018202578648924828,-0.014257652685046196,-0.3001326620578766,0.3885718584060669,-0.15189087390899658,-10.417407989501953
1745671863.0064514,0.06595320999622345,0.0012985062785446644,-0.2979503571987152,0.2685104310512543,0.23566368222236633,-9.675568580627441
1745671863.0386865,0.06483779102563858,-0.01208329014480114,-0.30426424741744995,0.35862666368484497,0.15246693789958954,-9.225245475769043
1745671863.0398536,0.09999378025531769,-0.020138127729296684,-0.3108815550804138,0.19268003106117249,0.2431587427854538,-9.958050727844238
1745671863.0414517,0.10413610935211182,-0.004330948926508427,-0.3173774778842926,0.5060684084892273,-0.2530047595500946,-10.203106880187988
1745671863.0438561,0.08857475221157074,0.0005499530816450715,-0.31923896074295044,0.3932773470878601,-0.5177251100540161,-9.713521957397461
1745671863.081059,0.08425243198871613,-0.012607078067958355,-0.3146832287311554,0.6855026483535767,-0.8012182116508484,-9.287388801574707
1745671863.0843759,0.04843902960419655,-0.011703125201165676,-0.3085838854312897,0.6218729019165039,-0.9087918400764465,-9.957371711730957
1745671863.0868232,0.09587333351373672,0.005186785012483597,-0.3126235902309418,0.6650916337966919,-0.366158664226532,-9.671208381652832
1745671863.092424,0.09491937607526779,-0.0036172885447740555,-0.31256794929504395,0.8128148317337036,-0.5166696310043335,-9.655888557434082
1745671863.1223354,0.0801125317811966,-0.0004225093871355057,-0.31432822346687317,0.36846303939819336,-0.3656432330608368,-10.06613826751709
1745671863.1252615,0.10385020077228546,0.00945429690182209,-0.31398674845695496,0.31432220339775085,-0.4223225712776184,-9.851956367492676
1745671863.1255655,0.08309998363256454,-0.0019407523795962334,-0.3175314962863922,0.3587528467178345,-0.28763347864151,-9.372096061706543
1745671863.129807,0.10548476874828339,0.006378511432558298,-0.3175920844078064,0.377206414937973,-0.2751963138580322,-9.65079116821289
1745671863.1300952,0.08974505960941315,-0.0011392626911401749,-0.3209865093231201,0.4418908655643463,-0.4041875898838043,-10.172179222106934
1745671863.169334,0.12097907066345215,0.008964156731963158,-0.32027795910835266,0.461803674697876,-0.4013163149356842,-9.885053634643555
1745671863.1732562,0.10320861637592316,0.01167535874992609,-0.31830114126205444,0.6315120458602905,-0.6393449902534485,-9.4285888671875
1745671863.1767979,0.08815093338489532,-0.0020670141093432903,-0.3166756331920624,0.46008747816085815,-0.8570996522903442,-9.73642349243164
1745671863.178526,0.11127319186925888,0.00613062921911478,-0.3158929944038391,0.642255425453186,-0.49999386072158813,-9.898782730102539
1745671863.2091677,0.06182615086436272,0.012839172966778278,-0.3161028325557709,0.4169444441795349,-0.536885678768158,-9.960800170898438
1745671863.210964,0.10404331982135773,0.011170189827680588,-0.3181154131889343,0.48983097076416016,-0.2303420603275299,-9.47210693359375
1745671863.2134397,0.07014049589633942,-0.0011695255525410175,-0.3234003782272339,0.5386339426040649,-0.23876598477363586,-9.667695999145508
1745671863.214968,0.09546062350273132,0.009480597451329231,-0.3272911608219147,0.36379528045654297,-0.3261575996875763,-10.207067489624023
1745671863.2178721,0.08433333784341812,-0.011559529229998589,-0.296652227640152,0.5242869257926941,-0.5818777084350586,-9.746484756469727
1745671863.254417,0.10131567716598511,-0.004349405877292156,-0.294521689414978,0.43262118101119995,-0.4803916811943054,-9.65553092956543
1745671863.257557,0.09246622025966644,-0.010846031829714775,-0.29114389419555664,0.6328023076057434,-0.7975843548774719,-9.775693893432617
1745671863.2596843,0.09444412589073181,-0.009581608697772026,-0.2902604937553406,0.42901474237442017,-0.6826408505439758,-9.890937805175781
1745671863.263829,0.08366628736257553,-0.0044424994848668575,-0.2900577187538147,0.6090361475944519,-0.6590562462806702,-9.712034225463867
1745671863.295772,0.07008866220712662,-0.014768448658287525,-0.2904350757598877,0.42107710242271423,-0.6898269653320312,-9.691488265991211
1745671863.2972634,0.08607007563114166,-0.007212886121124029,-0.29302406311035156,0.4359976351261139,-0.4844764769077301,-9.695899963378906
1745671863.3017228,0.052911143749952316,-0.010134140029549599,-0.2946474254131317,0.48512428998947144,-0.7439664602279663,-9.824426651000977
1745671863.307285,0.06637562811374664,-0.008223707787692547,-0.29595357179641724,0.36874622106552124,-0.5514461398124695,-9.771273612976074
1745671863.3379734,0.06235325336456299,-0.009635071270167828,-0.29390501976013184,0.5371338129043579,-0.7721935510635376,-9.700910568237305
1745671863.3408606,0.06979959458112717,-0.008182312361896038,-0.29302138090133667,0.35273200273513794,-0.4908103048801422,-9.671313285827637
1745671863.3418012,0.07142694294452667,-0.008027736097574234,-0.28919047117233276,0.5383203029632568,-0.7367730140686035,-9.709613800048828
1745671863.3432453,0.07014888525009155,-0.012860464863479137,-0.2874928414821625,0.4581265449523926,-0.5465038418769836,-9.75364875793457
1745671863.3437111,0.0822596475481987,-0.0031916156876832247,-0.28712910413742065,0.4764498174190521,-0.47706690430641174,-9.888138771057129
1745671863.3857064,0.08055908977985382,-0.010167090222239494,-0.28992295265197754,0.452332079410553,-0.5775471925735474,-9.832635879516602
1745671863.3910384,0.08063562214374542,-0.008343307301402092,-0.28885045647621155,0.36931300163269043,-0.5247581601142883,-9.573648452758789
1745671863.392612,0.07378214597702026,-0.014031022787094116,-0.2881406843662262,0.5175251364707947,-0.888774573802948,-9.641100883483887
1745671863.3967001,0.06059421971440315,-0.0088896993547678,-0.2863917052745819,0.17024686932563782,-0.7130817174911499,-9.97209644317627
1745671863.4254043,0.06571249663829803,-0.011817325837910175,-0.28183215856552124,0.4787338674068451,-0.8745870590209961,-9.678955078125
1745671863.427723,0.03267073631286621,-0.011752313002943993,-0.2786639332771301,0.14574173092842102,-0.8059651255607605,-9.69267463684082
1745671863.4315338,0.0505954846739769,-0.014843168668448925,-0.27570971846580505,0.25202512741088867,-0.7150365710258484,-9.707304000854492
1745671863.4366393,0.020843004807829857,-0.019386064261198044,-0.26364532113075256,0.24656569957733154,-0.575544536113739,-9.827880859375
1745671863.4667819,0.0363348126411438,-0.024661710485816002,-0.2603927254676819,0.4225471019744873,-0.8677504658699036,-9.78339958190918
1745671863.4710803,0.015630215406417847,-0.020867114886641502,-0.25806376338005066,0.10793051868677139,-0.5674594640731812,-9.758234977722168
1745671863.472381,0.017978858202695847,-0.023380499333143234,-0.2543090879917145,0.4173663258552551,-0.9173732995986938,-9.698902130126953
1745671863.4754055,0.013037694618105888,-0.02593984641134739,-0.25461357831954956,0.28546279668807983,-0.6268428564071655,-9.72348690032959
1745671863.4770203,0.01074290182441473,-0.01833263412117958,-0.2511204779148102,0.30766597390174866,-0.7884666919708252,-9.772768020629883
1745671863.5196803,0.00825655646622181,-0.028116246685385704,-0.2500990033149719,0.42852091789245605,-0.6313201785087585,-9.74364185333252
1745671863.5197477,0.0014259321615099907,-0.017495086416602135,-0.2507098317146301,0.20273904502391815,-0.6458013653755188,-9.885688781738281
1745671863.5200841,0.011218137107789516,-0.025709131732583046,-0.2468365728855133,0.5493341684341431,-0.8504769206047058,-9.714163780212402
1745671863.5241275,-0.008346657268702984,-0.02147098444402218,-0.2496141493320465,0.2394367754459381,-0.44205743074417114,-9.733792304992676
1745671863.5525959,-0.0007757723215036094,-0.02243543043732643,-0.24809899926185608,0.49991893768310547,-0.9150277376174927,-9.802133560180664
1745671863.5556448,-0.0005919024115428329,-0.022962460294365883,-0.2464364767074585,0.3684760630130768,-0.48208388686180115,-9.702463150024414
1745671863.5590992,-0.010077482089400291,-0.021674923598766327,-0.24878354370594025,0.4138098359107971,-0.69243985414505,-9.819599151611328
1745671863.5627964,0.0020375042222440243,-0.02587127685546875,-0.24733345210552216,0.4797747731208801,-0.6547750234603882,-9.78979778289795
1745671863.5666053,-0.008315061219036579,-0.01837902143597603,-0.24612243473529816,0.250528484582901,-0.5502007603645325,-9.768993377685547
1745671863.5973608,-0.04738397151231766,-0.010209707543253899,-0.21380455791950226,0.1945635974407196,-0.4785453677177429,-9.811994552612305
1745671863.6017277,-0.049787282943725586,-0.009246023371815681,-0.21067634224891663,0.49013805389404297,-0.7006022930145264,-9.776357650756836
1745671863.617303,-0.04616028070449829,-0.013439511880278587,-0.20925763249397278,0.3044087588787079,-0.45695629715919495,-9.779234886169434
1745671863.6173923,-0.05425218865275383,-0.006365418434143066,-0.2099907100200653,0.26834869384765625,-0.5258034467697144,-9.862395286560059
1745671863.640609,-0.04183029383420944,-0.020393006503582,-0.21012821793556213,0.4700043797492981,-0.6362554430961609,-9.671724319458008
1745671863.6446025,-0.056348443031311035,-0.004007082432508469,-0.20775346457958221,0.1942877471446991,-0.3772470951080322,-9.819086074829102
1745671863.6487205,-0.0372079499065876,-0.012698623351752758,-0.20899884402751923,0.49864983558654785,-0.7881690859794617,-9.75462532043457
1745671863.6520581,-0.04449239373207092,-0.014033940620720387,-0.2089192122220993,0.3052228093147278,-0.3731057643890381,-9.73660945892334
1745671863.6873114,-0.04699454829096794,-0.007090982981026173,-0.20581459999084473,0.4384327828884125,-0.7860199809074402,-9.928445816040039
1745671863.690497,-0.042634379118680954,-0.011278687044978142,-0.2074674665927887,0.308782160282135,-0.477647602558136,-9.689251899719238
1745671863.6907048,-0.05098975822329521,-0.008915337733924389,-0.20534464716911316,0.3755737245082855,-0.6317950487136841,-9.662549018859863
1745671863.6929772,-0.04624401405453682,-0.013864484615623951,-0.20529882609844208,0.5038661956787109,-0.6261419057846069,-9.817112922668457
1745671863.7257166,-0.06141672283411026,-0.004537367261946201,-0.2095760554075241,0.22572946548461914,-0.3555186092853546,-9.974437713623047
1745671863.7295518,-0.04830171540379524,-0.01257115788757801,-0.20816557109355927,0.49727001786231995,-0.7185114026069641,-9.676908493041992
1745671863.7300398,-0.05197488144040108,-0.010271430015563965,-0.2080554962158203,0.24067440629005432,-0.2587948143482208,-9.495166778564453
1745671863.7334547,-0.04909087345004082,-0.007904071360826492,-0.2101277858018875,0.43538182973861694,-0.6501054763793945,-9.814618110656738
1745671863.7361398,-0.04771590605378151,-0.01152280904352665,-0.20834043622016907,0.3345232903957367,-0.3363628089427948,-9.922151565551758
1745671863.7786598,-0.042327381670475006,-0.0024662544019520283,-0.20753434300422668,0.3187794089317322,-0.44708508253097534,-9.753134727478027
1745671863.7787542,-0.0294189415872097,-0.009764409624040127,-0.2073289155960083,0.43225494027137756,-0.509229302406311,-9.622873306274414
1745671863.780844,-0.03304444998502731,-0.011641761288046837,-0.20752699673175812,0.20074498653411865,-0.35050052404403687,-9.785567283630371
1745671863.7849126,-0.022313794121146202,-0.00754436245188117,-0.20689141750335693,0.4310491681098938,-0.6315584182739258,-9.859628677368164
1745671863.811928,-0.03685843199491501,-0.004613383673131466,-0.207401841878891,0.2373901903629303,-0.42311519384384155,-9.738168716430664
1745671863.8151896,-0.06139897555112839,-0.008952937088906765,-0.19830577075481415,0.1313752830028534,-0.32242846488952637,-9.836843490600586
1745671863.8162754,-0.04754124954342842,-0.01054510660469532,-0.19681063294410706,0.3594595789909363,-0.45410603284835815,-9.713178634643555
1745671863.8187332,-0.053842682391405106,-0.01788979396224022,-0.19477877020835876,0.32266494631767273,-0.36432182788848877,-9.747400283813477
1745671863.8221693,-0.04272447153925896,-0.01388897281140089,-0.19335640966892242,0.19655130803585052,-0.3945755660533905,-9.94240951538086
1745671863.854364,-0.030327681452035904,-0.017673885449767113,-0.1901838183403015,0.3603299558162689,-0.534279465675354,-9.742441177368164
1745671863.8568172,-0.038421425968408585,-0.012913969345390797,-0.1898144781589508,0.15743841230869293,-0.17560012638568878,-9.579463005065918
1745671863.8590977,-0.03253784030675888,-0.01871788688004017,-0.18683068454265594,0.41739434003829956,-0.6640188097953796,-9.7246732711792
1745671863.8605957,-0.03288180008530617,-0.01564386859536171,-0.18782517313957214,0.15806905925273895,-0.16592280566692352,-9.83051872253418
1745671863.898287,-0.03586859628558159,-0.014387661591172218,-0.18883386254310608,0.28215712308883667,-0.6736988425254822,-9.857033729553223
1745671863.9056122,-0.031195789575576782,-0.020711636170744896,-0.18780305981636047,0.2924114167690277,-0.3667985796928406,-9.611532211303711
1745671863.9086006,-0.05271544307470322,-0.014059452340006828,-0.18883684277534485,0.23831944167613983,-0.6048177480697632,-9.797094345092773
1745671863.915066,-0.04528699442744255,-0.02220761962234974,-0.18481630086898804,0.36885160207748413,-0.7193921804428101,-9.87747573852539
1745671863.919798,-0.06031475216150284,-0.013735489919781685,-0.18256939947605133,0.1978401094675064,-0.4182823598384857,-9.737722396850586
1745671863.9434905,-0.05736760050058365,-0.018209349364042282,-0.17909535765647888,0.41758280992507935,-0.7391414642333984,-9.681513786315918
1745671863.9472191,-0.033896710723638535,-0.001755199977196753,-0.16535718739032745,0.3237411081790924,-0.46402016282081604,-9.754443168640137
1745671863.9495394,-0.027798891067504883,-0.01249072514474392,-0.16302508115768433,0.3398735225200653,-0.5457487106323242,-9.627967834472656
1745671863.984111,-0.033300772309303284,-0.0063371420837938786,-0.15933844447135925,0.272575318813324,-0.25916361808776855,-9.81637191772461
1745671863.9859009,-0.03927066922187805,-0.009171051904559135,-0.1600823551416397,0.3659146726131439,-0.5862480401992798,-10.001225471496582
1745671863.9888263,-0.028673822060227394,-0.003782427404075861,-0.15697143971920013,0.18922211229801178,-0.08166848123073578,-9.680559158325195
1745671863.9906745,-0.03362395986914635,-0.010236733593046665,-0.1562812775373459,0.4012758135795593,-0.4184790253639221,-9.624014854431152
1745671863.992761,-0.029470693320035934,-0.011642547324299812,-0.15869155526161194,0.21226997673511505,-0.12236392498016357,-9.877449989318848
1745671864.0292163,-0.02003983035683632,-0.004128132946789265,-0.15712252259254456,0.3250766694545746,-0.28259891271591187,-9.871734619140625
1745671864.0371947,-0.02582818642258644,-0.00890264194458723,-0.15814051032066345,0.31148678064346313,-0.27104657888412476,-9.682984352111816
1745671864.0373175,-0.019035037606954575,-0.004854139406234026,-0.15664729475975037,0.3195134997367859,-0.21706914901733398,-9.618083000183105
1745671864.0373595,-0.029265567660331726,-0.01187740545719862,-0.15620321035385132,0.4164816439151764,-0.5241820216178894,-9.975140571594238
1745671864.068614,-0.013884742744266987,-0.0045883310958743095,-0.15649543702602386,0.20963887870311737,-0.20076985657215118,-9.89538860321045
1745671864.074074,-0.024464504793286324,-0.008817705325782299,-0.15570655465126038,0.46566930413246155,-0.3863184154033661,-9.633156776428223
1745671864.0780668,-0.01877010241150856,-0.010715280659496784,-0.1539193093776703,0.29740673303604126,-0.1826862096786499,-9.645177841186523
1745671864.0823007,-0.018507549539208412,-0.005622862838208675,-0.1566707193851471,0.364061564207077,-0.28996095061302185,-9.868183135986328
1745671864.085712,-0.01527936290949583,-0.008220139890909195,-0.15621896088123322,0.2918122112751007,-0.3460795283317566,-9.853461265563965
1745671864.1132987,-0.012402920983731747,-0.0002820837253239006,-0.15829600393772125,0.2116684466600418,-0.17804725468158722,-9.69527816772461
1745671864.1169689,-0.013383731245994568,-0.013785679824650288,-0.1562831848859787,0.37256231904029846,-0.525168776512146,-9.728257179260254
1745671864.1212626,-0.01354348473250866,-0.002982382196933031,-0.1583746373653412,0.21473360061645508,-0.16917477548122406,-9.813624382019043
1745671864.124769,-0.01776120439171791,-0.004479683004319668,-0.15617193281650543,0.5078189969062805,-0.5595948696136475,-9.8142728805542
1745671864.155699,-0.01726391911506653,-0.007123269140720367,-0.15565888583660126,0.26266518235206604,-0.2284558266401291,-9.683134078979492
1745671864.1591167,0.003233569208532572,-0.004852202720940113,-0.1585807204246521,0.4299647808074951,-0.29367300868034363,-9.620796203613281
1745671864.1602602,-0.010520530864596367,-0.0031928587704896927,-0.15736441314220428,0.33242279291152954,-0.34340035915374756,-9.801141738891602
1745671864.1612976,0.003789507318288088,-0.0012061686720699072,-0.15843303501605988,0.2516555190086365,-0.19511863589286804,-9.874345779418945
1745671864.2006397,-0.007869599387049675,-0.01111780945211649,-0.15837053954601288,0.44099730253219604,-0.47242894768714905,-9.756324768066406
1745671864.2039025,0.004477664362639189,-0.0013906477252021432,-0.15879487991333008,0.20394162833690643,-0.19325779378414154,-9.73224925994873
1745671864.2066333,-0.009206893853843212,-0.004636246711015701,-0.15722858905792236,0.33459585905075073,-0.5607188940048218,-9.761955261230469
1745671864.211888,-0.0071159666404128075,-0.009199823252856731,-0.15736213326454163,0.26717227697372437,-0.3082846701145172,-9.62739086151123
1745671864.242607,-0.025752466171979904,-0.0021045119501650333,-0.15422219038009644,0.28775131702423096,-0.4618597626686096,-9.789449691772461
1745671864.2458994,-0.020063402131199837,-0.0071409717202186584,-0.15240658819675446,0.19993856549263,-0.42246904969215393,-9.854681015014648
1745671864.2481506,-0.014206552878022194,-0.0005933150532655418,-0.1508326381444931,0.34422022104263306,-0.110309898853302,-9.610776901245117
1745671864.2537732,-0.031524401158094406,-0.009305538609623909,-0.15313751995563507,0.3653889000415802,-0.4161036014556885,-9.865521430969238
1745671864.254959,-0.006836467422544956,-0.007776092737913132,-0.15107125043869019,0.19926774501800537,-0.08342249691486359,-9.885212898254395
1745671864.2860851,-0.017878752201795578,-0.006567702628672123,-0.1498773843050003,0.4051212668418884,-0.3548998534679413,-9.735040664672852
1745671864.2895534,-0.013553192839026451,-0.004866148345172405,-0.14678756892681122,0.17175224423408508,-0.2742752730846405,-9.621429443359375
1745671864.293684,0.0024057955015450716,-0.00947475153952837,-0.14676867425441742,0.3762945532798767,-0.18998102843761444,-9.691163063049316
1745671864.2967014,0.0029770745895802975,-0.0021074980031698942,-0.13736601173877716,0.39788755774497986,-0.2648192048072815,-9.70008373260498
1745671864.3286188,-0.012640202417969704,-0.006950832903385162,-0.13954344391822815,0.2656542658805847,-0.17801709473133087,-9.914711952209473
1745671864.3309333,0.013800814747810364,-0.0019335963297635317,-0.13889065384864807,0.28496983647346497,-0.2376849204301834,-9.899147033691406
1745671864.332169,-0.011395249515771866,-0.006344120018184185,-0.1385001242160797,0.33997592329978943,-0.2352912724018097,-9.678544998168945
1745671864.3337097,0.0007590699824504554,-0.009221442975103855,-0.13904771208763123,0.24554327130317688,-0.31258606910705566,-9.742921829223633
1745671864.3360991,0.0031884685158729553,-0.005650014616549015,-0.13714103400707245,0.46683749556541443,-0.28448233008384705,-9.811697006225586
1745671864.3707016,-0.014339124783873558,-0.00010057594772661105,-0.13810241222381592,0.16539475321769714,-0.252296507358551,-9.964151382446289
1745671864.3741314,0.01000420842319727,-0.007938164286315441,-0.13705039024353027,0.3988773226737976,-0.26960504055023193,-9.634635925292969
1745671864.3799074,-0.011567370034754276,-0.010422500781714916,-0.1381075084209442,0.3062824606895447,-0.21175280213356018,-9.71723747253418
1745671864.3803422,0.004104619845747948,0.004272312857210636,-0.13924825191497803,0.29446935653686523,-0.2575252950191498,-9.952856063842773
1745671864.4202573,-0.0051736473105847836,-0.012004458345472813,-0.13808229565620422,0.33334028720855713,-0.33991965651512146,-9.839818954467773
1745671864.4203463,-0.0027506297919899225,-0.0011278002057224512,-0.13761278986930847,0.30220335721969604,-0.14936330914497375,-9.677857398986816
1745671864.4203956,-0.009138727560639381,-0.00464936438947916,-0.13761571049690247,0.3790321946144104,-0.4297807812690735,-9.864764213562012
1745671864.4217272,0.004903965629637241,-0.004370447248220444,-0.13753147423267365,0.21332292258739471,-0.12474316358566284,-9.773632049560547
1745671864.4217653,-0.003975717816501856,0.0007970123551785946,-0.13903790712356567,0.42285871505737305,-0.17575432360172272,-9.707818984985352
1745671864.459067,-0.003343571675941348,-0.004424777813255787,-0.13850924372673035,0.29040127992630005,-0.2675909399986267,-9.79248046875
1745671864.4621766,0.00819351151585579,0.0012229172280058265,-0.13868720829486847,0.25952643156051636,-0.05532970279455185,-9.872625350952148
1745671864.4664028,-0.005395860411226749,-0.006790978368371725,-0.1376061737537384,0.37443217635154724,-0.41128453612327576,-9.876497268676758
1745671864.4688451,0.015323659405112267,0.002124933060258627,-0.14030292630195618,0.20208652317523956,-0.055908381938934326,-9.77142333984375
1745671864.5098047,0.0009916794952005148,-0.0014579750131815672,-0.13821867108345032,0.410757839679718,-0.364021360874176,-9.746763229370117
1745671864.5100958,0.011931953020393848,-0.003120076609775424,-0.14026078581809998,0.22618122398853302,-0.08228939026594162,-9.746827125549316
1745671864.5101407,0.0020847420673817396,-0.006397780030965805,-0.13820192217826843,0.25990596413612366,-0.1941886842250824,-9.962295532226562
1745671864.5127695,0.005601639859378338,0.005785387475043535,-0.13797540962696075,0.2931637167930603,-0.21997317671775818,-9.836136817932129
1745671864.5461407,0.011181597597897053,-0.0017466319259256124,-0.13683447241783142,0.3453584313392639,-0.3099045753479004,-9.577589988708496
1745671864.5518444,0.005967521108686924,0.0024023731239140034,-0.13719575107097626,0.25525274872779846,-0.05336570739746094,-9.64875316619873
1745671864.5545318,0.007918639108538628,-0.002393096685409546,-0.13578686118125916,0.42450475692749023,-0.3990912437438965,-10.006692886352539
1745671864.5566607,0.012668715789914131,0.00401499355211854,-0.13940981030464172,0.16810548305511475,0.02619633637368679,-9.926865577697754
1745671864.5863492,0.019051246345043182,0.004945158958435059,-0.1386549174785614,0.40097886323928833,-0.34399691224098206,-9.677227973937988
1745671864.5907943,0.018130851909518242,-0.006747489329427481,-0.13823197782039642,0.29293155670166016,-0.09538451582193375,-9.625515937805176
1745671864.6022937,0.01721360720694065,0.003088712692260742,-0.13708123564720154,0.3208787441253662,-0.32436034083366394,-9.934881210327148
1745671864.602496,0.015056240372359753,0.0007469780975952744,-0.13899359107017517,0.3700171113014221,-0.2407953292131424,-9.790013313293457
1745671864.6025538,0.012622499838471413,0.006733500864356756,-0.13741347193717957,0.2101881206035614,-0.2739418148994446,-9.660268783569336
1745671864.6301322,0.018142078071832657,-0.0031243343837559223,-0.1380477249622345,0.4798182547092438,-0.35156816244125366,-9.706048965454102
1745671864.633782,0.0029569468460977077,-0.0012050183722749352,-0.13680008053779602,0.19672377407550812,-0.19666633009910583,-10.041511535644531
1745671864.6381993,0.020774811506271362,0.002844239119440317,-0.13522431254386902,0.4243006110191345,-0.40174418687820435,-9.914746284484863
1745671864.642369,0.004154854454100132,-0.0021419005934149027,-0.1368750035762787,0.26066893339157104,-0.11897071450948715,-9.562500953674316
1745671864.674005,0.03577674925327301,-0.004566533025354147,-0.1210273876786232,0.2684313654899597,-0.15039542317390442,-9.60100269317627
1745671864.685611,0.02646479569375515,0.0022480094339698553,-0.12042909860610962,0.39295482635498047,-0.18308500945568085,-9.633073806762695
1745671864.6878614,0.024272726848721504,-0.003384161042049527,-0.12186990678310394,0.3003825545310974,-0.44511717557907104,-10.006869316101074
1745671864.6918552,0.03928796947002411,0.004574399907141924,-0.12143043428659439,0.2957381010055542,-0.12365082651376724,-9.772687911987305
1745671864.6963038,0.017439844086766243,-0.004487370606511831,-0.12241311371326447,0.4293878972530365,-0.3854207992553711,-9.690519332885742
1745671864.7167218,0.03126875311136246,-0.0022448815871030092,-0.11888891458511353,0.205399751663208,-0.3058677315711975,-9.769678115844727
1745671864.720102,0.027205834165215492,0.004633793607354164,-0.12111453711986542,0.4571288526058197,-0.22037144005298615,-9.693203926086426
1745671864.7241583,0.0074936700984835625,-0.0024388169404119253,-0.11914117634296417,0.20009258389472961,-0.460815966129303,-9.839311599731445
1745671864.728307,0.036418937146663666,0.0027076476253569126,-0.11773805320262909,0.3460128903388977,-0.18663713335990906,-9.680582046508789
1745671864.756931,0.005642069038003683,-0.0031102686189115047,-0.12059818208217621,0.3471933901309967,-0.24317066371440887,-9.82446575164795
1745671864.75934,0.034107085317373276,0.0032213814556598663,-0.11877000331878662,0.2201179563999176,-0.26765650510787964,-9.869115829467773
1745671864.768782,0.021114807575941086,-0.004407137632369995,-0.1187361478805542,0.47666388750076294,-0.2268163412809372,-9.656282424926758
1745671864.7702606,0.022482136264443398,-0.001634978107176721,-0.11883644014596939,0.2137305736541748,-0.2788568139076233,-9.812803268432617
1745671864.7727382,0.03590158373117447,-0.00012929504737257957,-0.11756513267755508,0.4100690484046936,-0.3189188241958618,-9.753950119018555
1745671864.8030417,0.015138134360313416,-0.00106353173032403,-0.1173568144440651,0.25833529233932495,-0.2736557722091675,-9.742619514465332
1745671864.8051963,0.03662247955799103,-0.0016187013825401664,-0.1165381520986557,0.4223892092704773,-0.2865203619003296,-9.732391357421875
1745671864.8080227,0.020069574937224388,-0.0031527418177574873,-0.1188063845038414,0.37166690826416016,-0.2622528672218323,-9.826667785644531
1745671864.8109963,0.030710512772202492,0.0024589095264673233,-0.12044048309326172,0.242604061961174,-0.20785453915596008,-9.829566955566406
1745671864.8451865,0.027142416685819626,-0.005164686590433121,-0.11726381629705429,0.49936527013778687,-0.326124906539917,-9.663373947143555
1745671864.849538,0.02360396459698677,-0.0010252536740154028,-0.119670569896698,0.2218298465013504,-0.2507638931274414,-9.841741561889648
1745671864.8537626,0.032384324818849564,-0.0024282606318593025,-0.11874985694885254,0.3646496832370758,-0.47002729773521423,-9.867063522338867
1745671864.8574018,0.027133312076330185,0.00040914962301030755,-0.11789850145578384,0.3036220669746399,-0.3274509310722351,-9.911748886108398
1745671864.896371,0.02200682833790779,-0.00785098411142826,-0.11652815341949463,0.4335770606994629,-0.33466291427612305,-9.662765502929688
1745671864.896414,0.02241579256951809,0.0012308048317208886,-0.11852006614208221,0.2649407982826233,-0.18990060687065125,-9.710887908935547
1745671864.8964627,0.024050038307905197,-0.007843174040317535,-0.11754734814167023,0.42720064520835876,-0.48489540815353394,-9.89135456085205
1745671864.9000294,0.021647218614816666,-0.00258231395855546,-0.11754894256591797,0.21523456275463104,-0.15355372428894043,-9.836265563964844
1745671864.9302564,0.024792946875095367,-0.004097786266356707,-0.11617716401815414,0.4253854751586914,-0.4759644865989685,-9.673795700073242
1745671864.9334922,0.01719624362885952,-0.007222338113933802,-0.11611633002758026,0.31240805983543396,-0.23646306991577148,-9.643280029296875
1745671864.9386687,0.02283310331404209,-0.006141445133835077,-0.11806663125753403,0.45101088285446167,-0.29999953508377075,-9.87142562866211
1745671864.941494,0.013607996515929699,-0.005778350867331028,-0.11984624713659286,0.38322117924690247,-0.253807932138443,-9.945987701416016
1745671864.9443278,0.01963997446000576,-0.0016616459470242262,-0.12134013324975967,0.31915774941444397,-0.3067200779914856,-9.752615928649902
1745671864.9765487,0.026392510160803795,-0.008346570655703545,-0.12196701765060425,0.5237347483634949,-0.441074937582016,-9.527074813842773
1745671864.9806852,0.012725417502224445,-0.009752917103469372,-0.11968874931335449,0.2716227173805237,-0.2655262053012848,-9.852605819702148
1745671864.9875798,0.027409028261899948,-0.0016473319847136736,-0.1192694753408432,0.4161907136440277,-0.3799087405204773,-9.920099258422852
1745671864.993276,0.00359939644113183,-0.002627042355015874,-0.12375648319721222,0.2761368155479431,-0.2800098955631256,-9.649221420288086
1745671865.0170822,0.03181267902255058,-0.0030163205228745937,-0.12146584689617157,0.40463948249816895,-0.34704557061195374,-9.56308364868164
1745671865.0199814,-0.014534950256347656,-0.011622339487075806,-0.13288971781730652,0.28682032227516174,-0.35490748286247253,-9.967948913574219
1745671865.0230453,0.0022716037929058075,-0.007045093923807144,-0.13363876938819885,0.3275941014289856,-0.2315061092376709,-9.748723983764648
1745671865.0260644,-0.013588005676865578,-0.012248152866959572,-0.1331508606672287,0.4382879137992859,-0.4125964641571045,-9.625892639160156
1745671865.0306888,-0.004837645683437586,-0.012532609514892101,-0.1348402202129364,0.28838759660720825,-0.19021430611610413,-9.803567886352539
1745671865.061193,-0.011149559170007706,-0.011330723762512207,-0.1354297697544098,0.4279242157936096,-0.48214125633239746,-9.953145027160645
1745671865.0660143,-0.011107049882411957,-0.010282988660037518,-0.13526204228401184,0.17898094654083252,-0.20337006449699402,-9.801596641540527
1745671865.0688148,0.005218186881393194,-0.00766844442114234,-0.1337105929851532,0.4798552393913269,-0.3397819399833679,-9.585965156555176
1745671865.0722086,-0.010041902773082256,-0.015055646188557148,-0.13672146201133728,0.3164805769920349,-0.10532703250646591,-9.740682601928711
1745671865.1050375,0.010048849508166313,-0.007505722343921661,-0.13876743614673615,0.408475786447525,-0.29619067907333374,-9.882438659667969
1745671865.10804,0.0010137215722352266,-0.009893032722175121,-0.1379404515028,0.4184854030609131,-0.2353498637676239,-9.800806045532227
1745671865.1110241,0.0036807493306696415,-0.007632444147020578,-0.14100000262260437,0.24655663967132568,-0.3667796850204468,-9.75
1745671865.1147363,0.013731604442000389,-0.010090017691254616,-0.13910514116287231,0.4911406636238098,-0.3932464122772217,-9.676498413085938
1745671865.1189342,-0.018422940745949745,-0.009630430489778519,-0.13960346579551697,0.27714452147483826,-0.3843725323677063,-9.978845596313477
1745671865.148331,0.013796585611999035,-0.009022179059684277,-0.1391594260931015,0.46903887391090393,-0.4608588218688965,-9.850237846374512
1745671865.151093,-0.02213197946548462,-0.01089470274746418,-0.14047078788280487,0.32923296093940735,-0.2400914430618286,-9.668496131896973
1745671865.1529448,0.0029466026462614536,-0.007300783880054951,-0.14151912927627563,0.3372703194618225,-0.4347735345363617,-9.708292961120605
1745671865.1547198,-0.014937266707420349,-0.014612505212426186,-0.14407411217689514,0.4503989815711975,-0.25289878249168396,-9.780230522155762
1745671865.190519,-0.012429439462721348,-0.004877134691923857,-0.14400705695152283,0.280992329120636,-0.3693689703941345,-9.969205856323242
1745671865.1949115,-0.005806273315101862,-0.011370683088898659,-0.14434972405433655,0.4538995623588562,-0.2823793888092041,-9.78108024597168
1745671865.198975,-0.01865185797214508,-0.010302622802555561,-0.14500361680984497,0.2713124752044678,-0.2981264889240265,-9.735818862915039
1745671865.203295,0.008480118587613106,-0.008963565342128277,-0.14434903860092163,0.45402050018310547,-0.2222389429807663,-9.657964706420898
1745671865.234522,-0.012972216121852398,-0.010060462169349194,-0.1507527083158493,0.3505637049674988,-0.5120320320129395,-9.968103408813477
1745671865.2356405,0.0028547358233481646,-0.002516314387321472,-0.14918923377990723,0.19181892275810242,-0.13733693957328796,-9.612873077392578
1745671865.2376366,-0.016596894711256027,-0.010403338819742203,-0.14926651120185852,0.45779532194137573,-0.483043909072876,-9.624656677246094
1745671865.2407267,-0.006410922855138779,-0.012252150103449821,-0.1506327986717224,0.2121211290359497,-0.19106407463550568,-9.902334213256836
1745671865.2749748,-0.011006525717675686,-0.006108797620981932,-0.1509360373020172,0.4005146920681,-0.2966609299182892,-9.971263885498047
1745671865.2791529,-0.008250003680586815,-0.008422278799116611,-0.15291805565357208,0.2720973491668701,-0.303032785654068,-9.692621231079102
1745671865.281321,-0.0009099055896513164,-0.007923148572444916,-0.1554192453622818,0.29081153869628906,-0.14939597249031067,-9.545280456542969
1745671865.2832701,-0.016775641590356827,-0.00941445492208004,-0.15348438918590546,0.47557568550109863,-0.5156061053276062,-9.796497344970703
1745671865.283745,-0.012756405398249626,-0.002597587648779154,-0.15381310880184174,0.3219379782676697,-0.13733328878879547,-9.922922134399414
1745671865.318034,-0.009612356312572956,-0.004556628409773111,-0.15107743442058563,0.5492749214172363,-0.4407685697078705,-9.830880165100098
1745671865.3198812,-0.004091349430382252,-0.004382658284157515,-0.15183749794960022,0.36788514256477356,-0.021827073767781258,-9.662585258483887
1745671865.32189,0.004368845839053392,-0.005099869333207607,-0.15289188921451569,0.6063629984855652,-0.25263407826423645,-9.832908630371094
1745671865.3245726,0.013266965746879578,-0.008541285060346127,-0.15636229515075684,0.4434645175933838,0.013892063871026039,-9.948478698730469
1745671865.3611295,0.008359597995877266,0.001456237630918622,-0.15756383538246155,0.272167444229126,-0.11409586668014526,-9.799331665039062
1745671865.3643174,0.02326328679919243,-0.009119106456637383,-0.1585199534893036,0.4201810359954834,-0.4008013606071472,-9.522100448608398
1745671865.3678482,0.018562044948339462,0.003155802609398961,-0.16193754971027374,0.239100381731987,-0.13119837641716003,-9.803971290588379
1745671865.3699183,0.013649890199303627,-0.004604619927704334,-0.1611877679824829,0.4146521985530853,-0.18226155638694763,-9.723150253295898
1745671865.405669,0.020687902346253395,0.0009457051637582481,-0.15943118929862976,0.19823181629180908,-0.23284225165843964,-9.87706184387207
1745671865.4070413,0.030937116593122482,0.0003233574389014393,-0.1566179394721985,0.45999306440353394,-0.3152347505092621,-9.746564865112305
1745671865.4090533,0.016153698787093163,-0.007556577678769827,-0.15612025558948517,0.3760835528373718,-0.2989034950733185,-9.699737548828125
1745671865.4109886,0.0340554341673851,0.0015429143095389009,-0.1551709771156311,0.36942511796951294,-0.3280957043170929,-9.802597045898438
1745671865.4134502,0.01980205811560154,-0.007194683887064457,-0.15234439074993134,0.2695985436439514,-0.3411750793457031,-9.791150093078613
1745671865.4505656,0.0283875223249197,-0.0004856230807490647,-0.15297003090381622,0.2576448619365692,-0.26155251264572144,-9.640620231628418
1745671865.451216,0.010223260149359703,-0.007780549116432667,-0.154110386967659,0.4092716574668884,-0.49966517090797424,-9.758563041687012
1745671865.4632683,0.016689250245690346,-0.003598348703235388,-0.1548355519771576,0.1421308070421219,-0.26888522505760193,-9.954450607299805
1745671865.4633503,0.007483736611902714,-0.004653801675885916,-0.1533631831407547,0.4321277141571045,-0.4881015419960022,-9.726365089416504
1745671865.490259,-0.0033231773413717747,-0.005036627408117056,-0.15076813101768494,0.3057346045970917,-0.40277838706970215,-9.629205703735352
1745671865.4916265,0.011704495176672935,-0.005265658721327782,-0.15072956681251526,0.439591646194458,-0.365069717168808,-9.6726713180542
1745671865.4939218,-0.011718181893229485,-0.0082442881539464,-0.1491711437702179,0.3560335338115692,-0.35007423162460327,-9.939906120300293
1745671865.4957504,0.010538071393966675,0.001117034233175218,-0.1497795432806015,0.3354969918727875,-0.16805267333984375,-9.73765754699707
1745671865.496517,-0.0013489568373188376,-0.009586296044290066,-0.1486721634864807,0.4274474084377289,-0.2401880919933319,-9.6408109664917
1745671865.5339065,0.013626870699226856,-0.0064211576245725155,-0.14941108226776123,0.2247626781463623,-0.1277497261762619,-9.918655395507812
1745671865.5360122,0.02562238648533821,-0.0070806159637868404,-0.1520029753446579,0.3779187798500061,-0.12186853587627411,-9.845322608947754
1745671865.5370893,0.015185944736003876,-0.009954768233001232,-0.15159012377262115,0.25756606459617615,-0.255641907453537,-9.65582275390625
1745671865.5391223,0.038020797073841095,-0.006074265111237764,-0.1498243808746338,0.38827818632125854,-0.1787547916173935,-9.57553482055664
1745671865.5764408,0.01029612123966217,-0.011726328171789646,-0.1520853489637375,0.33687934279441833,-0.5400208234786987,-9.894200325012207
1745671865.5783992,0.009558262303471565,-0.007854294031858444,-0.14981719851493835,0.2676860988140106,-0.1918840855360031,-9.690425872802734
1745671865.5824232,0.014870136976242065,-0.012904919683933258,-0.14678043127059937,0.46555957198143005,-0.28017324209213257,-9.743871688842773
1745671865.5825603,0.005734986625611782,-0.008348451927304268,-0.1488080769777298,0.31273195147514343,-0.2495604008436203,-9.798003196716309
1745671865.5834217,0.023838449269533157,-0.0028592334128916264,-0.14593788981437683,0.325995534658432,-0.14763350784778595,-9.713544845581055
1745671865.6300998,0.005791050381958485,-0.014252771623432636,-0.14961259067058563,0.3504760265350342,-0.38152143359184265,-9.798818588256836
1745671865.6303997,0.03671788424253464,-0.007799089886248112,-0.14897343516349792,0.34442177414894104,-0.15169356763362885,-9.789423942565918
1745671865.6304536,0.012659600004553795,-0.008007420226931572,-0.1525077074766159,0.35853829979896545,-0.4057081341743469,-9.870899200439453
1745671865.6305137,0.029657095670700073,-0.008287206292152405,-0.14945004880428314,0.2720944285392761,-0.23640522360801697,-9.604623794555664
1745671865.6643677,0.012633350677788258,-0.011942295357584953,-0.1512567102909088,0.48598212003707886,-0.472663938999176,-9.64439868927002
1745671865.6678576,0.014448772184550762,-0.008918562904000282,-0.1499038189649582,0.3280247449874878,-0.48234277963638306,-9.933990478515625
1745671865.6685243,0.018409626558423042,-0.0013348456704989076,-0.14871811866760254,0.40322551131248474,-0.31265467405319214,-9.819645881652832
1745671865.6718616,0.003502695355564356,-0.013442598283290863,-0.15032927691936493,0.3287731111049652,-0.5135672688484192,-9.68482780456543
1745671865.7053897,0.013588376343250275,-0.0034129121340811253,-0.14956362545490265,0.2985748052597046,-0.16181083023548126,-9.636889457702637
1745671865.711359,-4.3215790356043726e-05,-0.013542463071644306,-0.1489168107509613,0.41019877791404724,-0.5107415914535522,-9.8748140335083
1745671865.721211,0.011967077851295471,-0.0008997538825497031,-0.15120431780815125,0.25822991132736206,-0.1050385981798172,-9.852376937866211
1745671865.7213616,0.014699285849928856,-0.005835878662765026,-0.16079503297805786,0.40961378812789917,-0.430642694234848,-9.889702796936035
1745671865.7491353,0.027162695303559303,0.004072340205311775,-0.1620524376630783,0.28545063734054565,-0.23619596660137177,-9.846598625183105
1745671865.750841,0.01645122468471527,-0.0032878234051167965,-0.15902304649353027,0.4476795196533203,-0.5125679969787598,-9.71809196472168
1745671865.7534595,0.020649295300245285,-0.00388215109705925,-0.16223327815532684,0.262779176235199,-0.374738872051239,-9.745966911315918
1745671865.7545037,0.016411691904067993,0.002842476824298501,-0.1576019823551178,0.4003075957298279,-0.3721858859062195,-9.825721740722656
1745671865.75604,0.00660194456577301,-0.006279467139393091,-0.15839004516601562,0.32760515809059143,-0.5335825681686401,-9.807794570922852
1745671865.799677,0.021614838391542435,0.005014004651457071,-0.15775702893733978,0.3492439389228821,-0.18460069596767426,-9.656050682067871
1745671865.8020413,-0.0023375866003334522,-0.003420842345803976,-0.15848928689956665,0.34316787123680115,-0.3658776879310608,-9.794416427612305
1745671865.8066702,0.016381029039621353,0.0007421635091304779,-0.1602899730205536,0.2210572212934494,-0.1731102168560028,-9.859289169311523
1745671865.8092287,0.009749305434525013,0.003496152814477682,-0.1601707488298416,0.39965328574180603,-0.33872076869010925,-9.744747161865234
1745671865.8381555,0.011943954974412918,-0.006056182086467743,-0.1607866883277893,0.2654033899307251,-0.2965630292892456,-9.794654846191406
1745671865.8382308,0.027318179607391357,0.0038771373219788074,-0.16250509023666382,0.4331459105014801,-0.25760436058044434,-9.74070930480957
1745671865.840838,0.0026367667596787214,-0.000664958730340004,-0.1589203029870987,0.32734474539756775,-0.37994757294654846,-9.796937942504883
1745671865.843424,0.029994800686836243,0.001422746805474162,-0.15763215720653534,0.3367391526699066,-0.2994644045829773,-9.698110580444336
1745671865.8435433,0.011530963703989983,-0.0040998077020049095,-0.1578706055879593,0.3956649899482727,-0.3292536735534668,-9.812699317932129
1745671865.8872182,0.028008580207824707,0.004424982704222202,-0.1573048084974289,0.23545818030834198,-0.34005168080329895,-9.946348190307617
1745671865.8872592,0.02374296635389328,-0.0019401432946324348,-0.1581750214099884,0.46861356496810913,-0.28124967217445374,-9.687471389770508
1745671865.8886266,0.010751718655228615,-0.003410122124478221,-0.16018490493297577,0.2660592496395111,-0.3789266049861908,-9.76390266418457
1745671865.892335,0.030892690643668175,-0.0010122072417289019,-0.1591724455356598,0.5139299631118774,-0.35056671500205994,-9.687777519226074
1745671865.926063,0.0018975778948515654,-0.004800555296242237,-0.1626274734735489,0.43028759956359863,-0.4462532103061676,-9.880760192871094
1745671865.9277189,0.01242469809949398,-0.0002924805448856205,-0.16609728336334229,0.49361276626586914,-0.4534934163093567,-9.735280990600586
1745671865.9304333,0.022430941462516785,-0.0008005145937204361,-0.1657346785068512,0.2705055773258209,-0.3308665156364441,-10.000346183776855
1745671865.932133,0.022377055138349533,0.004572534002363682,-0.16742254793643951,0.5010710954666138,-0.2408662736415863,-9.78571891784668
1745671865.9638052,0.009281739592552185,-0.005673486739397049,-0.1686132401227951,0.3200564980506897,-0.4708268642425537,-9.779021263122559
1745671865.9665303,0.0284641794860363,0.003614018438383937,-0.1688852608203888,0.340437650680542,-0.26266223192214966,-9.64937686920166
1745671865.9679396,-0.0051040807738900185,-0.0020415012259036303,-0.16779416799545288,0.40914005041122437,-0.5822193026542664,-9.8254976272583
1745671865.9703937,0.02216438576579094,0.001277667237445712,-0.16959208250045776,0.2985524535179138,-0.3048045039176941,-9.814441680908203
1745671866.0076318,0.0016310069477185607,-0.0013107017148286104,-0.16932468116283417,0.5329168438911438,-0.47326961159706116,-9.732170104980469
1745671866.011226,0.003132052021101117,-0.001070698956027627,-0.16980436444282532,0.30040913820266724,-0.3324451446533203,-9.837297439575195
1745671866.0132513,0.00924038328230381,-0.00016354727267753333,-0.16790245473384857,0.5339284539222717,-0.4388159215450287,-9.745325088500977
1745671866.0168417,0.0007097579073160887,-0.0029021468944847584,-0.17002548277378082,0.2873101830482483,-0.31011366844177246,-9.858363151550293
1745671866.0181193,0.008699392899870872,-0.0013373007532209158,-0.1702430546283722,0.37545695900917053,-0.2755036950111389,-9.713705062866211
1745671866.050985,0.007809942122548819,-0.003201625542715192,-0.17026731371879578,0.47708043456077576,-0.35817772150039673,-9.680285453796387
1745671866.0532513,0.01192761491984129,0.00332786631770432,-0.1731266975402832,0.2347874641418457,-0.08117634057998657,-9.750631332397461
1745671866.0565982,0.011637439019978046,-0.0026551191695034504,-0.17208394408226013,0.4184514880180359,-0.43554726243019104,-9.881309509277344
1745671866.0600312,0.018871191889047623,-0.005855311173945665,-0.17478257417678833,0.3088633418083191,-0.11764802783727646,-9.780059814453125
1745671866.095939,0.018767397850751877,-0.007541076745837927,-0.1897527426481247,0.4340609908103943,-0.34477972984313965,-9.78891658782959
1745671866.0976932,0.005669347010552883,-0.0043494198471307755,-0.19027593731880188,0.3910302519798279,-0.2132132351398468,-9.608416557312012
1745671866.1019917,0.018712112680077553,-0.009379211813211441,-0.1883227378129959,0.586624264717102,-0.45942720770835876,-9.792994499206543
1745671866.1039627,0.01484485249966383,-0.004389762878417969,-0.1908983588218689,0.290776789188385,-0.035699762403964996,-9.909435272216797
1745671866.134953,0.031047377735376358,0.00025402940809726715,-0.19098114967346191,0.5278709530830383,-0.36212751269340515,-9.693294525146484
1745671866.13761,0.023746149614453316,-0.007931040599942207,-0.19212380051612854,0.3359262943267822,-0.1675037145614624,-9.61661434173584
1745671866.1400082,0.041570041328668594,-0.006165767088532448,-0.19234007596969604,0.4286791682243347,-0.34789329767227173,-9.939936637878418
1745671866.1429636,0.03528248891234398,-0.008970473892986774,-0.1944373995065689,0.4515010714530945,-0.23060309886932373,-9.924224853515625
1745671866.146902,0.03632412478327751,-0.0014699108432978392,-0.19380024075508118,0.30207476019859314,-0.436847060918808,-9.716669082641602
1745671866.1808865,0.04190107434988022,-0.008841709233820438,-0.19478292763233185,0.519477367401123,-0.47166332602500916,-9.462015151977539
1745671866.1838474,0.015552235767245293,-0.006691096816211939,-0.1936659961938858,0.2724604904651642,-0.47717276215553284,-9.869165420532227
1745671866.1847725,0.036198318004608154,-0.004467439837753773,-0.1931740939617157,0.5037486553192139,-0.6420444250106812,-9.952410697937012
1745671866.187113,0.012365186586976051,-0.0067279152572155,-0.193743497133255,0.33418381214141846,-0.33218851685523987,-9.7048921585083
1745671866.220651,0.012838602066040039,-0.005625507328659296,-0.1938791573047638,0.42023247480392456,-0.4327091574668884,-9.654109954833984
1745671866.2251885,0.009603984653949738,-0.010548893362283707,-0.1940121203660965,0.35683244466781616,-0.39265814423561096,-9.815385818481445
1745671866.228641,0.011871397495269775,-0.00393099058419466,-0.19722378253936768,0.2918094992637634,-0.30013108253479004,-9.882776260375977
1745671866.23076,0.018901260569691658,-0.009097157046198845,-0.19303973019123077,0.537090539932251,-0.3973057270050049,-9.696635246276855
1745671866.2336426,0.01585572585463524,-0.0075018079951405525,-0.19458632171154022,0.23207099735736847,-0.14686580002307892,-9.712733268737793
1745671866.2674646,0.03158193081617355,-0.008497996255755424,-0.19529560208320618,0.5344465970993042,-0.3775198757648468,-9.720739364624023
1745671866.2703705,0.017600079998373985,-0.00787304900586605,-0.19444403052330017,0.31454819440841675,-0.2564009726047516,-9.824445724487305
1745671866.2764552,0.006684574298560619,-0.011865802109241486,-0.197110116481781,0.33261314034461975,-0.10551191866397858,-9.804975509643555
1745671866.2785506,0.03400800749659538,-0.006480877753347158,-0.19757235050201416,0.5294700264930725,-0.32039424777030945,-9.796258926391602
1745671866.3100994,0.024528590962290764,-0.01441215444356203,-0.199579656124115,0.3852160573005676,-0.23939791321754456,-9.786140441894531
1745671866.3131168,0.044963013380765915,-0.0061585139483213425,-0.1997968852519989,0.43753355741500854,-0.3015967607498169,-9.758366584777832
1745671866.3151853,0.025890503078699112,-0.012170749716460705,-0.1989171802997589,0.44766226410865784,-0.47051548957824707,-9.764944076538086
1745671866.3170679,0.04160524904727936,-0.009326969273388386,-0.20022396743297577,0.3606566786766052,-0.3749995231628418,-9.70920467376709
1745671866.3514082,0.028764892369508743,-0.009240086190402508,-0.19967959821224213,0.5376154184341431,-0.5385390520095825,-9.728235244750977
1745671866.3540595,0.021303167566657066,-0.006151690613478422,-0.20074030756950378,0.3200682997703552,-0.4524981379508972,-9.847672462463379
1745671866.3576512,0.03153110295534134,-0.010703636333346367,-0.19825392961502075,0.5616925358772278,-0.44102150201797485,-9.734444618225098
1745671866.361165,0.001744396286085248,-0.009742076508700848,-0.2043275088071823,0.4380715489387512,-0.4906187057495117,-9.84941291809082
1745671866.3628063,0.033805351704359055,-0.003145365510135889,-0.20224657654762268,0.4718565344810486,-0.39262089133262634,-9.755600929260254
1745671866.3952417,0.010926027782261372,-0.014792099595069885,-0.20236583054065704,0.4539097249507904,-0.344349205493927,-9.684717178344727
1745671866.39853,0.020303839817643166,-0.008330120705068111,-0.2043340504169464,0.34558048844337463,-0.3507061004638672,-9.822942733764648
1745671866.4065323,0.02871685102581978,-0.003338215406984091,-0.20231226086616516,0.5216020345687866,-0.27448469400405884,-9.70554256439209
1745671866.4096322,0.0220614206045866,-0.008388934656977654,-0.20384939014911652,0.2781888246536255,-0.2749171853065491,-9.8027982711792
1745671866.4381409,0.050638388842344284,-0.009219979867339134,-0.2045213282108307,0.5423962473869324,-0.26348361372947693,-9.740124702453613
1745671866.4404354,0.014265152625739574,-0.015567706897854805,-0.19866839051246643,0.3242740333080292,-0.3638642430305481,-9.925395011901855
1745671866.4416213,0.02047048881649971,-0.007099857088178396,-0.19654397666454315,0.5458012819290161,-0.2390451729297638,-9.707618713378906
1745671866.443435,0.007749275770038366,-0.011546705849468708,-0.19757047295570374,0.3521425426006317,-0.49887901544570923,-9.893101692199707
1745671866.452479,0.03561938554048538,-0.00939810462296009,-0.19697305560112,0.344896137714386,-0.2813916504383087,-9.743985176086426
1745671866.4860423,0.021041156724095345,-0.014033039100468159,-0.19894638657569885,0.509085476398468,-0.4472115635871887,-9.672560691833496
1745671866.4897604,0.012237189337611198,-0.007632461842149496,-0.19961977005004883,0.2390109747648239,-0.3554975688457489,-9.865643501281738
1745671866.494613,0.035304341465234756,-0.014541761949658394,-0.19849099218845367,0.5564930438995361,-0.5433884859085083,-9.688553810119629
1745671866.497487,0.004000118933618069,-0.012982016429305077,-0.20088167488574982,0.31738632917404175,-0.30696040391921997,-9.766687393188477
1745671866.5266135,0.019130129367113113,-0.009076682850718498,-0.20152811706066132,0.4282892346382141,-0.7001649737358093,-9.890581130981445
1745671866.5302646,0.016689661890268326,-0.016733283177018166,-0.20057864487171173,0.4495026171207428,-0.3442153036594391,-9.6802339553833
1745671866.5339313,-0.008267542347311974,-0.006819139234721661,-0.20163674652576447,0.32601580023765564,-0.5857311487197876,-9.880009651184082
1745671866.5459175,0.02498050220310688,-0.011203540489077568,-0.19958166778087616,0.5061205625534058,-0.592742919921875,-9.710275650024414
1745671866.5678866,-0.003993786871433258,-0.01089883130043745,-0.19889722764492035,0.28224676847457886,-0.1269177496433258,-9.66392993927002
1745671866.5696223,0.008240173570811749,-0.007484708912670612,-0.19997921586036682,0.45534080266952515,-0.6066854596138,-9.841538429260254
1745671866.5735052,0.013247929513454437,-0.01223333552479744,-0.20493367314338684,0.3035757541656494,-0.07639680057764053,-9.727032661437988
1745671866.5775702,0.012291942723095417,-0.005976182408630848,-0.2016127109527588,0.4515008330345154,-0.3973918855190277,-9.82017707824707
1745671866.580227,0.02110685035586357,-0.01336927991360426,-0.20329490303993225,0.3496994376182556,-0.41621795296669006,-9.82440185546875
1745671866.6107097,0.023096511140465736,-0.0053060101345181465,-0.20083490014076233,0.22866487503051758,-0.3189060091972351,-9.697637557983398
1745671866.6120644,0.01629597134888172,-0.012722221203148365,-0.19886769354343414,0.4583972990512848,-0.6107758283615112,-9.693140983581543
1745671866.6148896,0.012208392843604088,-0.009269820526242256,-0.19764311611652374,0.119442880153656,-0.45895037055015564,-9.900346755981445
1745671866.6161792,0.021177450194954872,-0.008748894557356834,-0.19632163643836975,0.39655542373657227,-0.4294818043708801,-9.740744590759277
1745671866.6533706,0.01244716253131628,-0.012006345205008984,-0.19364850223064423,0.31570300459861755,-0.26636409759521484,-9.754780769348145
1745671866.656183,0.008476948365569115,-0.018671439960598946,-0.19211319088935852,0.41739025712013245,-0.4692673087120056,-9.737364768981934
1745671866.6619346,0.015262129716575146,-0.006237652152776718,-0.1912841647863388,0.14577338099479675,-0.26346173882484436,-9.831558227539062
1745671866.6652267,0.007379201240837574,-0.016788002103567123,-0.1896810233592987,0.4202592372894287,-0.6036578416824341,-9.757041931152344
1745671866.6992266,0.008538191206753254,-0.009710515849292278,-0.19101276993751526,0.2424917221069336,-0.24081280827522278,-9.565320014953613
1745671866.712408,0.003066436853259802,-0.01076294295489788,-0.18757683038711548,0.45049986243247986,-0.6639999151229858,-9.818443298339844
1745671866.7125456,0.015198265202343464,-0.018247079104185104,-0.1878989040851593,0.3110584616661072,-0.2716697156429291,-9.949020385742188
1745671866.7125957,0.0018541093450039625,-0.007291698362678289,-0.19036820530891418,0.27925223112106323,-0.4677218496799469,-9.918540954589844
1745671866.7392423,0.009875471703708172,-0.019083786755800247,-0.18852196633815765,0.36904436349868774,-0.5591477155685425,-9.6161470413208
1745671866.7442982,0.005343486554920673,-0.011244245804846287,-0.1853771209716797,0.1854342222213745,-0.2663825750350952,-9.644350051879883
1745671866.7470677,0.004933578427881002,-0.016477104276418686,-0.1845078468322754,0.4299672245979309,-0.6843942403793335,-9.870709419250488
1745671866.7502806,0.0027840379625558853,-0.011484963819384575,-0.187190979719162,0.21722134947776794,-0.19708296656608582,-9.82983684539795
1745671866.7532873,0.002386225387454033,-0.010111277922987938,-0.18515029549598694,0.4500323235988617,-0.5741173624992371,-9.749567031860352
1745671866.7826982,0.005998163018375635,-0.014834349043667316,-0.18709173798561096,0.3133225739002228,-0.2528509497642517,-9.663036346435547
1745671866.7850678,-0.017296357080340385,-0.005733990576118231,-0.1733410656452179,0.190901979804039,-0.4477425515651703,-9.9175443649292
1745671866.7861419,-0.009234106168150902,-0.0062193237245082855,-0.17128679156303406,0.43023449182510376,-0.35591837763786316,-9.781913757324219
1745671866.8235652,-0.027075037360191345,-0.006844806484878063,-0.17270751297473907,0.25184181332588196,-0.39108186960220337,-9.746426582336426
1745671866.825549,0.008008569478988647,-0.007099340204149485,-0.17197123169898987,0.4007224142551422,-0.2766532003879547,-9.69984245300293
1745671866.8298316,-0.02563786506652832,-0.006273085717111826,-0.1734158843755722,0.3337440490722656,-0.4120884835720062,-9.79475212097168
1745671866.8326912,-0.00572052039206028,-0.002576325088739395,-0.17070278525352478,0.256538987159729,-0.28366798162460327,-9.836799621582031
1745671866.836249,-0.012841949239373207,-0.009601490572094917,-0.17074455320835114,0.41724419593811035,-0.47675901651382446,-9.747715950012207
1745671866.8760064,-0.003047436010092497,-0.003577789757400751,-0.17230947315692902,0.17530526220798492,-0.21382224559783936,-9.824808120727539
1745671866.8760517,-0.007799172308295965,-0.006692999042570591,-0.17076754570007324,0.45212411880493164,-0.5085542798042297,-9.777341842651367
1745671866.8785512,-0.001975469756871462,-0.008660251274704933,-0.17262911796569824,0.2455202043056488,-0.23410406708717346,-9.73277759552002
1745671866.8827677,-0.014603601768612862,-0.0009643349912948906,-0.1697949469089508,0.3281901180744171,-0.4663284718990326,-9.743809700012207
1745671866.9094155,-0.0019833636470139027,-0.010294012725353241,-0.1711854785680771,0.37885135412216187,-0.5226637125015259,-9.756316184997559
1745671866.9114394,-0.009081527590751648,-0.0006398828118108213,-0.16931979358196259,0.2461528480052948,-0.23451009392738342,-9.815925598144531
1745671866.9141088,-0.017698191106319427,-0.008253590203821659,-0.16985167562961578,0.401440292596817,-0.7219743728637695,-9.915555953979492
1745671866.916789,-0.008993895724415779,-0.0022704724688082933,-0.16866973042488098,0.21647784113883972,-0.15703001618385315,-9.63226318359375
1745671866.9212275,-0.023053448647260666,-0.0059329005889594555,-0.16738930344581604,0.40175628662109375,-0.6202024221420288,-9.724100112915039
1745671866.9549944,-0.017481237649917603,-0.006567639764398336,-0.16862154006958008,0.27065929770469666,-0.2628697454929352,-9.797628402709961
1745671866.9574022,-0.018993709236383438,-0.0028618082869797945,-0.1686265617609024,0.4583912789821625,-0.35815614461898804,-9.86050796508789
1745671866.9589043,-0.020700637251138687,-0.005608496256172657,-0.16915319859981537,0.3038378059864044,-0.3829079866409302,-9.820150375366211
1745671866.9613764,-0.0164115522056818,-0.0008783102966845036,-0.16951218247413635,0.3077327013015747,-0.3344669044017792,-9.671778678894043
1745671867.0004115,-0.013181005604565144,-0.007289789617061615,-0.16518409550189972,0.41018304228782654,-0.4296780526638031,-9.7747220993042
1745671867.0017512,-0.013540987856686115,-0.0044536227360367775,-0.16841331124305725,0.19628597795963287,-0.20963311195373535,-9.854896545410156
1745671867.0057127,-0.005523176398128271,-0.007906082086265087,-0.16582122445106506,0.3844013810157776,-0.42972683906555176,-9.64706039428711
1745671867.0097852,-0.015474657528102398,-0.0073786950670182705,-0.16538909077644348,0.22982163727283478,-0.4931224286556244,-9.766626358032227
1745671867.011835,-0.0049125119112432,-0.0005910571780987084,-0.16225183010101318,0.46539273858070374,-0.5312560796737671,-9.804805755615234
1745671867.0410228,-0.031048128381371498,-0.002565547591075301,-0.16194526851177216,0.16096767783164978,-0.42677387595176697,-9.895248413085938
1745671867.0432446,-0.00822815578430891,-0.0033888216130435467,-0.16207246482372284,0.2661820948123932,-0.3835024833679199,-9.665111541748047
1745671867.0446966,-0.035150449723005295,-0.008994454517960548,-0.16021542251110077,0.3500395715236664,-0.38786745071411133,-9.634736061096191
1745671867.0460305,-0.01806505024433136,-0.0028961491771042347,-0.16128286719322205,0.21663860976696014,-0.2592005133628845,-9.877935409545898
1745671867.085494,-0.017056148499250412,-0.008037025108933449,-0.15911300480365753,0.4284932017326355,-0.3338613212108612,-9.85649299621582
1745671867.087795,-0.020647024735808372,-0.003335285233333707,-0.1603669971227646,0.18534760177135468,-0.1323058307170868,-9.736534118652344
1745671867.0895865,-0.012879522517323494,-0.006168531719595194,-0.1565679907798767,0.4520745277404785,-0.4541977345943451,-9.619390487670898
1745671867.0915487,-0.014485414139926434,-0.009553627111017704,-0.15671439468860626,0.2578655183315277,-0.2513250708580017,-9.864352226257324
1745671867.126706,-0.003283221973106265,-0.004342458210885525,-0.15574482083320618,0.3051198124885559,-0.27963924407958984,-9.944272994995117
1745671867.1311095,-0.0016794797265902162,-0.007101693656295538,-0.1561829149723053,0.3164176344871521,-0.3490510582923889,-9.72311782836914
1745671867.1333635,-0.0054477425292134285,-0.004180063493549824,-0.155509814620018,0.22144834697246552,-0.15755166113376617,-9.531472206115723
1745671867.1385999,-0.014706606045365334,-0.012175021693110466,-0.15663978457450867,0.2244068682193756,-0.3497937321662903,-9.821537971496582
1745671867.170128,-0.00844759214669466,-0.005365189630538225,-0.15690229833126068,0.28651708364486694,-0.30888962745666504,-9.998310089111328
1745671867.1749866,-0.009848902001976967,-0.011536603793501854,-0.15679840743541718,0.3462982773780823,-0.464813768863678,-9.798067092895508
1745671867.1790316,-0.003850101726129651,-0.0076757208444178104,-0.15591588616371155,0.15556219220161438,-0.03668418899178505,-9.577418327331543
1745671867.1825318,-0.014425230212509632,-0.015017894096672535,-0.15753145515918732,0.38433223962783813,-0.602736234664917,-9.761444091796875
1745671867.1859105,-0.004160255193710327,-0.005601775832474232,-0.15710364282131195,0.13597248494625092,-0.05695386603474617,-9.824746131896973
1745671867.2154534,-0.012118028476834297,-0.0071815671399235725,-0.15495745837688446,0.3013673424720764,-0.5227062702178955,-9.815385818481445
1745671867.2170656,-0.0007227250607684255,-0.013348127715289593,-0.15627655386924744,0.2541850209236145,-0.20492291450500488,-9.609771728515625
1745671867.2187748,-0.015539172105491161,-0.006739817559719086,-0.1548427790403366,0.31619882583618164,-0.33120471239089966,-9.820261001586914
1745671867.2203536,-0.0035681836307048798,-0.014756808057427406,-0.15629740059375763,0.3707217276096344,-0.41898465156555176,-9.98012638092041
1745671867.2561882,-0.008607259020209312,-0.005718498956412077,-0.15429982542991638,0.22573907673358917,-0.11338388919830322,-9.757258415222168
1745671867.258618,-0.008426221087574959,-0.011771011166274548,-0.15512342751026154,0.4057541787624359,-0.49953025579452515,-9.62793254852295
1745671867.261275,-0.005787886679172516,-0.013033432886004448,-0.15269313752651215,0.18266353011131287,-0.11903715133666992,-9.725217819213867
1745671867.261357,-0.006864368915557861,-0.009231679141521454,-0.15350088477134705,0.3663322925567627,-0.39373350143432617,-9.932938575744629
1745671867.297909,-0.00789838470518589,-0.01298166811466217,-0.15414881706237793,0.21822459995746613,-0.20836377143859863,-9.853559494018555
1745671867.300235,0.0004282383306417614,-0.005454439669847488,-0.1563783586025238,0.30263668298721313,-0.2848140299320221,-9.636219024658203
1745671867.301717,-0.0013465580996125937,-0.014527574181556702,-0.15332452952861786,0.3745357096195221,-0.3142103850841522,-9.703661918640137
1745671867.3034546,-0.0063414620235562325,-0.008384776301681995,-0.15498679876327515,0.23408858478069305,-0.17709317803382874,-9.926115989685059
1745671867.3051593,0.000767502177041024,-0.01015353761613369,-0.15229210257530212,0.4480106830596924,-0.4762861132621765,-9.864381790161133
1745671867.344099,-0.006989933550357819,-0.009578036144375801,-0.15622946619987488,0.17918506264686584,-0.19768331944942474,-9.724371910095215
1745671867.3489337,0.008593431673943996,-0.009307038970291615,-0.15324577689170837,0.43726786971092224,-0.4489520192146301,-9.745704650878906
1745671867.3549592,-0.006432092748582363,-0.013714851811528206,-0.15285027027130127,0.25472936034202576,-0.15438680350780487,-9.7777681350708
1745671867.3578775,-0.015060688368976116,-0.008751150220632553,-0.1564907729625702,0.21706756949424744,-0.2814635634422302,-9.851739883422852
1745671867.386786,0.003559940727427602,-0.005293705966323614,-0.15446391701698303,0.4022951126098633,-0.39585039019584656,-9.726356506347656
1745671867.3896427,-0.013696722686290741,-0.008940084837377071,-0.1547340452671051,0.2816805839538574,-0.2923341691493988,-9.730607986450195
1745671867.3924458,0.004469945095479488,-0.002796758431941271,-0.15186144411563873,0.3238523006439209,-0.2801709771156311,-9.739255905151367
1745671867.394256,-0.011087063699960709,-0.01030393410474062,-0.154648095369339,0.3489302694797516,-0.28805917501449585,-9.790963172912598
1745671867.4264467,0.0015826171729713678,-0.0021456677932292223,-0.15398761630058289,0.2188664972782135,-0.15891067683696747,-9.860893249511719
1745671867.4290104,0.0009103737538680434,-0.006324657704681158,-0.15502843260765076,0.39513787627220154,-0.3596932291984558,-9.790640830993652
1745671867.4303653,-0.002833222271874547,-0.005604214034974575,-0.15548625588417053,0.20859524607658386,-0.15163816511631012,-9.78079891204834
1745671867.4328532,0.008566739968955517,-0.005454848520457745,-0.15434972941875458,0.4442268908023834,-0.36822599172592163,-9.765270233154297
1745671867.4341965,0.004294247832149267,-0.01557178609073162,-0.15529166162014008,0.17161588370800018,-0.1931818723678589,-9.81306266784668
1745671867.4711187,0.012447462417185307,0.001967134652659297,-0.15695804357528687,0.289669930934906,-0.26816651225090027,-9.703399658203125
1745671867.4732091,0.004198579583317041,-0.013059526681900024,-0.1577078402042389,0.20717863738536835,-0.340724915266037,-9.701422691345215
1745671867.4748483,-0.0031882808543741703,-0.006028356961905956,-0.15547345578670502,0.05814727023243904,-0.32079896330833435,-9.864663124084473
1745671867.4763134,0.001589289284311235,-0.004839829634875059,-0.1573479175567627,0.21494822204113007,-0.5836982131004333,-9.841142654418945
1745671867.5140383,-0.007179424166679382,-0.0048550451174378395,-0.1316862553358078,0.30743685364723206,-0.08098634332418442,-9.575665473937988
1745671867.5149035,-0.010373534634709358,0.0007801033789291978,-0.13272705674171448,0.09421338140964508,-0.15569588541984558,-9.682851791381836
1745671867.5175464,0.007960446178913116,-0.0011636997805908322,-0.13088805973529816,0.40053790807724,-0.26056697964668274,-9.720010757446289
1745671867.5198028,-0.002304628025740385,-0.001043864875100553,-0.13145962357521057,0.165134459733963,-0.06355370581150055,-9.958199501037598
1745671867.554755,0.028966564685106277,0.003754237201064825,-0.13209035992622375,0.35666245222091675,-0.29915061593055725,-9.881139755249023
1745671867.556857,0.007938525639474392,-0.0005139786517247558,-0.12882527709007263,0.37913447618484497,-0.16008323431015015,-9.52211856842041
1745671867.558416,0.02464716136455536,-0.0023807811085134745,-0.1297822743654251,0.38747304677963257,-0.2723478078842163,-9.702410697937012
1745671867.5612652,0.00290944566950202,-0.003496963996440172,-0.1279505491256714,0.35016077756881714,-0.2970646619796753,-9.967644691467285
1745671867.5705872,0.013578258454799652,0.0061000557616353035,-0.12708680331707,0.15682895481586456,-0.34367403388023376,-9.896145820617676
1745671867.6012244,0.009384188801050186,-0.0011472874321043491,-0.12715427577495575,0.4045904576778412,-0.25915390253067017,-9.480493545532227
1745671867.6067998,0.000738857954274863,-0.009670892730355263,-0.12593944370746613,0.16085311770439148,-0.26178625226020813,-9.862513542175293
1745671867.6120124,0.01885244995355606,-0.0014411064330488443,-0.12481176853179932,0.3430766463279724,-0.1947900950908661,-10.015520095825195
1745671867.6171114,-0.007489254232496023,-0.003790358081459999,-0.12381595373153687,0.24823646247386932,-0.4040502607822418,-9.86215591430664
1745671867.6425805,0.025693107396364212,-0.003818173659965396,-0.12297000735998154,0.32232093811035156,-0.2727223038673401,-9.44922924041748
1745671867.6461377,-0.006297246553003788,-0.006970060057938099,-0.11990376561880112,0.335971474647522,-0.4229336380958557,-9.759323120117188
1745671867.6489081,0.0041176979430019855,-0.0078051439486444,-0.11822819709777832,0.22040247917175293,-0.34726980328559875,-10.104875564575195
1745671867.6500773,0.005924195516854525,-0.003851521061733365,-0.11599059402942657,0.45663967728614807,-0.33933892846107483,-9.73686695098877
1745671867.6851828,-0.011681502684950829,-0.002833077684044838,-0.11616159975528717,0.2007727175951004,-0.23097877204418182,-9.575296401977539
1745671867.687621,0.007974466308951378,-0.008724560961127281,-0.11697802692651749,0.4206496775150299,-0.22561481595039368,-9.72223949432373
1745671867.689425,-0.01776263304054737,-0.010987777262926102,-0.11889084428548813,0.25821512937545776,-0.17479829490184784,-10.04263687133789
1745671867.6930676,0.0034862742759287357,0.0021413350477814674,-0.11812915652990341,0.30486947298049927,-0.3127511143684387,-9.781637191772461
1745671867.69411,-0.0031832573004066944,-0.009497640654444695,-0.11758701503276825,0.35995277762413025,-0.22525322437286377,-9.430376052856445
1745671867.7368388,0.0014533434296026826,-0.010550028644502163,-0.11208273470401764,0.2701849639415741,-0.1630697399377823,-9.740715026855469
1745671867.7369204,0.022249862551689148,-0.001284560188651085,-0.11161661148071289,0.24334998428821564,-0.3702690601348877,-10.0296630859375
1745671867.738508,0.013191888108849525,-0.008457964286208153,-0.11006931960582733,0.3598107695579529,-0.2940829396247864,-9.66775894165039
1745671867.7712488,-0.0016477002063766122,-0.0009189629927277565,-0.10998058319091797,0.20769421756267548,-0.41032618284225464,-9.607495307922363
1745671867.7740126,3.227218985557556e-05,-0.006963069085031748,-0.10843010991811752,0.4075537323951721,-0.4213712215423584,-9.825441360473633
1745671867.7747447,-0.011280576698482037,-0.0116532938554883,-0.10802700370550156,0.2751745879650116,-0.36696502566337585,-9.967700958251953
1745671867.7772756,-0.004674196243286133,0.00047858580364845693,-0.10719897598028183,0.38351836800575256,-0.2666516602039337,-9.808677673339844
1745671867.7795055,-0.023650523275136948,-0.010395958088338375,-0.10821471363306046,0.2691417336463928,-0.4225563406944275,-9.748087882995605
1745671867.816708,0.005100401118397713,-0.006989953573793173,-0.10408935695886612,0.2783673107624054,-0.09712434560060501,-9.583638191223145
1745671867.81817,-0.028635824099183083,-0.012154796160757542,-0.10228313505649567,0.3290112614631653,-0.415215402841568,-9.891557693481445
1745671867.8227148,0.009878290817141533,0.0021633021533489227,-0.10347504913806915,0.06462838500738144,-0.10631917417049408,-9.842266082763672
1745671867.829921,-0.010320751927793026,-0.007298070006072521,-0.1015719398856163,0.40858370065689087,-0.21743552386760712,-9.513110160827637
1745671867.858148,-0.0047882357612252235,-0.009508376941084862,-0.09946085512638092,0.18364298343658447,-0.2634316086769104,-9.852214813232422
1745671867.8641481,-0.02703792415559292,-0.0014023868134245276,-0.06105747073888779,0.16166438162326813,-0.11250768601894379,-9.832504272460938
1745671867.8666165,-0.0014454044867306948,0.0011900279205292463,-0.060910504311323166,0.3087933659553528,-0.2358226329088211,-9.67798900604248
1745671867.8692405,-0.02184361033141613,-0.003826951142400503,-0.06074012070894241,0.29218244552612305,-0.1646207571029663,-9.708803176879883
1745671867.906473,-0.001508777029812336,0.003263913094997406,-0.05953262001276016,0.25105851888656616,-0.12446773052215576,-9.852163314819336
1745671867.907856,-0.020214024931192398,-0.0036608739756047726,-0.05915945768356323,0.4249810576438904,-0.36096420884132385,-9.779095649719238
1745671867.9098227,-0.010955810546875,0.007300471421331167,-0.05792810767889023,0.22394979000091553,-0.15069781243801117,-9.730572700500488
1745671867.910843,-0.02310587838292122,-0.003218419384211302,-0.0549381747841835,0.4015451967716217,-0.4535149037837982,-9.805731773376465
1745671867.9139957,-0.021400224417448044,0.0001050142600433901,-0.054183583706617355,0.16896149516105652,-0.23774734139442444,-9.920623779296875
1745671867.9453394,-0.019306564703583717,0.004614393692463636,-0.05362166836857796,0.40768736600875854,-0.23566368222236633,-9.654354095458984
1745671867.9467633,-0.030606037005782127,-0.0012155765434727073,-0.05215511843562126,0.15010195970535278,-0.315388947725296,-9.787357330322266
1745671867.9504318,-0.022394156083464622,0.000353816372808069,-0.05111405998468399,0.29081958532333374,-0.04717116802930832,-9.722455978393555
1745671867.9510972,-0.029576068744063377,-0.002031706739217043,-0.04946024343371391,0.3982771635055542,-0.4019166827201843,-9.863622665405273
1745671867.9865036,-0.0187842957675457,0.008397863246500492,-0.051688116043806076,0.12286071479320526,-0.025952458381652832,-9.88522720336914
1745671867.9950585,-0.028896596282720566,-0.0040848939679563046,-0.04990801960229874,0.39527764916419983,-0.3710569143295288,-9.706318855285645
1745671867.9951367,-0.02147979475557804,-0.0027582154143601656,-0.046727389097213745,0.26196643710136414,-0.13140234351158142,-9.705404281616211
1745671867.9996648,-0.02710876427590847,0.006197310984134674,-0.045986976474523544,0.3568093776702881,-0.298600971698761,-9.897050857543945
1745671868.0039756,-0.028750116005539894,-0.0046219355426728725,-0.04500385373830795,0.32104265689849854,-0.2419678419828415,-9.849715232849121
1745671868.0297563,-0.027602005749940872,0.003592410357668996,-0.04505937546491623,0.2875414788722992,-0.06292689591646194,-9.657116889953613
1745671868.0332608,-0.028434384614229202,-0.0034250891767442226,-0.04579036682844162,0.3851979374885559,-0.28443747758865356,-9.786066055297852
1745671868.0357404,-0.022701168432831764,0.0022858029697090387,-0.04887758567929268,0.13733384013175964,0.034456562250852585,-9.839078903198242
1745671868.0371304,-0.02569345012307167,-0.0005005329148843884,-0.046493399888277054,0.44210201501846313,-0.279573529958725,-9.757118225097656
1745671868.0731297,-0.02394789084792137,-0.0009244055254384875,-0.0485726036131382,0.13751082122325897,-0.12647750973701477,-9.776116371154785
1745671868.0779936,-0.016212139278650284,0.00329459086060524,-0.04503696411848068,0.3330267071723938,-0.21390457451343536,-9.761999130249023
1745671868.0793107,-0.02881745435297489,0.002608582377433777,-0.045219603925943375,0.1537814438343048,-0.10107018798589706,-9.900938987731934
1745671868.0818207,-0.020926183089613914,0.001723867142572999,-0.046538688242435455,0.4574058949947357,-0.3104472756385803,-9.657042503356934
1745671868.1141453,-0.03824824467301369,-0.0032015580218285322,-0.046620022505521774,0.21638162434101105,-0.13723203539848328,-9.808096885681152
1745671868.1168158,-0.01830115355551243,0.004272751975804567,-0.04779487103223801,0.3623250424861908,-0.2047518938779831,-9.843881607055664
1745671868.1201847,-0.041606225073337555,-0.0025115078315138817,-0.048241131007671356,0.32118725776672363,-0.145417720079422,-9.752076148986816
1745671868.1237476,-0.026207050308585167,0.0056874314323067665,-0.04856308177113533,0.2285260707139969,-0.1677994728088379,-9.70166301727295
1745671868.12575,-0.028409939259290695,-0.004746200051158667,-0.046839628368616104,0.46504631638526917,-0.1481693685054779,-9.731134414672852
1745671868.1601152,-0.028594493865966797,-0.0007707729819230735,-0.04796284809708595,0.17745384573936462,-0.07063840329647064,-10.058450698852539
1745671868.160609,-0.00872419960796833,0.007468108087778091,-0.04558705911040306,0.43744388222694397,-0.19057312607765198,-9.725667953491211
1745671868.1631105,-0.030519183725118637,-0.004862708039581776,-0.047860849648714066,0.17043454945087433,-0.07633088529109955,-9.589750289916992
1745671868.1652784,-0.011557156220078468,-0.0006774814683012664,-0.04843166470527649,0.36307963728904724,-0.22077898681163788,-9.67994499206543
1745671868.204376,-0.022596407681703568,-0.0008039213716983795,-0.04774909466505051,0.34486645460128784,-0.10852403938770294,-9.959179878234863
1745671868.207625,-0.02063755877315998,0.004163400735706091,-0.047955118119716644,0.15645918250083923,-0.13652971386909485,-9.930793762207031
1745671868.216213,-0.016712170094251633,-0.012569794431328773,-0.04324165731668472,0.3483218550682068,-0.159031480550766,-9.735880851745605
1745671868.2182944,0.0005098270485177636,-0.00048046588199213147,-0.041902776807546616,0.2675848603248596,0.06533744931221008,-9.893903732299805
1745671868.2446249,-0.01635437086224556,-0.01327532809227705,-0.044376131147146225,0.3728967308998108,-0.2905099391937256,-9.88614273071289
1745671868.2483072,0.004303983878344297,-0.0033005804289132357,-0.0414716973900795,0.2774527370929718,0.049999214708805084,-9.602070808410645
1745671868.2523894,-0.011783024296164513,-0.00801301933825016,-0.04622955992817879,0.4498728811740875,-0.23602294921875,-9.727821350097656
1745671868.2554176,-0.002936630044132471,-0.009134924970567226,-0.04324283450841904,0.17259955406188965,-0.1339809000492096,-9.89193058013916
1745671868.2568448,-0.01027471013367176,-0.0019068330293521285,-0.043668173253536224,0.4152088165283203,-0.07444097846746445,-9.748846054077148
1745671868.2877903,-0.018416473641991615,-0.007968812249600887,-0.04420727118849754,0.27942031621932983,-0.34046709537506104,-9.823051452636719
1745671868.2898347,0.005689824931323528,-0.003771787043660879,-0.044756222516298294,0.22714786231517792,0.09688608348369598,-9.706084251403809
1745671868.2917023,-0.027307748794555664,-0.00952016282826662,-0.045303307473659515,0.4079684615135193,-0.2826926112174988,-9.87182903289795
1745671868.2950692,0.004966857377439737,-0.0033653234131634235,-0.046137843281030655,0.18010155856609344,0.050512053072452545,-9.796292304992676
1745671868.3313503,-0.013690575957298279,-0.0048680915497243404,-0.04638054221868515,0.42340192198753357,-0.18068572878837585,-9.622109413146973
1745671868.3332844,-0.010039053857326508,-0.007470057345926762,-0.04636753723025322,0.22512903809547424,-0.08011475205421448,-9.809612274169922
1745671868.3403325,0.0024547353386878967,-0.0008795086177997291,-0.04496403783559799,0.3628861606121063,-0.0595724992454052,-9.837189674377441
1745671868.3404202,-0.012733250856399536,-0.008567355573177338,-0.0463319793343544,0.27511435747146606,-0.1370091736316681,-9.87455940246582
1745671868.372611,0.005671094171702862,-0.00441468833014369,-0.0483388677239418,0.2818763852119446,0.0034392953384667635,-9.723371505737305
1745671868.3748531,-0.0007185935392044485,-0.006674577482044697,-0.044999781996011734,0.4518592953681946,-0.18810062110424042,-9.70020866394043
1745671868.3765485,-0.007032363675534725,-0.003595929127186537,-0.0474686399102211,0.15132609009742737,-0.008835891261696815,-9.876383781433105
1745671868.378899,0.0089193694293499,-0.006682305596768856,-0.046868424862623215,0.43269243836402893,-0.21512126922607422,-9.800381660461426
1745671868.3799725,-0.01320992223918438,-0.006976136472076178,-0.0464886799454689,0.2243402749300003,-0.015529459342360497,-9.735067367553711
1745671868.417418,0.011857534758746624,-0.004992545582354069,-0.04553724080324173,0.3147490918636322,-0.241378515958786,-9.768026351928711
1745671868.4207785,-0.006697024218738079,-0.011088098399341106,-0.04813900962471962,0.33715975284576416,-0.04591215401887894,-9.781990051269531
1745671868.4244816,0.002050428418442607,0.0020050429739058018,-0.047013960778713226,0.3334842920303345,-0.015229892916977406,-9.79821491241455
1745671868.427712,-0.006388875190168619,-0.006302960216999054,-0.04647744446992874,0.28571632504463196,-0.21066021919250488,-9.795827865600586
1745671868.460502,0.018166009336709976,-0.0038237597327679396,-0.047539204359054565,0.2443004548549652,0.15719380974769592,-9.613204002380371
1745671868.4622288,-0.011273621581494808,-0.0033176601864397526,-0.04754471778869629,0.44978052377700806,-0.22567495703697205,-9.765800476074219
1745671868.4635472,0.012693449854850769,-0.0030224749352782965,-0.046668071299791336,0.12277239561080933,-0.07636600732803345,-9.93390941619873
1745671868.4664054,0.003458359744399786,-0.005963881500065327,-0.04710084944963455,0.45489826798439026,-0.04778061807155609,-9.715055465698242
1745671868.5037568,-0.0018956612329930067,-0.00272422400303185,-0.046453945338726044,0.19448444247245789,-0.223153755068779,-9.882725715637207
1745671868.5082521,0.02244265377521515,-0.0016623251140117645,-0.04570753499865532,0.33109018206596375,-0.03866376727819443,-9.710221290588379
1745671868.5123646,-0.005237451754510403,-0.00743485614657402,-0.045822687447071075,0.3464123606681824,-0.1351737678050995,-9.730277061462402
1745671868.5147188,0.0031194319017231464,-0.0010084055829793215,-0.04679461941123009,0.1857088804244995,-0.13979612290859222,-9.85621452331543
1745671868.5169835,0.008455885574221611,-0.004389592912048101,-0.0451350100338459,0.44450005888938904,-0.2028060406446457,-9.726909637451172
1745671868.5469108,-0.010686150752007961,-0.001602464122697711,-0.045875921845436096,0.15217575430870056,-0.0145773496478796,-9.828773498535156
1745671868.5487943,0.014883013442158699,-0.0049524023197591305,-0.04564758017659187,0.4484950006008148,-0.31288835406303406,-9.805747985839844
1745671868.549122,-0.011839324608445168,-0.004560681059956551,-0.04874854162335396,0.2373955249786377,0.1052829846739769,-9.78458309173584
1745671868.5510154,0.023195043206214905,0.003027908504009247,-0.06578288227319717,0.20343434810638428,0.07848263531923294,-9.857972145080566
1745671868.5900078,0.009824080392718315,0.004195062909275293,-0.06588859111070633,0.41690897941589355,-0.23801755905151367,-9.82346248626709
1745671868.5931954,0.01245884783565998,0.004613630007952452,-0.06685485690832138,0.27504000067710876,0.04528146982192993,-9.620500564575195
1745671868.5946724,0.018141381442546844,0.001756780780851841,-0.06730890274047852,0.4133625626564026,-0.18394479155540466,-9.728116035461426
1745671868.5956106,0.009655811823904514,0.0024814296048134565,-0.06882680952548981,0.25135505199432373,-0.06786192953586578,-9.974065780639648
1745671868.6331134,0.024381663650274277,0.007042362354695797,-0.0687919333577156,0.32112205028533936,-0.12130966037511826,-9.82642936706543
1745671868.6358972,0.018932614475488663,-0.0017756558954715729,-0.06926751136779785,0.3414772152900696,-0.17859597504138947,-9.630457878112793
1745671868.6395013,0.018810084089636803,0.00503617525100708,-0.0707785040140152,0.22992515563964844,0.012046200223267078,-9.71916389465332
1745671868.639887,0.020316528156399727,-0.0008307084208354354,-0.06924180686473846,0.4859496057033539,-0.2759268581867218,-9.878426551818848
1745671868.675136,0.014904433861374855,0.0038260265719145536,-0.07204544544219971,0.21889019012451172,0.017391283065080643,-9.850379943847656
1745671868.6777883,0.026976430788636208,0.005696024280041456,-0.07306208461523056,0.4713076651096344,-0.21296635270118713,-9.652803421020508
1745671868.6832457,0.015487601980566978,-3.784578439081088e-05,-0.07355945557355881,0.31828802824020386,-0.15389791131019592,-9.767979621887207
1745671868.6876702,0.0253328625112772,0.004831067286431789,-0.07694955915212631,0.36205750703811646,-0.10491740703582764,-9.870603561401367
1745671868.692391,0.013948197476565838,0.004483539145439863,-0.07675670832395554,0.37982237339019775,-0.2980208992958069,-9.811479568481445
1745671868.7267883,0.02308238483965397,0.007905403152108192,-0.07681842148303986,0.27114200592041016,-0.006284826435148716,-9.631023406982422
1745671868.7269504,0.01635505072772503,0.0016586106503382325,-0.07807838171720505,0.46183833479881287,-0.22961552441120148,-9.75724983215332
1745671868.7270358,0.015635129064321518,0.0030299597419798374,-0.0789448618888855,0.2170480489730835,0.05047174543142319,-9.927610397338867
1745671868.7271173,0.025002453476190567,0.009581691585481167,-0.08026514947414398,0.45298972725868225,-0.18999618291854858,-9.820588111877441
1745671868.7630897,0.024970799684524536,0.0006797546520829201,-0.08337785303592682,0.30610305070877075,-0.03141666203737259,-9.617446899414062
1745671868.763241,0.025796223431825638,0.007191157434135675,-0.08395333588123322,0.37133702635765076,-0.13985911011695862,-9.696102142333984
1745671868.7656507,0.024176055565476418,0.0025042116176337004,-0.08511503040790558,0.3956412672996521,-0.1778133064508438,-9.854299545288086
1745671868.7675014,0.02494657412171364,-0.0007454324513673782,-0.08687354624271393,0.3865370750427246,-0.20621009171009064,-9.781631469726562
1745671868.807443,0.03221435844898224,0.0069359056651592255,-0.0895247831940651,0.18641552329063416,-0.2504824697971344,-9.835657119750977
1745671868.8095489,0.03422156721353531,0.0046181874349713326,-0.08508804440498352,0.5043691396713257,-0.2300935685634613,-9.587898254394531
1745671868.8110468,0.015405571088194847,-0.005173272453248501,-0.0868043377995491,0.16058464348316193,-0.21502554416656494,-9.90298080444336
1745671868.8114452,0.03239280730485916,0.00467733945697546,-0.08636529743671417,0.38596299290657043,-0.1620381623506546,-9.83971881866455
1745671868.8474603,0.017170311883091927,0.005382145754992962,-0.08611667901277542,0.298236221075058,-0.0825425535440445,-9.715324401855469
1745671868.8526285,0.02986745536327362,0.002187291858717799,-0.08921123296022415,0.3168693482875824,-0.04383014887571335,-9.69655990600586
1745671868.8546007,0.01890580728650093,-0.00912303663790226,-0.08735784143209457,0.4393545687198639,-0.23236608505249023,-9.91118049621582
1745671868.858366,0.03407159447669983,0.009001770988106728,-0.08948011696338654,0.23222923278808594,-0.04048878327012062,-9.837878227233887
1745671868.8620281,0.030612582340836525,0.0035993035417050123,-0.08733472973108292,0.4609048366546631,-0.2700076401233673,-9.599735260009766
1745671868.8940856,0.02921776846051216,-0.006123707629740238,-0.08680341392755508,0.2930508255958557,0.02982540801167488,-9.63328742980957
1745671868.8965,0.02997662127017975,0.0001048547201207839,-0.08534615486860275,0.4247654378414154,-0.25904011726379395,-10.126436233520508
1745671868.9014046,0.04351157322525978,0.0007156801293604076,-0.08802809566259384,0.26231223344802856,-0.06043610721826553,-9.979593276977539
1745671868.9071712,0.042742904275655746,0.0024864873848855495,-0.08670674264431,0.24105414748191833,-0.04062914848327637,-9.485013961791992
1745671868.9341369,0.018120503053069115,-0.009716612286865711,-0.0880473256111145,0.3260578215122223,-0.15974275767803192,-9.798650741577148
1745671868.9374447,0.023232538253068924,-0.0019524790113791823,-0.0847415030002594,0.4542488157749176,-0.33063438534736633,-9.817572593688965
1745671868.9425793,0.01640920341014862,-0.007323096040636301,-0.08699525892734528,0.21255293488502502,-0.11225221306085587,-9.82672119140625
1745671868.9454799,0.0243512112647295,-0.010474352166056633,-0.08640284836292267,0.4111871123313904,-0.2216247320175171,-9.710417747497559
1745671868.9767613,0.018976330757141113,-0.009125253185629845,-0.08806678652763367,0.3449203372001648,-0.2420668601989746,-9.790329933166504
1745671868.9850357,0.0319097563624382,0.0032713799737393856,-0.08547842502593994,0.28448405861854553,-0.10801751911640167,-9.766340255737305
1745671868.9851146,0.00995354913175106,-0.01591425947844982,-0.08726929873228073,0.36639904975891113,-0.3690042793750763,-9.781242370605469
1745671868.9885805,0.023318253457546234,-0.004347062204033136,-0.0874251127243042,0.26139384508132935,-0.10779889672994614,-9.803412437438965
1745671868.9923213,0.01648097299039364,-0.004452276974916458,-0.08625869452953339,0.37767791748046875,-0.3608117699623108,-9.87921142578125
1745671869.0213926,0.02042495831847191,-0.008773044683039188,-0.08970107138156891,0.2100984752178192,-0.139801025390625,-9.72055435180664
1745671869.0242896,0.01895500160753727,-0.007179541978985071,-0.08628283441066742,0.4998946785926819,-0.20463745296001434,-9.636253356933594
1745671869.0294454,0.00520357396453619,-0.006592992693185806,-0.0888005793094635,0.28386494517326355,-0.30759838223457336,-9.917378425598145
1745671869.0307739,0.024259081110358238,-0.0009939993033185601,-0.08824567496776581,0.2612628936767578,-0.11622456461191177,-9.8149995803833
1745671869.0640492,0.011644503101706505,-0.010175418108701706,-0.08727192878723145,0.4109312891960144,-0.3125881552696228,-9.679237365722656
1745671869.0669992,0.017850231379270554,-0.002603539265692234,-0.08672453463077545,0.1592288315296173,-0.12392044067382812,-9.864056587219238
1745671869.0694814,0.025243088603019714,-0.006811435334384441,-0.08747141063213348,0.45779871940612793,-0.2631691098213196,-9.80396556854248
1745671869.0708854,0.011507995426654816,-0.0024799094535410404,-0.08586324751377106,0.22573678195476532,-0.06919881701469421,-9.715648651123047
1745671869.0742989,0.02382672391831875,-0.006723423954099417,-0.09072057902812958,0.38885095715522766,-0.33774009346961975,-9.774595260620117
1745671869.107725,0.021244492381811142,-0.008195359259843826,-0.08688078075647354,0.3347055912017822,-0.18286356329917908,-9.773908615112305
1745671869.109279,0.008577441796660423,-0.0009195570019073784,-0.08692535758018494,0.253950297832489,-0.286453515291214,-9.858034133911133
1745671869.1121347,0.017868047580122948,-0.011173240840435028,-0.08786655217409134,0.44043055176734924,-0.4408925175666809,-9.768534660339355
1745671869.113959,0.006969845853745937,0.0011854982003569603,-0.08793578296899796,0.21502947807312012,-0.029160138219594955,-9.734395027160645
1745671869.1500928,0.024905554950237274,-0.0039458367973566055,-0.08811308443546295,0.2507596015930176,0.02032514289021492,-9.666068077087402
1745671869.1536236,0.004447077866643667,-0.0023472285829484463,-0.08940930664539337,0.4223331809043884,-0.239327073097229,-9.668983459472656
1745671869.1580815,0.008973514661192894,-0.008134971372783184,-0.08815224468708038,0.28534406423568726,-0.17883583903312683,-9.785865783691406
1745671869.1609871,0.02047240175306797,-0.0018517527496442199,-0.0906745195388794,0.38898521661758423,-0.14816801249980927,-9.846575736999512
1745671869.1909225,-0.004123686347156763,-0.00800074078142643,-0.09088775515556335,0.290738582611084,-0.35804030299186707,-9.88562297821045
1745671869.1931102,0.029246654361486435,-0.0026295525021851063,-0.09080217033624649,0.2961120009422302,-0.11691100895404816,-9.66944694519043
1745671869.1954122,-0.0013781825546175241,-0.00465518981218338,-0.09053806960582733,0.33404332399368286,-0.30173003673553467,-9.791519165039062
1745671869.1965637,0.009073657914996147,-0.0061879269778728485,-0.08771680295467377,0.23925729095935822,-0.2408917397260666,-9.778940200805664
1745671869.2007215,0.012091477401554585,-0.004787175450474024,-0.08809436857700348,0.4840310215950012,-0.21240432560443878,-9.680824279785156
1745671869.2357879,-0.00047048553824424744,-0.0050888992846012115,-0.09045267105102539,0.20573778450489044,-0.2947022318840027,-9.917318344116211
1745671869.2398365,0.01923958584666252,0.00040932995034381747,-0.08931209146976471,0.36535337567329407,-0.18706656992435455,-9.73784065246582
1745671869.2432022,-0.008783238008618355,-0.012580695562064648,-0.08929349482059479,0.3328683078289032,-0.3254334330558777,-9.72815227508545
1745671869.2446604,0.014384150505065918,0.00018459651619195938,-0.08953896909952164,0.3042510449886322,-0.19652649760246277,-9.802789688110352
1745671869.277649,0.0004322396998759359,-0.0025794676039367914,-0.0873805433511734,0.37467923760414124,-0.29626473784446716,-9.815800666809082
1745671869.2827797,-0.0015149348182603717,-0.0048737130127847195,-0.0921434536576271,0.40075793862342834,-0.2359304428100586,-9.695301055908203
1745671869.2880144,0.002228709403425455,-0.007277703378349543,-0.09301366657018661,0.27670392394065857,-0.27248090505599976,-9.85839557647705
1745671869.2904043,0.012989315204322338,0.0019784632604569197,-0.09297015517950058,0.3347068130970001,-0.04383258521556854,-9.712769508361816
1745671869.324503,-0.011213037185370922,-0.006205419544130564,-0.09266969561576843,0.3684517741203308,-0.440692663192749,-9.728808403015137
1745671869.3256147,0.012374743819236755,-0.004056327976286411,-0.09225426614284515,0.261227011680603,-0.05738406628370285,-9.74659252166748
1745671869.3290787,-0.00361038139089942,-0.005172121338546276,-0.09292519837617874,0.42630529403686523,-0.36548295617103577,-9.915964126586914
1745671869.3325717,0.00526156323030591,0.00041834492003545165,-0.09309130907058716,0.2503405809402466,-0.12397563457489014,-9.814801216125488
1745671869.3622346,0.0032832659780979156,-0.006764862686395645,-0.09462949633598328,0.48818397521972656,-0.15992876887321472,-9.635254859924316
1745671869.366309,-0.005999954883009195,-0.01001781690865755,-0.09586893767118454,0.33043187856674194,-0.22575163841247559,-9.807259559631348
1745671869.3679345,0.012841915711760521,0.003874128218740225,-0.09742141515016556,0.45777374505996704,-0.11110174655914307,-9.780523300170898
1745671869.3709793,0.0048832460306584835,-0.006623048335313797,-0.09921471774578094,0.44818243384361267,-0.2537602186203003,-9.805758476257324
1745671869.3738258,0.007156427018344402,-0.0030724455136805773,-0.09933193027973175,0.23483379185199738,-0.17313915491104126,-9.795341491699219
1745671869.4073935,0.015524025075137615,-0.002832727739587426,-0.09928132593631744,0.5134989023208618,-0.32550716400146484,-9.669273376464844
1745671869.4095027,0.0014842947712168097,0.0022644430864602327,-0.1008935198187828,0.2417854368686676,-0.17127278447151184,-9.819990158081055
1745671869.4113612,0.020473673939704895,-0.0020811979193240404,-0.10171498358249664,0.4083240032196045,-0.2997969686985016,-9.742002487182617
1745671869.4132838,-0.011150335893034935,-0.004004704300314188,-0.10446354001760483,0.41074639558792114,-0.12523627281188965,-9.773173332214355
1745671869.449575,0.013342546299099922,0.005508407484740019,-0.10673972219228745,0.25838905572891235,-0.30598965287208557,-9.92093276977539
1745671869.4519117,0.0033801321405917406,-0.004502152092754841,-0.1095266342163086,0.4665408134460449,-0.21273891627788544,-9.621254920959473
1745671869.456828,-0.002451594453305006,0.004389985464513302,-0.10962074995040894,0.3195175528526306,-0.2128993570804596,-9.741131782531738
1745671869.4610426,0.001276745111681521,-0.0016949053388088942,-0.1108030304312706,0.5077847838401794,-0.3196410834789276,-9.831893920898438
1745671869.4666224,-0.0022243927232921124,0.0043418132700026035,-0.11101801693439484,0.2493342161178589,-0.12853296101093292,-9.813329696655273
1745671869.4949417,0.018012678250670433,0.005047049839049578,-0.12115426361560822,0.4651068150997162,-0.21507899463176727,-9.836153030395508
1745671869.4963746,0.004527946934103966,0.0005348650738596916,-0.12239575386047363,0.5111866593360901,-0.25745177268981934,-9.664847373962402
1745671869.4980838,0.017523642629384995,0.0030498334672302008,-0.12403066456317902,0.38047248125076294,-0.1695372313261032,-9.788698196411133
1745671869.5014753,0.0120547479018569,-0.0007378572481684387,-0.12512752413749695,0.5074747204780579,-0.32906585931777954,-9.86106014251709
1745671869.5383608,0.012303941883146763,0.006817521061748266,-0.12859567999839783,0.2574937641620636,0.00979856587946415,-9.737424850463867
1745671869.539132,0.021138658747076988,0.00822482444345951,-0.1280437856912613,0.41159018874168396,-0.36023467779159546,-9.649914741516113
1745671869.5412767,0.014020089991390705,0.00027133076218888164,-0.12901130318641663,0.28740358352661133,-0.011655834503471851,-9.753510475158691
1745671869.5440784,0.02671259269118309,0.00706268846988678,-0.1311740279197693,0.46394094824790955,-0.21599383652210236,-9.97062873840332
1745671869.581327,0.028373997658491135,0.0060087041929364204,-0.13425536453723907,0.3595517873764038,-0.1778009682893753,-9.870125770568848
1745671869.584731,0.031718481332063675,0.013262366876006126,-0.13602599501609802,0.3910508453845978,-0.14053882658481598,-9.510677337646484
1745671869.5871236,0.019280072301626205,0.0012257593916729093,-0.1360919177532196,0.5469884872436523,-0.3868864178657532,-9.65124225616455
1745671869.590026,0.01957831159234047,0.006018596235662699,-0.13500238955020905,0.2889699339866638,-0.2753339409828186,-10.052818298339844
1745671869.6227546,0.027132725343108177,0.009228009730577469,-0.13697519898414612,0.5077811479568481,-0.3089497685432434,-9.905661582946777
1745671869.6258156,0.007843030616641045,0.0043224552646279335,-0.13790789246559143,0.29609429836273193,-0.251318097114563,-9.705826759338379
1745671869.6277559,0.03846167400479317,0.005017309449613094,-0.14121873676776886,0.4359377920627594,-0.08112025260925293,-9.581235885620117
1745671869.6302822,0.041252411901950836,0.0012503117322921753,-0.14606377482414246,0.32131344079971313,-0.08655017614364624,-10.007089614868164
1745671869.633325,0.033663224428892136,-0.012668050825595856,-0.14822886884212494,0.3437950015068054,-0.45386093854904175,-9.775104522705078
1745671869.6661053,0.03404867276549339,-5.0796101277228445e-05,-0.1468486338853836,0.31317606568336487,-0.20906034111976624,-9.46218490600586
1745671869.6666028,0.022721655666828156,-0.013490011915564537,-0.14735755324363708,0.5887588262557983,-0.5973097085952759,-9.813888549804688
1745671869.6692646,0.022930558770895004,-0.0075967153534293175,-0.14636561274528503,0.21514137089252472,-0.28001973032951355,-10.101397514343262
1745671869.669977,0.015394014306366444,-0.0008082852000370622,-0.14523223042488098,0.4635928273200989,-0.5690602660179138,-9.701398849487305
1745671869.7077603,0.007589926011860371,-0.007223799824714661,-0.1456165611743927,0.3105006515979767,-0.2624054253101349,-9.41356086730957
1745671869.7103913,0.009245166555047035,-0.007196378894150257,-0.14385798573493958,0.267614483833313,-0.40153971314430237,-9.8900785446167
1745671869.714018,0.012005954049527645,-0.007803626358509064,-0.14440497756004333,0.6086679697036743,-0.2856956124305725,-9.996466636657715
1745671869.7175696,0.008460240438580513,0.0007989414152689278,-0.1458742916584015,0.18183733522891998,0.016413230448961258,-9.9951753616333
1745671869.720742,0.023805400356650352,-0.00962987169623375,-0.14801914989948273,0.47805055975914,-0.37473684549331665,-9.516338348388672
1745671869.7525845,0.02281557023525238,-0.005765953101217747,-0.14730067551136017,0.4330045282840729,0.021762344986200333,-9.493139266967773
1745671869.7547786,0.029109572991728783,-0.005567171610891819,-0.14783509075641632,0.4620608389377594,-0.22714705765247345,-10.147900581359863
1745671869.7563415,0.03359329700469971,-0.008670294657349586,-0.15097038447856903,0.33579954504966736,-0.22700288891792297,-9.988767623901367
1745671869.757652,0.03656924515962601,0.00241533643566072,-0.14776448905467987,0.3828238546848297,-0.06536057591438293,-9.430501937866211
1745671869.7962494,0.031740959733724594,-0.012112056836485863,-0.14887553453445435,0.4646628797054291,-0.48589712381362915,-9.720954895019531
1745671869.8008454,0.0581837072968483,-0.011513358913362026,-0.14965055882930756,0.2508763372898102,-0.013706636615097523,-10.067331314086914
1745671869.8040807,0.030124550685286522,0.00044763553887605667,-0.15111735463142395,0.4624980092048645,-0.48885107040405273,-9.980817794799805
1745671869.8072581,0.04903407767415047,-0.005344776902347803,-0.15067213773727417,0.18691928684711456,-0.2417987883090973,-9.443723678588867
1745671869.8114898,0.031931791454553604,-0.005823172628879547,-0.14937570691108704,0.3782690167427063,-0.4997177720069885,-9.431680679321289
1745671869.8432062,0.025390198454260826,-0.01168622076511383,-0.1482398808002472,0.41955557465553284,-0.5873546004295349,-10.055595397949219
1745671869.8432684,0.030229706317186356,-0.005644647870212793,-0.14666473865509033,0.46343928575515747,-0.2601613402366638,-10.003632545471191
1745671869.843315,0.031401921063661575,0.00015141264884732664,-0.14585080742835999,0.25012245774269104,-0.06647108495235443,-9.634830474853516
1745671869.8471413,0.04204016178846359,-0.011110829189419746,-0.14566202461719513,0.4559483528137207,-0.3677372932434082,-9.645648002624512
1745671869.8830369,0.039937011897563934,-0.010014934465289116,-0.14313137531280518,0.29029732942581177,-0.25595152378082275,-9.948793411254883
1745671869.8845878,0.0471341609954834,-0.0020213404204696417,-0.14409139752388,0.3537006378173828,-0.2957134246826172,-9.980794906616211
1745671869.886209,0.026946812868118286,-0.009405662305653095,-0.144509956240654,0.35065197944641113,-0.523654580116272,-9.65864372253418
1745671869.8883374,0.03314967080950737,-0.004504228942096233,-0.14394161105155945,0.3197873830795288,-0.2783544063568115,-9.486656188964844
1745671869.9255219,0.008800684474408627,-0.011504517868161201,-0.14394310116767883,0.42565426230430603,-0.6879917979240417,-9.891630172729492
1745671869.9277031,0.016147270798683167,-0.0025836664717644453,-0.1433209776878357,0.23512880504131317,-0.30105552077293396,-9.984463691711426
1745671869.9372234,-0.0020137999672442675,-0.005984385497868061,-0.14160843193531036,0.48213568329811096,-0.5601967573165894,-9.752038955688477
1745671869.9373648,0.0035007703118026257,-0.010252944193780422,-0.14183808863162994,0.26379936933517456,-0.3179176449775696,-9.672141075134277
1745671869.965694,0.0038597662933170795,-0.0065328083001077175,-0.14168629050254822,0.41746386885643005,-0.1885777711868286,-9.776623725891113
1745671869.970336,-0.0003965664654970169,-0.009361491538584232,-0.14125175774097443,0.3379426598548889,-0.3412295877933502,-9.908760070800781
1745671869.9720335,0.02427486702799797,0.0008868464501574636,-0.14176173508167267,0.2688136100769043,0.059052031487226486,-9.641341209411621
1745671869.973507,0.009851237758994102,-0.01391411293298006,-0.14428354799747467,0.48828569054603577,-0.31319481134414673,-9.687032699584961
1745671869.9755604,0.0037979879416525364,-0.012114201672375202,-0.14552921056747437,0.45045727491378784,-0.6601039171218872,-9.936070442199707
1745671870.009446,0.026095550507307053,-0.007866240106523037,-0.14698639512062073,0.213359072804451,0.026870643720030785,-9.859186172485352
1745671870.0119119,0.0025641543325036764,-0.00684490567073226,-0.14596274495124817,0.42908787727355957,-0.48011094331741333,-9.78039264678955
1745671870.0136824,0.02638225257396698,-0.011811142787337303,-0.14443142712116241,0.28584906458854675,-0.2434515506029129,-9.649503707885742
1745671870.0158474,0.014784460887312889,-0.007725919596850872,-0.1442735493183136,0.3452340066432953,-0.3204309940338135,-9.78605842590332
1745671870.052506,0.010604817420244217,-0.011141586117446423,-0.1445353627204895,0.31492850184440613,-0.5016441345214844,-9.922518730163574
1745671870.055418,0.017451012507081032,-0.002362046390771866,-0.14265212416648865,0.23467853665351868,-0.19267268478870392,-9.600190162658691
1745671870.058602,0.004586384166032076,-0.012737581506371498,-0.14372657239437103,0.48629575967788696,-0.5023412108421326,-9.595617294311523
1745671870.0626943,0.010675010271370411,-0.009634609334170818,-0.14325298368930817,0.28504103422164917,-0.16963689029216766,-9.932519912719727
1745671870.0659919,0.008791095577180386,-0.005177075508981943,-0.14488837122917175,0.46929389238357544,-0.48662319779396057,-10.043123245239258
1745671870.1014483,0.004824786446988583,-0.009966201148927212,-0.1439099907875061,0.25792935490608215,-0.1856999397277832,-9.626696586608887
1745671870.1015544,0.005816585384309292,-0.007402150426059961,-0.144687220454216,0.38690024614334106,-0.4378800392150879,-9.59687614440918
1745671870.1016316,0.011378524824976921,-0.01419058721512556,-0.14282074570655823,0.34022098779678345,-0.3159971833229065,-9.822233200073242
1745671870.1027772,0.012018345296382904,-0.0022892518900334835,-0.144366055727005,0.3016004264354706,-0.1474287211894989,-9.915251731872559
1745671870.1378424,0.009358640760183334,-0.008804419077932835,-0.14457674324512482,0.39319878816604614,-0.3971944749355316,-9.74747085571289
1745671870.1416445,0.012182876467704773,-0.010269051417708397,-0.1466641128063202,0.30550557374954224,-0.1667710393667221,-9.577863693237305
1745671870.1453686,0.01404668390750885,-0.008890016004443169,-0.14310495555400848,0.45717892050743103,-0.5347089767456055,-9.899694442749023
1745671870.147987,0.00997393298894167,-0.00975580234080553,-0.14611728489398956,0.2596104145050049,-0.24617250263690948,-10.029869079589844
1745671870.1506147,0.017593318596482277,-0.0037964419461786747,-0.1442963182926178,0.34750139713287354,-0.3938352167606354,-9.722708702087402
1745671870.1825604,-0.0016286110039800406,-0.009741051122546196,-0.14340095221996307,0.34218084812164307,-0.4367225766181946,-9.509358406066895
1745671870.1848094,0.01345053780823946,-0.007454110775142908,-0.14513862133026123,0.347201406955719,-0.26904913783073425,-9.74569320678711
1745671870.1906555,0.007115255109965801,-0.010204409249126911,-0.14483921229839325,0.2172069102525711,-0.31848418712615967,-10.013570785522461
1745671870.1932242,0.02036905661225319,-0.004855784587562084,-0.1433921754360199,0.44857263565063477,-0.31160488724708557,-9.703822135925293
1745671870.2262552,-0.0050298604182899,-0.0037633187603205442,-0.14398150146007538,0.25128525495529175,-0.3700758218765259,-9.581548690795898
1745671870.2302272,0.01998370699584484,-0.007632302585989237,-0.14067581295967102,0.33394473791122437,-0.30159273743629456,-9.695175170898438
1745671870.2317386,-0.012166604399681091,-0.008801630698144436,-0.14107680320739746,0.38015127182006836,-0.3873007595539093,-10.026371955871582
1745671870.2340622,0.018771931529045105,0.0037194103933870792,-0.13989603519439697,0.25779834389686584,-0.28082361817359924,-9.902891159057617
1745671870.270836,0.001709731644950807,-0.008953513577580452,-0.14192435145378113,0.38815370202064514,-0.29829907417297363,-9.602133750915527
1745671870.2743204,0.009552998468279839,-0.010801774449646473,-0.14168599247932434,0.26649683713912964,-0.2688530385494232,-9.657709121704102
1745671870.2786658,0.0040054162964224815,-0.0025393241085112095,-0.13981139659881592,0.3907851278781891,-0.41285738348960876,-9.931236267089844
1745671870.2817483,0.0065727815963327885,-0.006652257405221462,-0.1380661427974701,0.2404344081878662,-0.3579478859901428,-9.852113723754883
1745671870.2837849,0.009558194316923618,-0.003073770320042968,-0.13745327293872833,0.35920995473861694,-0.2567349374294281,-9.575531959533691
1745671870.313511,-0.006492086686193943,-0.010060562752187252,-0.1366991102695465,0.36649271845817566,-0.5126404166221619,-9.83967113494873
1745671870.3147016,0.017225755378603935,-0.003641898510977626,-0.13635078072547913,0.28712353110313416,-0.08330907672643661,-9.9075345993042
1745671870.3172028,-0.005509268958121538,-0.004072966985404491,-0.13891372084617615,0.3728415071964264,-0.5181383490562439,-9.856490135192871
1745671870.319176,0.00875740684568882,-0.005265785381197929,-0.13451024889945984,0.2306845635175705,-0.22727704048156738,-9.583683967590332
1745671870.355148,-0.005571769084781408,-0.001155587611719966,-0.13601620495319366,0.27626752853393555,-0.16429395973682404,-9.705345153808594
1745671870.3584163,0.010002359747886658,0.00024448111071251333,-0.13383962213993073,0.30594873428344727,-0.412036657333374,-9.808318138122559
1745671870.3621192,-0.006906847003847361,-0.008200027048587799,-0.1339445859193802,0.359316349029541,-0.2880706191062927,-9.849393844604492
1745671870.3643973,0.005087626166641712,0.002399565652012825,-0.13385069370269775,0.31870365142822266,-0.30222049355506897,-9.758066177368164
1745671870.3993719,-0.00022557939519174397,-0.0021935920231044292,-0.13514603674411774,0.3964635133743286,-0.41301578283309937,-9.673901557922363
1745671870.4012568,-0.00637404341250658,-0.0062563857063651085,-0.13452576100826263,0.24823477864265442,-0.26059257984161377,-9.784250259399414
1745671870.4026165,0.0010355020640417933,0.0005440300446934998,-0.1329231560230255,0.4571000039577484,-0.38822269439697266,-9.850114822387695
1745671870.4042993,-0.010658527724444866,-0.0012005234602838755,-0.13300327956676483,0.25368741154670715,-0.30412012338638306,-9.80051326751709
1745671870.440335,0.005242018960416317,-0.0013020370388403535,-0.1348688006401062,0.39700984954833984,-0.26035457849502563,-9.660795211791992
1745671870.4425764,-0.010114292614161968,-0.006444315426051617,-0.1333935707807541,0.417677104473114,-0.3480533957481384,-9.806760787963867
1745671870.4447465,0.005842084065079689,0.001270062755793333,-0.13441041111946106,0.24654003977775574,-0.2317938357591629,-9.918336868286133
1745671870.446849,-0.007064616773277521,-0.005821100436151028,-0.1348937749862671,0.43820881843566895,-0.3215857148170471,-9.752694129943848
1745671870.4485812,0.0031691689509898424,-0.003817157819867134,-0.13400061428546906,0.2457556277513504,-0.3070955276489258,-9.663240432739258
1745671870.4881585,0.010986050590872765,-0.0011428800644353032,-0.13471350073814392,0.4432600140571594,-0.26483067870140076,-9.74954891204834
1745671870.4907274,-0.012374653480947018,-0.003259121673181653,-0.13390281796455383,0.3115849196910858,-0.3970370590686798,-9.885354042053223
1745671870.4944942,0.013724598102271557,0.00036015157820656896,-0.13394039869308472,0.37897294759750366,-0.21394304931163788,-9.77064037322998
1745671870.4969323,-0.014162112958729267,-0.006152103189378977,-0.1355634331703186,0.38897275924682617,-0.40964993834495544,-9.775094032287598
1745671870.5274608,0.012656128033995628,0.0016028847312554717,-0.13436000049114227,0.24615995585918427,-0.278256893157959,-9.800324440002441
1745671870.5315654,-0.007606965489685535,-0.004269529599696398,-0.13369622826576233,0.4598570764064789,-0.3860527276992798,-9.774955749511719
