timestamp,angular_vel_x,angular_vel_y,angular_vel_z,linear_acc_x,linear_acc_y,linear_acc_z
1745662730.2385633,-0.033802807331085205,0.008902712725102901,0.20917055010795593,0.692553699016571,0.1465502679347992,-9.81097412109375
1745662730.2421134,-0.05423254519701004,-0.0027315975166857243,0.2124948799610138,0.4725375771522522,0.34250885248184204,-9.807536125183105
1745662730.2465136,-0.025119420140981674,0.013478758744895458,0.2125105857849121,0.5572130680084229,0.13362577557563782,-9.738199234008789
1745662730.2506208,-0.031922001391649246,0.006231998559087515,0.21346624195575714,0.58741295337677,0.6412279009819031,-9.628820419311523
1745662730.2895164,-0.02758954092860222,0.0038241602014750242,0.2127126008272171,0.41509875655174255,0.1673956960439682,-9.99125862121582
1745662730.2895756,-0.005077757872641087,0.005183744709938765,0.21160180866718292,0.5881984233856201,0.5140527486801147,-9.675975799560547
1745662730.289632,-0.030275512486696243,0.015213048085570335,0.21054470539093018,0.39401301741600037,0.28005027770996094,-9.724989891052246
1745662730.2915313,-0.006113053299486637,0.00234807888045907,0.21055099368095398,0.6804863810539246,0.08612639456987381,-9.669672966003418
1745662730.2929668,-0.03862276300787926,0.003381235059350729,0.21103732287883759,0.6071752905845642,0.21122784912586212,-9.862100601196289
1745662730.3242488,-0.023159166797995567,0.012077948078513145,0.21426932513713837,0.5804010629653931,-0.016702089458703995,-10.0165376663208
1745662730.3260527,-0.039707113057374954,0.004121464677155018,0.2156250923871994,0.5896859765052795,0.3949583172798157,-9.5784912109375
1745662730.328208,-0.03074110671877861,0.007240429520606995,0.21590957045555115,0.5786359906196594,0.11669477075338364,-9.671101570129395
1745662730.3301775,-0.037003543227910995,0.0034917902667075396,0.21558408439159393,0.6400020718574524,0.3588084578514099,-9.851705551147461
1745662730.365391,-0.02619946375489235,0.009320126846432686,0.21716591715812683,0.36738255620002747,0.38064590096473694,-9.94503116607666
1745662730.3699112,-0.026279455050826073,0.006449670996516943,0.2174105942249298,0.5781354308128357,0.24749207496643066,-9.740911483764648
1745662730.3704062,-0.006884192582219839,0.0027058187406510115,0.2200876772403717,0.4334394335746765,0.04935330152511597,-9.878132820129395
1745662730.3736138,-0.02464953437447548,0.010592281818389893,0.22121408581733704,0.7229539752006531,0.25691133737564087,-9.669059753417969
1745662730.4093084,-0.027422185987234116,0.008869152516126633,0.2214106023311615,0.4161672592163086,0.232523113489151,-9.84619140625
1745662730.411488,-0.021701909601688385,0.0002192385436501354,0.2206667959690094,0.5839923620223999,0.250771164894104,-9.759466171264648
1745662730.4131143,-0.031126102432608604,0.005428589880466461,0.22073319554328918,0.4904097020626068,0.390864759683609,-9.76347827911377
1745662730.4155638,-0.016675734892487526,0.009015955030918121,0.22092559933662415,0.5141350030899048,0.2978750765323639,-9.810697555541992
1745662730.4199936,-0.020852752029895782,0.0008747816318646073,0.22222140431404114,0.532434344291687,0.32245105504989624,-9.759885787963867
1745662730.455136,-0.015756472945213318,0.004772261716425419,0.2236965000629425,0.5182676911354065,0.27884650230407715,-9.786669731140137
1745662730.4551904,-0.008403927087783813,0.002033140743151307,0.22529169917106628,0.6305494904518127,0.21688923239707947,-9.707704544067383
1745662730.4586387,-0.015371793881058693,0.008034109137952328,0.22693295776844025,0.3592831492424011,0.4141480326652527,-9.837403297424316
1745662730.4614964,-0.010155958123505116,0.001853743800893426,0.2264259308576584,0.6844555139541626,0.13760116696357727,-9.712150573730469
1745662730.4968553,-0.009114647284150124,0.005510000977665186,0.22592420876026154,0.4875655174255371,0.44848519563674927,-9.699640274047852
1745662730.4992204,-0.007707271724939346,-0.007810492999851704,0.23715758323669434,0.569284200668335,0.4092336595058441,-9.745622634887695
1745662730.5026493,-0.004119803197681904,-0.004545680247247219,0.23703274130821228,0.3749634027481079,0.23712269961833954,-9.847029685974121
1745662730.5039291,-0.004158602561801672,-0.018184587359428406,0.23909588158130646,0.6530880928039551,0.23768511414527893,-9.61750602722168
1745662730.5555904,-0.005249266512691975,-0.004552334081381559,0.23742365837097168,0.5190906524658203,0.396889865398407,-9.830617904663086
1745662730.5556602,-0.0120224105194211,-0.012314094230532646,0.23705589771270752,0.5057724714279175,0.1490578055381775,-9.95019245147705
1745662730.5557284,-0.006193714216351509,-0.013500215485692024,0.2362918108701706,0.4482320249080658,0.3581579923629761,-9.66092300415039
1745662730.5557678,-0.01057091448456049,-0.008188990876078606,0.23809444904327393,0.6024252772331238,0.2419300079345703,-9.637921333312988
1745662730.5828187,-0.015036346390843391,-0.014517493546009064,0.23950815200805664,0.48048168420791626,0.27209562063217163,-9.905302047729492
1745662730.5857828,-0.006063008215278387,-0.0060425917617976665,0.23878271877765656,0.5641939640045166,0.32023558020591736,-9.875365257263184
1745662730.5870624,-0.010080036707222462,-0.01720232516527176,0.2417302429676056,0.5517467260360718,0.24004140496253967,-9.691363334655762
1745662730.5894983,0.0040525333024561405,-0.006479846779257059,0.2423488348722458,0.32504695653915405,0.44487205147743225,-9.662899017333984
1745662730.593216,-0.008762276731431484,-0.011286869645118713,0.24269409477710724,0.633919358253479,0.19014468789100647,-9.79810905456543
1745662730.624943,-0.0016966316616162658,-0.019067121669650078,0.24377460777759552,0.37832731008529663,0.3549834191799164,-9.922626495361328
1745662730.6275382,-0.002534654224291444,-0.008716845884919167,0.24390394985675812,0.5842825770378113,0.21923920512199402,-9.766375541687012
1745662730.6293478,-0.013547668233513832,-0.013132276944816113,0.24429354071617126,0.36398178339004517,0.4711591601371765,-9.72270679473877
1745662730.6331272,-0.0011356659233570099,-0.018758390098810196,0.24282272160053253,0.5056365132331848,0.03594984859228134,-9.828815460205078
1745662730.6677845,-0.016484789550304413,-0.01641552522778511,0.24507364630699158,0.6454665660858154,0.36611151695251465,-9.740452766418457
1745662730.6702821,-0.01905745081603527,-0.01207173801958561,0.24495403468608856,0.3588882386684418,0.15276163816452026,-9.981237411499023
1745662730.6718252,-0.00911439023911953,-0.022718487307429314,0.24755127727985382,0.5572527647018433,0.2065623700618744,-9.67329216003418
1745662730.674223,-0.019888712093234062,-0.01412354689091444,0.24923670291900635,0.41580280661582947,0.34487923979759216,-9.68719482421875
1745662730.677078,-0.012944815680384636,-0.0183704923838377,0.25057491660118103,0.5418429970741272,0.21112656593322754,-9.858007431030273
1745662730.7140892,-0.01126580685377121,-0.023087453097105026,0.2506393492221832,0.3492845296859741,0.42725563049316406,-9.867591857910156
1745662730.7167222,-0.018622461706399918,-0.012041290290653706,0.253238320350647,0.4344400465488434,0.32116132974624634,-9.61217212677002
1745662730.7187471,-0.012170729227364063,-0.016322743147611618,0.2569085657596588,0.6568154096603394,0.14763367176055908,-9.658822059631348
1745662730.7533052,-0.02737550437450409,-0.024337314069271088,0.25328314304351807,0.3508124351501465,0.4686964154243469,-9.999876976013184
1745662730.75547,-0.003840720746666193,-0.01695092022418976,0.25696712732315063,0.5311602354049683,0.16904181241989136,-9.902666091918945
1745662730.7580564,-0.01775517500936985,-0.009313235990703106,0.2594505250453949,0.38112878799438477,0.472781240940094,-9.5492582321167
1745662730.759792,-0.013140019960701466,-0.022481819614768028,0.25759679079055786,0.41194209456443787,0.14708212018013,-9.619163513183594
1745662730.7628498,-0.018324900418519974,-0.026505792513489723,0.25892776250839233,0.6199973821640015,0.2682330310344696,-9.886445045471191
1745662730.7981365,-0.017817050218582153,-0.010972253046929836,0.25756508111953735,0.3278368413448334,0.28681978583335876,-10.086451530456543
1745662730.8005624,-0.01793542690575123,-0.017200371250510216,0.2605873942375183,0.5325149893760681,0.19745099544525146,-9.608859062194824
1745662730.801785,-0.02187628671526909,-0.022108521312475204,0.26133105158805847,0.43841251730918884,0.3322705626487732,-9.491090774536133
1745662730.8059196,-0.023986445739865303,-0.018092919141054153,0.2626563012599945,0.5917991399765015,0.12867414951324463,-9.940244674682617
1745662730.8408184,-0.025871355086565018,-0.021906932815909386,0.2628989815711975,0.45030468702316284,0.29281407594680786,-10.011127471923828
1745662730.8425167,-0.0264798104763031,-0.012979060411453247,0.2629569470882416,0.3832029402256012,0.27998098731040955,-9.701744079589844
1745662730.8464177,-0.04340187460184097,-0.017030108720064163,0.2790473401546478,0.27850547432899475,0.29256051778793335,-9.749252319335938
1745662730.887215,-0.026801947504281998,-0.009008772671222687,0.2776018977165222,0.6270351409912109,0.30999085307121277,-9.548017501831055
1745662730.8893068,-0.05133991688489914,-0.011263775639235973,0.27918845415115356,0.4303337037563324,0.37440580129623413,-9.924836158752441
1745662730.8934028,-0.02774980664253235,-0.012761187739670277,0.2777111530303955,0.39230746030807495,0.35434889793395996,-9.976741790771484
1745662730.896698,-0.03709349036216736,-0.009300691075623035,0.2773992419242859,0.5498250722885132,0.4028342664241791,-9.553628921508789
1745662730.9007342,-0.027397844940423965,-0.009216085076332092,0.2787695527076721,0.31688743829727173,0.39314666390419006,-9.685341835021973
1745662730.9272017,-0.03511974960565567,-0.014581209048628807,0.27928295731544495,0.5466183423995972,0.24671253561973572,-9.868856430053711
1745662730.9297965,-0.033094342797994614,-0.007189611904323101,0.27928417921066284,0.3542846441268921,0.4369926452636719,-9.84254264831543
1745662730.9328065,-0.03546131029725075,-0.0062938109040260315,0.2780234217643738,0.5013214349746704,0.23214301466941833,-9.653599739074707
1745662730.9342299,-0.04093244671821594,-0.012403314933180809,0.27839896082878113,0.4042385518550873,0.349719375371933,-9.61724853515625
1745662730.9687421,-0.03452833369374275,0.00036315590841695666,0.2796895205974579,0.4254162311553955,0.4201568067073822,-9.89461898803711
1745662730.9716797,-0.042588599026203156,-0.013157844543457031,0.27886343002319336,0.6241563558578491,0.2892719805240631,-9.820943832397461
1745662730.973624,-0.024524753913283348,-0.00714776199311018,0.2802146375179291,0.48015284538269043,0.39381182193756104,-9.773547172546387
1745662730.976037,-0.03752823919057846,-0.004090862814337015,0.2790262699127197,0.42303282022476196,0.428262323141098,-9.801579475402832
1745662730.9770045,-0.02699168026447296,-0.010957954451441765,0.2816852331161499,0.2671436667442322,0.40721821784973145,-9.768149375915527
1745662731.0142937,-0.017628679051995277,-0.0025759239215403795,0.28034695982933044,0.5833002328872681,0.3708351254463196,-9.533343315124512
1745662731.0174844,-0.03716680407524109,-0.005894375499337912,0.2795606255531311,0.3550748825073242,0.4441846013069153,-9.912099838256836
1745662731.0229876,-0.015953874215483665,-0.009919857606291771,0.2786480188369751,0.5075272917747498,0.40060386061668396,-9.93781852722168
1745662731.0255747,-0.03213237598538399,-0.004636507481336594,0.27738794684410095,0.47135981917381287,0.36884042620658875,-9.723119735717773
1745662731.0545352,-0.024729985743761063,-0.0018267849227413535,0.277242511510849,0.3862832188606262,0.33930307626724243,-9.622838020324707
1745662731.0564616,-0.0374402292072773,-0.012306248769164085,0.27883854508399963,0.6613936424255371,0.1777254343032837,-9.735387802124023
1745662731.0588298,-0.031966812908649445,-0.005237556528300047,0.2784307897090912,0.38443246483802795,0.3624346852302551,-10.009037971496582
1745662731.0620518,-0.033812396228313446,-0.002685076091438532,0.28128233551979065,0.4875600337982178,0.2794889211654663,-9.758925437927246
1745662731.063279,-0.040903009474277496,-0.009140927344560623,0.2769353985786438,0.5241069793701172,0.4345073699951172,-9.99504280090332
1745662731.1009436,-0.015287677757441998,0.003574203699827194,0.2787250876426697,0.44892168045043945,0.44255518913269043,-9.84957504272461
1745662731.101523,-0.029710158705711365,-0.0014336234889924526,0.2786834239959717,0.40534281730651855,0.40628498792648315,-9.57819938659668
1745662731.102769,-0.03586559370160103,-0.008701303042471409,0.27680879831314087,0.3991146683692932,0.2834758758544922,-9.659756660461426
1745662731.1043441,-0.020087437704205513,-0.00195117702241987,0.2807336449623108,0.6742798089981079,0.2787049412727356,-9.829554557800293
1745662731.1440032,-0.04235679656267166,-5.445312854135409e-05,0.2806674838066101,0.2986864447593689,0.43579110503196716,-10.026307106018066
1745662731.1449912,-0.027414852753281593,-0.0031151561997830868,0.2795436382293701,0.5650543570518494,0.2740958631038666,-9.640803337097168
1745662731.148354,-0.03561069071292877,-0.007789439056068659,0.2774040102958679,0.44431203603744507,0.4909418523311615,-9.586392402648926
1745662731.1491516,-0.02621079608798027,0.004433108028024435,0.27724942564964294,0.40468207001686096,0.47647953033447266,-9.900922775268555
1745662731.1860497,-0.03741532936692238,-0.009747067466378212,0.2742556929588318,0.7523903250694275,0.5560334920883179,-9.960542678833008
1745662731.1893554,-0.005191984586417675,-0.022737111896276474,0.26342687010765076,0.16765786707401276,0.9455578923225403,-9.992652893066406
1745662731.1927493,0.005036791320890188,0.00916600413620472,0.2548803687095642,0.26973551511764526,0.7917223572731018,-9.426347732543945
1745662731.1954584,0.01641957089304924,-0.013110456988215446,0.24519619345664978,0.14200155436992645,0.7125696539878845,-9.446331977844238
1745662731.227593,0.11427944898605347,0.0039242105558514595,0.0665256530046463,0.06855765730142593,0.4760451316833496,-9.4017333984375
1745662731.2293782,0.09444057941436768,-0.0034460362512618303,0.06518044322729111,0.2538447976112366,0.1450643688440323,-9.114241600036621
1745662731.2321231,0.10756649821996689,-0.005642573349177837,0.06381289660930634,0.269259512424469,0.24423232674598694,-9.943061828613281
1745662731.2339423,0.10730550438165665,0.00976900290697813,0.06011329963803291,0.5212197303771973,0.13315598666667938,-10.313464164733887
1745662731.2346096,0.08916854113340378,0.0038947027642279863,0.058999281376600266,0.4787020683288574,0.054188407957553864,-9.742798805236816
1745662731.2716148,0.10653271526098251,0.004014144651591778,0.05655213072896004,0.5227530598640442,0.3043282628059387,-9.279863357543945
1745662731.2733257,0.0711679682135582,-0.003457116661593318,0.05240821838378906,0.565591037273407,0.06463026255369186,-9.899972915649414
1745662731.2752588,0.08738808333873749,0.0057168686762452126,0.046489737927913666,0.43667855858802795,0.4484612047672272,-10.183650970458984
1745662731.2779083,0.0718550831079483,0.0044393278658390045,0.04242124408483505,0.5026432275772095,0.20045936107635498,-9.7155122756958
1745662731.3126285,0.09475798904895782,-0.00021437540999613702,0.03834972158074379,0.21315813064575195,0.6980209946632385,-9.355253219604492
1745662731.313466,0.1041613444685936,0.0037343159783631563,0.032015133649110794,0.4609473645687103,0.5761448740959167,-9.682039260864258
1745662731.3156416,0.12487658113241196,0.0006030777003616095,0.028963545337319374,0.37446698546409607,0.6299940943717957,-10.134279251098633
1745662731.3173556,0.14972233772277832,0.00746414577588439,0.025967475026845932,0.4804781973361969,0.603693425655365,-9.884363174438477
1745662731.3184257,0.150604709982872,-0.0012605148367583752,0.02393001690506935,0.4252454340457916,0.18858440220355988,-9.628274917602539
1745662731.3606,0.1708143800497055,0.004070119932293892,0.025004595518112183,0.2862068712711334,0.19596290588378906,-9.659894943237305
1745662731.361077,0.16036811470985413,-0.0018319472437724471,0.02377130649983883,0.5691226720809937,-0.07110382616519928,-9.888242721557617
1745662731.3641858,0.14547380805015564,0.0018802655395120382,0.023263229057192802,0.3552389442920685,0.0699196457862854,-10.003608703613281
1745662731.3658953,0.1412893533706665,-7.523093518102542e-05,0.017367370426654816,0.5659052729606628,-0.14850182831287384,-9.67308235168457
1745662731.4054415,0.11138448864221573,-0.0057556238025426865,0.011261210776865482,0.32552647590637207,0.09843230992555618,-9.600902557373047
1745662731.4087021,0.10602189600467682,0.00035002556978724897,0.006631138734519482,0.46037864685058594,-0.11895857751369476,-9.883665084838867
1745662731.4120636,0.08899161964654922,-0.005364834330976009,0.003066649194806814,0.5045610070228577,0.010578418150544167,-9.86365795135498
1745662731.4154248,0.0886145606637001,0.0037481761537492275,0.003356649074703455,0.310751736164093,0.025183528661727905,-9.826652526855469
1745662731.4433308,0.09048233926296234,-0.0019195139175280929,0.0038507275748997927,0.4716418385505676,0.07099421322345734,-9.524151802062988
1745662731.4496484,0.13900354504585266,0.005862982012331486,-0.005400275345891714,0.3378770351409912,0.5605300664901733,-9.780635833740234
1745662731.4515028,0.1654427945613861,0.006272577680647373,-0.007956380024552345,0.3527337908744812,0.3808215856552124,-9.609906196594238
1745662731.4536405,0.15348908305168152,-0.0011755598243325949,-0.01444863062351942,0.4441928267478943,0.28618180751800537,-9.680778503417969
1745662731.4890263,0.1705808937549591,0.004483071621507406,-0.016376670449972153,0.37927451729774475,0.1319415271282196,-9.999876022338867
1745662731.4956334,0.15585114061832428,-3.448827192187309e-05,-0.018973832949995995,0.5736066699028015,-0.13107718527317047,-9.830316543579102
1745662731.4967551,0.1481705605983734,0.0030606004875153303,-0.02285679057240486,0.40062737464904785,0.03517625108361244,-9.582293510437012
1745662731.498892,0.12961800396442413,-0.002794994506984949,-0.022412272170186043,0.5954877138137817,-0.36382168531417847,-9.742155075073242
1745662731.5002315,0.130584254860878,-0.005444605369120836,-0.02472676709294319,0.4699418544769287,0.04319973289966583,-9.94540786743164
1745662731.5297873,0.11944826692342758,0.0003454914258327335,-0.025543708354234695,0.43415841460227966,-0.14146775007247925,-9.974660873413086
1745662731.5383635,0.12332731485366821,-0.0061894366517663,-0.027660224586725235,0.31288355588912964,-0.06645969301462173,-9.6227388381958
1745662731.5384293,0.1276780366897583,-0.00014843707322143018,-0.030193377286195755,0.28338947892189026,0.17657087743282318,-9.516069412231445
1745662731.5384684,0.12211410701274872,-0.004214703105390072,-0.030675113201141357,0.41006335616111755,-0.1273675262928009,-9.889777183532715
1745662731.5735881,0.13359710574150085,-0.00031895123538561165,-0.035617269575595856,0.3585963845252991,0.2260342538356781,-9.896382331848145
1745662731.5767386,0.09908325225114822,-0.004039735533297062,-0.08694511651992798,0.3977118134498596,-0.3348422050476074,-9.785438537597656
1745662731.5798006,0.10196453332901001,-0.006550155580043793,-0.08864527195692062,0.49899178743362427,-0.0794314295053482,-9.4544677734375
1745662731.5835705,0.1082446426153183,0.007747233845293522,-0.08947163820266724,0.3581506907939911,-0.12381905317306519,-9.898589134216309
1745662731.5886736,0.094729945063591,-0.012945850379765034,-0.09126265347003937,0.5009579062461853,-0.25660213828086853,-9.887138366699219
1745662731.615679,0.10997092723846436,0.0009550126269459724,-0.09311777353286743,0.4627830386161804,-0.20255878567695618,-9.723756790161133
1745662731.618759,0.09369935095310211,-0.0010572705650702119,-0.09583050012588501,0.49151429533958435,-0.3533363938331604,-9.768134117126465
1745662731.622207,0.09917596727609634,-0.008775404654443264,-0.09529082477092743,0.2769279479980469,-0.22391147911548615,-9.784856796264648
1745662731.625275,0.08810967206954956,-0.0028651789762079716,-0.09460212290287018,0.5441253781318665,-0.4333297312259674,-9.64967155456543
1745662731.659549,0.08555227518081665,0.0017198242712765932,-0.0954018235206604,0.36216336488723755,-0.25602179765701294,-9.74041748046875
1745662731.6614418,0.09034544229507446,-0.005287040024995804,-0.09713703393936157,0.3307647109031677,-0.33009791374206543,-9.862569808959961
1745662731.6623065,0.0819782018661499,-0.005941944662481546,-0.09938296675682068,0.4404739439487457,-0.33858776092529297,-9.714919090270996
1745662731.6643274,0.09386394917964935,0.008327292278409004,-0.09855924546718597,0.3268091678619385,-0.29970303177833557,-9.75901985168457
1745662731.7044547,0.07623894512653351,-0.006133229471743107,-0.0973249077796936,0.39884862303733826,-0.45411205291748047,-9.773320198059082
1745662731.7045646,0.08058539032936096,-0.0025525824166834354,-0.09914697706699371,0.43605661392211914,-0.35770705342292786,-9.77003288269043
1745662731.7051287,0.07861553132534027,0.005256823264062405,-0.09948427975177765,0.4742209315299988,-0.4561311602592468,-9.807310104370117
1745662731.7084775,0.06118074804544449,-0.00317975552752614,-0.10112790763378143,0.364364892244339,-0.2649140954017639,-9.794000625610352
1745662731.7085607,0.07047373056411743,0.0010351322125643492,-0.10229746997356415,0.5707764029502869,-0.3769124150276184,-9.681035041809082
1745662731.7443843,0.053186167031526566,-0.0030909073539078236,-0.10382095724344254,0.3709575831890106,-0.23961345851421356,-9.894380569458008
1745662731.7466547,0.0724184513092041,0.0035057414788752794,-0.10607223212718964,0.3659115433692932,-0.2469750940799713,-9.892011642456055
1745662731.7505834,0.06341160833835602,-0.005784409586340189,-0.1059262752532959,0.5113992094993591,-0.19427010416984558,-9.580759048461914
1745662731.751937,0.07541442662477493,0.003463281784206629,-0.10639031231403351,0.30312371253967285,-0.20476636290550232,-9.695355415344238
1745662731.7870781,0.06602314859628677,-0.004158331081271172,-0.1070631742477417,0.40651363134384155,-0.3795856237411499,-9.840490341186523
1745662731.7895424,0.04994279146194458,0.0027120811864733696,-0.10936645418405533,0.369903564453125,-0.46774810552597046,-9.861785888671875
1745662731.7958927,0.061374515295028687,1.5193503713817336e-05,-0.11086387932300568,0.36043328046798706,-0.5607737302780151,-9.669509887695312
1745662731.7964554,0.04182272031903267,-0.0016200427198782563,-0.1096203476190567,0.5298875570297241,-0.4782447814941406,-9.637239456176758
1745662731.8312733,0.031021833419799805,0.0015509724617004395,-0.11086326837539673,0.3042747378349304,-0.3747033476829529,-10.031545639038086
1745662731.8349364,0.04670896753668785,0.0009036397677846253,-0.11041797697544098,0.5130027532577515,-0.4504387378692627,-9.831757545471191
1745662731.8369665,0.03014007769525051,-0.00046154059236869216,-0.1129830852150917,0.3312070965766907,-0.1886996030807495,-9.543728828430176
1745662731.8391452,0.04542605206370354,0.0029713609255850315,-0.11200561374425888,0.4599057137966156,-0.4277171194553375,-9.756975173950195
1745662731.8736627,0.03916921094059944,-0.004407376516610384,-0.11205366998910904,0.3528357148170471,-0.1964138299226761,-9.898083686828613
1745662731.8755128,0.05707019567489624,0.006806270685046911,-0.11269979178905487,0.352395236492157,-0.2702203392982483,-9.911259651184082
1745662731.8769684,0.049057912081480026,-0.00037414106191135943,-0.11236166954040527,0.3997098505496979,-0.2654329240322113,-9.69481086730957
1745662731.8787758,0.06477127224206924,-0.0033902283757925034,-0.11642777919769287,0.3766745924949646,-0.3043246865272522,-9.708136558532715
1745662731.9151957,0.052950453013181686,0.002031137701123953,-0.11456426233053207,0.49747222661972046,-0.36094290018081665,-9.818506240844727
1745662731.9173994,0.04292896389961243,-0.0023432571906596422,-0.11706242710351944,0.3117370009422302,-0.4765138626098633,-9.88757038116455
1745662731.921759,0.006820398382842541,-0.007429021410644054,-0.13056516647338867,0.4867461323738098,-0.6838421821594238,-9.737531661987305
1745662731.9247985,-0.0002001116081373766,-0.002829864388331771,-0.12852691113948822,0.45100921392440796,-0.340095192193985,-9.760492324829102
1745662731.958355,-0.009791565127670765,-0.004130735993385315,-0.1318936049938202,0.2502190172672272,-0.6225079298019409,-9.918986320495605
1745662731.9611783,-0.007818475365638733,-0.01131722517311573,-0.1304703652858734,0.6136406660079956,-0.517210841178894,-9.596823692321777
1745662731.9612622,-0.02578156255185604,-0.0017056919168680906,-0.12984126806259155,0.28161928057670593,-0.3477855622768402,-9.802660942077637
1745662731.9635267,-0.015780946239829063,-0.009619171731173992,-0.13156631588935852,0.5271252393722534,-0.5751286745071411,-9.8956298828125
1745662731.9646223,-0.014633595943450928,-0.006218837108463049,-0.12946274876594543,0.359640508890152,-0.15506215393543243,-9.720305442810059
1745662732.0056026,-0.021060526371002197,0.0004939127247780561,-0.1297224909067154,0.43152809143066406,-0.4651941657066345,-9.753520011901855
1745662732.008643,-0.008163210935890675,-0.010114661417901516,-0.1295788735151291,0.337067186832428,-0.18136461079120636,-9.71909236907959
1745662732.0117064,-0.009174518287181854,-0.00342465378344059,-0.13171763718128204,0.33164653182029724,-0.3479509949684143,-9.826942443847656
1745662732.014742,1.4911405742168427e-05,-0.006097054574638605,-0.13136997818946838,0.4933108389377594,-0.2622525691986084,-9.776423454284668
1745662732.044737,-0.001695463783107698,-0.004780477844178677,-0.1334315538406372,0.29850828647613525,-0.24138040840625763,-9.786458015441895
1745662732.0483549,0.00040288345189765096,-0.005842498037964106,-0.1335098296403885,0.5935643911361694,-0.4451521933078766,-9.665990829467773
1745662732.0484366,-0.008498585782945156,-0.006823308765888214,-0.13351698219776154,0.30818501114845276,-0.2989846169948578,-9.850040435791016
1745662732.0513487,-0.0023892377503216267,-0.00817292183637619,-0.13313181698322296,0.45317521691322327,-0.6530190706253052,-9.88635540008545
1745662732.0546935,-0.007961081340909004,-0.009475527331233025,-0.13241474330425262,0.41062602400779724,-0.2704421877861023,-9.718286514282227
1745662732.0910861,-0.01561612170189619,-0.006389829330146313,-0.1309358924627304,0.32870060205459595,-0.5462363958358765,-9.823029518127441
1745662732.091258,-0.014393186196684837,-0.01339083444327116,-0.1292007565498352,0.43965739011764526,-0.3830512464046478,-9.728498458862305
1745662732.0931983,-0.018011635169386864,-0.004796071443706751,-0.1317683756351471,0.2675553858280182,-0.34244078397750854,-9.807524681091309
1745662732.0943205,-0.017069049179553986,-0.009296847507357597,-0.13177873194217682,0.4601457715034485,-0.5240775346755981,-9.78424072265625
1745662732.131128,-0.020488981157541275,-0.012344082817435265,-0.13342222571372986,0.27944236993789673,-0.205844908952713,-9.735574722290039
1745662732.1350095,-0.019329046830534935,-0.006115928757935762,-0.13171596825122833,0.522685706615448,-0.5698282718658447,-9.80396842956543
1745662732.138443,-0.01997842639684677,-0.012212869711220264,-0.13074856996536255,0.3484722971916199,-0.233255073428154,-9.785819053649902
1745662732.1417062,-0.010640306398272514,-0.010492401197552681,-0.13292136788368225,0.547805905342102,-0.2810468375682831,-9.676596641540527
1745662732.1435626,-0.018996598199009895,-0.006612353026866913,-0.13573066890239716,0.2600255608558655,-0.16249042749404907,-9.777198791503906
1745662732.1756845,-0.00558854267001152,-0.009649069979786873,-0.13393886387348175,0.46596795320510864,-0.42875146865844727,-9.795019149780273
1745662732.1769881,-0.013860289938747883,-0.009795496240258217,-0.13561949133872986,0.2822052836418152,-0.1486232876777649,-9.68553352355957
1745662732.1800492,-0.00327723054215312,-0.0034120571799576283,-0.13353626430034637,0.40844017267227173,-0.5750418901443481,-9.841501235961914
1745662732.1822972,-0.007114923093467951,-0.014561334624886513,-0.13548395037651062,0.4001533091068268,-0.21813824772834778,-9.761320114135742
1745662732.2177286,-0.0148695707321167,-0.007378753274679184,-0.13465674221515656,0.3512364327907562,-0.5158098340034485,-9.879439353942871
1745662732.2198138,-0.01067054457962513,-0.009852178394794464,-0.1321410983800888,0.49064549803733826,-0.44146519899368286,-9.763602256774902
1745662732.221927,-0.020799629390239716,-0.00954472180455923,-0.13419435918331146,0.2532607316970825,-0.3331339955329895,-9.723108291625977
1745662732.2259414,-0.023598993197083473,-0.008820709772408009,-0.13473737239837646,0.5066327452659607,-0.6159533262252808,-9.757561683654785
1745662732.2599874,-0.03264685720205307,-0.012016651220619678,-0.1341714709997177,0.31113365292549133,-0.22316761314868927,-9.791574478149414
1745662732.2616,-0.027521755546331406,-0.007853220216929913,-0.13584768772125244,0.48181748390197754,-0.5050767064094543,-9.87519645690918
1745662732.2642028,-0.0395304337143898,-0.01288177352398634,-0.13725358247756958,0.404031366109848,-0.2100820243358612,-9.725807189941406
1745662732.271779,-0.0194105114787817,-0.0030137517023831606,-0.1482160985469818,0.2741255760192871,-0.2991354465484619,-9.798966407775879
1745662732.3039668,-0.014724113047122955,-0.01143031008541584,-0.14921677112579346,0.4896065592765808,-0.17215897142887115,-9.520030975341797
1745662732.3061755,-0.023404622450470924,-0.010739426128566265,-0.14907512068748474,0.30582767724990845,-0.19769394397735596,-9.835676193237305
1745662732.3080375,0.0007339526782743633,-0.004033333621919155,-0.15096300840377808,0.4512447416782379,-0.13957643508911133,-9.901678085327148
1745662732.309714,-0.017997998744249344,-0.007103589829057455,-0.1492035835981369,0.3112505078315735,-0.1854199916124344,-9.75013542175293
1745662732.312149,0.01201388705521822,-0.005539631936699152,-0.15031178295612335,0.33592477440834045,-0.2692827582359314,-9.681357383728027
1745662732.3473125,-0.0060204132460057735,-0.012812374159693718,-0.1500084400177002,0.37637537717819214,-0.2543124556541443,-9.751570701599121
1745662732.3498333,0.013718374073505402,-0.0034993370063602924,-0.1493445336818695,0.29738885164260864,-0.30645376443862915,-9.94344425201416
1745662732.3509946,-0.003263800637796521,-0.009100493043661118,-0.15006573498249054,0.44788020849227905,-0.33417901396751404,-9.692936897277832
1745662732.3539581,0.0019932957366108894,-0.009060341864824295,-0.15074990689754486,0.31812113523483276,-0.34727007150650024,-9.666370391845703
1745662732.391591,-0.004336060024797916,-0.005159346852451563,-0.14996138215065002,0.47931724786758423,-0.4078865945339203,-9.801599502563477
1745662732.391672,-0.01691284030675888,-0.009876856580376625,-0.15108641982078552,0.2744877338409424,-0.40090999007225037,-9.922276496887207
1745662732.3922558,-0.007175003178417683,-0.0019510950660333037,-0.1510007679462433,0.3859807848930359,-0.3377743661403656,-9.699378967285156
1745662732.3972135,-0.03273926302790642,-0.012002278119325638,-0.15039409697055817,0.3741818368434906,-0.40821465849876404,-9.692015647888184
1745662732.4013803,-0.007939797826111317,-0.005497314967215061,-0.15019570291042328,0.30950072407722473,-0.19816231727600098,-9.7792329788208
1745662732.4340773,-0.029509346932172775,-0.007777196355164051,-0.15117260813713074,0.45973196625709534,-0.2411617934703827,-9.878262519836426
1745662732.437615,-0.007146239280700684,-0.0059473514556884766,-0.1516125500202179,0.2764975130558014,-0.20043957233428955,-9.860237121582031
1745662732.439862,-0.003096579806879163,-0.007248323410749435,-0.15302088856697083,0.44880741834640503,-0.1800464391708374,-9.60175609588623
1745662732.4421766,-0.008045135997235775,-0.01161867193877697,-0.15368691086769104,0.31115788221359253,-0.22333040833473206,-9.727643966674805
1745662732.4759445,0.009034184738993645,-0.002326549030840397,-0.15292081236839294,0.38014912605285645,-0.14738911390304565,-9.82006549835205
1745662732.4783711,-0.007047065533697605,-0.010661325417459011,-0.15289852023124695,0.37375375628471375,-0.283525675535202,-9.80842399597168
1745662732.4928994,0.014653277583420277,-0.0024399273097515106,-0.15174908936023712,0.3648802936077118,-0.19453835487365723,-9.802921295166016
1745662732.4929636,-0.000183669661055319,-0.003804270178079605,-0.1570882499217987,0.36609211564064026,-0.3999937176704407,-9.85500717163086
1745662732.5216649,-0.020482158288359642,-0.010355406440794468,-0.1596621572971344,0.26762694120407104,-0.5028454661369324,-9.943343162536621
1745662732.5229023,-5.2343726565595716e-05,-0.0013065645471215248,-0.15617719292640686,0.28835850954055786,-0.3311922550201416,-9.551202774047852
1745662732.5267544,-0.03533210605382919,-0.0013190663885325193,-0.15656878054141998,0.48331499099731445,-0.5698603391647339,-9.599517822265625
1745662732.531473,-0.009444499388337135,-0.012706687673926353,-0.15197822451591492,0.4624810218811035,-0.174621120095253,-9.970447540283203
1745662732.5632267,-0.029793310910463333,-0.0001345506898360327,-0.15390603244304657,0.4968326687812805,-0.31807082891464233,-10.089004516601562
1745662732.565549,-0.00348149286583066,0.002111175563186407,-0.1545659601688385,0.3172551989555359,-0.0500514879822731,-9.597185134887695
1745662732.569319,-0.011147943325340748,-0.008858932182192802,-0.1567850410938263,0.5038829445838928,0.04727846011519432,-9.388537406921387
1745662732.5706437,0.0005975090316496789,-0.015101596713066101,-0.15927626192569733,0.41588670015335083,-0.07825328409671783,-10.0216064453125
1745662732.5728192,0.009389751590788364,0.00349404220469296,-0.1593465954065323,0.2792244553565979,0.02051941119134426,-10.154045104980469
1745662732.6061265,0.01290246844291687,-0.00841843243688345,-0.16112038493156433,0.392737478017807,-0.23021845519542694,-9.555609703063965
1745662732.6061683,0.0334024615585804,-0.008296716026961803,-0.1606253683567047,0.39139753580093384,0.014171754941344261,-9.447795867919922
1745662732.6072516,0.023641590029001236,-0.011726881377398968,-0.16028037667274475,0.47352665662765503,-0.3559650480747223,-10.076395988464355
1745662732.6092873,0.04119206219911575,-0.006154070142656565,-0.15764077007770538,0.31656673550605774,-0.32333904504776,-10.001432418823242
1745662732.6633039,0.02526010200381279,-0.005942059680819511,-0.16264669597148895,0.49637991189956665,-0.34071919322013855,-9.646639823913574
1745662732.663394,0.02461482584476471,-0.006074384320527315,-0.16406938433647156,0.30316653847694397,-0.1969021111726761,-9.93409538269043
1745662732.6634498,0.03129378706216812,-0.0050695836544036865,-0.1637374609708786,0.2719775438308716,-0.45144790410995483,-9.948712348937988
1745662732.6635122,0.020905235782265663,-0.010271020233631134,-0.16229219734668732,0.407122939825058,-0.3083806037902832,-9.603668212890625
1745662732.6920862,0.020970096811652184,-0.0017934985226020217,-0.1632305085659027,0.319752961397171,-0.46852707862854004,-9.712618827819824
1745662732.6970973,0.013323959894478321,-0.010553230531513691,-0.15967950224876404,0.4710366725921631,-0.43438130617141724,-9.849224090576172
1745662732.699781,0.004395739641040564,-0.004892827942967415,-0.15941879153251648,0.3000175356864929,-0.3842923045158386,-9.878738403320312
1745662732.7042546,0.007049369625747204,-0.00471400236710906,-0.1624864786863327,0.4013051986694336,-0.473076730966568,-9.682393074035645
1745662732.7084942,-0.008039905689656734,-0.009302339516580105,-0.16127502918243408,0.2892761826515198,-0.21738199889659882,-9.645332336425781
1745662732.7368307,0.00400379067286849,-0.004319791682064533,-0.16176578402519226,0.45490798354148865,-0.3036399483680725,-9.832916259765625
1745662732.7405453,-0.011614510789513588,-0.00952235795557499,-0.16355744004249573,0.39129215478897095,-0.1422024816274643,-9.926172256469727
1745662732.7425628,0.01612146757543087,-0.0024558347649872303,-0.1651863306760788,0.2800962030887604,-0.19914893805980682,-9.743382453918457
1745662732.7447653,0.00428968807682395,-0.009082579985260963,-0.16510817408561707,0.4784088134765625,-0.10987770557403564,-9.503824234008789
1745662732.777614,0.019238460808992386,-0.004696332849562168,-0.16410529613494873,0.31316643953323364,-0.21974003314971924,-9.803935050964355
1745662732.7796452,0.02575603686273098,-0.003190212417393923,-0.16471120715141296,0.4017382562160492,-0.15651583671569824,-9.910497665405273
1745662732.7806604,0.02380504459142685,-0.005153159610927105,-0.16414932906627655,0.28075557947158813,-0.20893816649913788,-9.857300758361816
1745662732.7836487,0.05023423954844475,-0.0014916083309799433,-0.16364578902721405,0.42244428396224976,-0.21943986415863037,-9.645711898803711
1745662732.8209062,0.02655312977731228,-0.00971817784011364,-0.16601324081420898,0.3425055146217346,-0.22437243163585663,-9.766410827636719
1745662732.8219988,0.04738964885473251,-0.0039177872240543365,-0.16519077122211456,0.3499010503292084,-0.38157427310943604,-9.876104354858398
1745662732.8234608,0.019971024245023727,-0.005114091094583273,-0.16746041178703308,0.45091357827186584,-0.4013095796108246,-9.713687896728516
1745662732.8275194,0.024903351441025734,-0.0039593614637851715,-0.16734230518341064,0.3077647089958191,-0.49041175842285156,-9.71739673614502
1745662732.8631341,0.02986760437488556,-8.954350050771609e-05,-0.16855941712856293,0.27193930745124817,-0.03526787832379341,-9.776846885681152
1745662732.8663297,0.00564146414399147,-0.0034553625155240297,-0.1682797074317932,0.45792919397354126,-0.26366904377937317,-9.615361213684082
1745662732.8686762,0.029423018917441368,-0.00857149250805378,-0.16641266644001007,0.3039605915546417,-0.19752857089042664,-9.75895881652832
1745662732.8723862,0.020920762792229652,-0.0046579972840845585,-0.16821090877056122,0.4744807183742523,-0.2838488519191742,-9.929327011108398
1745662732.9062266,0.02414541505277157,-0.004454717971384525,-0.17022763192653656,0.33717861771583557,-0.27583521604537964,-9.930306434631348
1745662732.9111097,0.035543542355298996,-0.005855121184140444,-0.16773587465286255,0.42970284819602966,-0.23474939167499542,-9.54747486114502
1745662732.9123278,0.016397060826420784,-0.007122552487999201,-0.16874681413173676,0.43411144614219666,-0.3435228765010834,-9.624550819396973
1745662732.915731,0.026832211762666702,-0.0036526464391499758,-0.16965749859809875,0.20713135600090027,-0.2674466669559479,-9.991943359375
1745662732.9169168,0.015475397929549217,-0.007453566882759333,-0.16929306089878082,0.4668630063533783,-0.4998989999294281,-9.79198932647705
1745662732.9512355,0.026784932240843773,0.001231136149726808,-0.1694132536649704,0.21345046162605286,-0.17802578210830688,-9.689173698425293
1745662732.952354,0.012026838958263397,-0.007846486754715443,-0.16937962174415588,0.4249095916748047,-0.47727060317993164,-9.75271224975586
1745662732.9545836,0.015956256538629532,-0.011264090426266193,-0.1669965237379074,0.37074896693229675,-0.2880503833293915,-9.902894973754883
1745662732.961049,0.015237510204315186,0.002045106142759323,-0.1707027703523636,0.3824287950992584,-0.38013213872909546,-9.866127014160156
1745662732.9983332,0.001957408618181944,-0.009210903197526932,-0.16973407566547394,0.34435829520225525,-0.4121691584587097,-9.66096019744873
1745662733.0020373,-0.006411024834960699,-0.00873827189207077,-0.175391286611557,0.36902421712875366,-0.28186026215553284,-9.788985252380371
1745662733.0043318,-0.0027583339251577854,-0.0009825080633163452,-0.17532098293304443,0.25789666175842285,-0.4275571405887604,-9.976096153259277
1745662733.0087478,-0.004897616803646088,-0.009904066100716591,-0.17661207914352417,0.43258196115493774,-0.3427223265171051,-9.650165557861328
1745662733.033959,-0.010267676785588264,-0.00558857386931777,-0.17488941550254822,0.26788851618766785,-0.24300000071525574,-9.681401252746582
1745662733.0385494,-0.00552093330770731,-0.004179052077233791,-0.17684748768806458,0.4905738830566406,-0.3993397653102875,-9.873903274536133
1745662733.0400457,-0.011434025131165981,-0.009602941572666168,-0.17731072008609772,0.3092997670173645,-0.1716396063566208,-9.8441743850708
1745662733.0430489,0.0022962738294154406,-0.0010861757909879088,-0.17711381614208221,0.4434325098991394,-0.32572516798973083,-9.724640846252441
1745662733.0458813,-0.00866007525473833,-0.009840242564678192,-0.17813615500926971,0.34385591745376587,-0.17019228637218475,-9.674299240112305
1745662733.07888,0.008389262482523918,-0.0020881076343357563,-0.17604444921016693,0.41388100385665894,-0.31262415647506714,-9.769296646118164
1745662733.080629,-0.007611280772835016,-0.008135540410876274,-0.1778745800256729,0.3835527002811432,-0.17720486223697662,-9.90699291229248
1745662733.0843797,0.012902717106044292,-0.00497980834916234,-0.178352490067482,0.30447861552238464,-0.28560465574264526,-9.876341819763184
1745662733.086946,0.014078915119171143,-0.005540539976209402,-0.17653563618659973,0.43607258796691895,-0.184011310338974,-9.633974075317383
1745662733.1226618,0.006995150353759527,-0.008905832655727863,-0.1777167022228241,0.24010725319385529,-0.3009124994277954,-9.816499710083008
1745662733.124021,0.02151354029774666,-0.005545159336179495,-0.1781100332736969,0.443821519613266,-0.3178696036338806,-9.71512222290039
1745662733.127538,-0.007110852748155594,-0.005937770940363407,-0.17940139770507812,0.304448664188385,-0.3676132559776306,-9.77910041809082
1745662733.130999,0.01708267070353031,-0.00254525663331151,-0.17711946368217468,0.3702344298362732,-0.4377833306789398,-9.79376220703125
1745662733.1344647,-0.008152298629283905,-0.00700752530246973,-0.1765134632587433,0.44160395860671997,-0.3398882746696472,-9.753424644470215
1745662733.165789,-0.00021695150644518435,-0.006032419390976429,-0.17841428518295288,0.2902975380420685,-0.43826955556869507,-9.906846046447754
1745662733.1682158,-0.007277630269527435,-0.00791998766362667,-0.17861565947532654,0.4746333658695221,-0.4025111198425293,-9.700439453125
1745662733.1714246,-0.013219575397670269,-0.0018137292936444283,-0.17535783350467682,0.2710384726524353,-0.265228807926178,-9.704351425170898
1745662733.1741688,-0.007703669369220734,-0.005115223117172718,-0.17658431828022003,0.42267709970474243,-0.3885764181613922,-9.804412841796875
1745662733.2088845,-0.015102979727089405,-0.007877426221966743,-0.17821678519248962,0.3455587923526764,-0.2008872777223587,-9.821512222290039
1745662733.209549,0.007206295616924763,-0.0036224655341356993,-0.17733195424079895,0.26782217621803284,-0.27547797560691833,-9.724858283996582
1745662733.211596,0.01697070337831974,-0.004946346394717693,-0.1779634654521942,0.39016079902648926,-0.36516183614730835,-9.8316011428833
1745662733.2120607,0.003994937986135483,-0.003922201693058014,-0.17865264415740967,0.36952051520347595,-0.37870922684669495,-9.785619735717773
1745662733.2503037,0.016255564987659454,0.00022558793716598302,-0.1765470802783966,0.30603352189064026,-0.37499332427978516,-9.839449882507324
1745662733.2521503,-0.004730629734694958,-0.011619903147220612,-0.17737695574760437,0.42144912481307983,-0.3957368731498718,-9.681167602539062
1745662733.2533944,0.007486206479370594,-0.0028721443377435207,-0.17771348357200623,0.35850054025650024,-0.32825034856796265,-9.826787948608398
1745662733.2566311,-0.005808842368423939,-0.002995384158566594,-0.17558653652668,0.38048529624938965,-0.37342503666877747,-9.81560230255127
1745662733.2609327,-0.0015636663883924484,-0.007216295693069696,-0.17791008949279785,0.25401967763900757,-0.3556661307811737,-9.725041389465332
1745662733.2950106,0.0022205279674381018,-0.0027657272294163704,-0.17595036327838898,0.49182090163230896,-0.29843178391456604,-9.601068496704102
1745662733.2965915,-0.01097134593874216,-0.00543373916298151,-0.1743106096982956,0.2995634973049164,-0.28864815831184387,-9.952909469604492
1745662733.301429,0.012751048430800438,-0.004717911593616009,-0.17663276195526123,0.392615407705307,-0.18977351486682892,-9.842977523803711
1745662733.3046694,-0.00938479881733656,-0.004063656087964773,-0.17718657851219177,0.44314974546432495,-0.27499574422836304,-9.703972816467285
1745662733.336929,0.0176960788667202,-0.004212415777146816,-0.17782101035118103,0.21257205307483673,-0.16868284344673157,-9.752767562866211
1745662733.3391285,0.003098923247307539,-0.010297542437911034,-0.17878976464271545,0.47866004705429077,-0.2661272883415222,-9.661091804504395
1745662733.3414612,0.00042922692955471575,-0.009842362254858017,-0.17858894169330597,0.43416541814804077,-0.2548304498195648,-9.805989265441895
1745662733.3437345,0.011417270638048649,-0.008762335404753685,-0.17811362445354462,0.2669311761856079,-0.2184915989637375,-9.770830154418945
1745662733.388307,0.014598900452256203,-0.008116841316223145,-0.17850813269615173,0.4603506624698639,-0.23354759812355042,-9.70039176940918
1745662733.3936212,0.0057453978806734085,-0.0076776728965342045,-0.1794213056564331,0.2989984452724457,-0.251950204372406,-9.800186157226562
1745662733.3937352,0.01904348097741604,-0.004573702812194824,-0.1782059222459793,0.37364462018013,-0.23572902381420135,-9.814796447753906
1745662733.3938286,0.005772418342530727,-0.010073134675621986,-0.18076947331428528,0.3395492434501648,-0.2873525321483612,-9.820014953613281
1745662733.393896,0.029379824176430702,-0.0037524744402617216,-0.18115778267383575,0.3032119572162628,-0.2257879674434662,-9.770339965820312
1745662733.4274123,0.008783569559454918,-0.01246956828981638,-0.18018150329589844,0.39422178268432617,-0.36891260743141174,-9.757421493530273
1745662733.4274542,0.02686343714594841,-0.00445039477199316,-0.17931747436523438,0.26027488708496094,-0.23789986968040466,-9.77511215209961
1745662733.4300694,0.004596757236868143,-0.007923273369669914,-0.1799430549144745,0.40100526809692383,-0.4656067490577698,-9.730031967163086
1745662733.4316506,0.015891792252659798,-0.006224266719073057,-0.17858801782131195,0.2736855149269104,-0.3271265923976898,-9.740106582641602
1745662733.4655948,0.006464292295277119,-0.004840281791985035,-0.17850938439369202,0.4049312472343445,-0.3831549286842346,-9.840109825134277
1745662733.470536,-0.0016283041331917048,-0.007638154085725546,-0.1788357049226761,0.2799112796783447,-0.3979904055595398,-9.868623733520508
1745662733.4858782,0.009796841070055962,-0.003534829942509532,-0.17967775464057922,0.38312357664108276,-0.22734470665454865,-9.66845989227295
1745662733.4859529,-0.0063466159626841545,-0.008033202961087227,-0.17667017877101898,0.41874513030052185,-0.4226497709751129,-9.702376365661621
1745662733.5070925,0.01293337345123291,-0.006391627248376608,-0.1787007600069046,0.3063417673110962,-0.08251403272151947,-9.809965133666992
1745662733.509901,0.0010864498326554894,-0.007545544300228357,-0.17957401275634766,0.4643731117248535,-0.34192365407943726,-9.905515670776367
1745662733.5127802,0.01839728280901909,-0.001624019118025899,-0.17734381556510925,0.2324993908405304,-0.045075565576553345,-9.699459075927734
1745662733.5128317,0.007834070362150669,-0.00538122933357954,-0.17902341485023499,0.49658966064453125,-0.33129727840423584,-9.695337295532227
1745662733.516701,0.024960841983556747,-0.006951032672077417,-0.17985965311527252,0.25137650966644287,-0.16919131577014923,-9.900433540344238
1745662733.5525362,0.022999605163931847,-0.0015071231173351407,-0.1791168451309204,0.3417608141899109,-0.30796629190444946,-9.858423233032227
1745662733.5560212,0.008464534766972065,-0.005667598452419043,-0.1796218901872635,0.33340030908584595,-0.22864408791065216,-9.810115814208984
1745662733.5578742,0.009575027041137218,0.00048476626398041844,-0.17904970049858093,0.3273608088493347,-0.30573374032974243,-9.70553970336914
1745662733.5596352,0.01018238440155983,-0.00506472447887063,-0.17818525433540344,0.4367484152317047,-0.3213839530944824,-9.715449333190918
1745662733.5955305,0.009313221089541912,0.00042434100760146976,-0.17726922035217285,0.23000212013721466,-0.168460413813591,-9.883143424987793
1745662733.5992343,0.020323021337389946,-0.0018140983302146196,-0.17946869134902954,0.4979170858860016,-0.4189462661743164,-9.771693229675293
1745662733.6019976,0.012035833671689034,-0.0015471485676243901,-0.1784212291240692,0.25956159830093384,-0.003845229744911194,-9.782047271728516
1745662733.6055744,0.026939738541841507,-0.0011231934186071157,-0.178798109292984,0.3820468783378601,-0.4507710039615631,-9.84064769744873
1745662733.651602,0.029282545670866966,-0.00478061567991972,-0.17881663143634796,0.37818965315818787,-0.07747669517993927,-9.653067588806152
1745662733.651687,0.020391050726175308,0.005346641410142183,-0.1799440085887909,0.38023000955581665,-0.3861331343650818,-9.815208435058594
1745662733.651757,0.031211521476507187,-0.00308025348931551,-0.1786198616027832,0.367586612701416,-0.2557383179664612,-9.797130584716797
1745662733.651809,0.02343200147151947,0.001963221002370119,-0.18133993446826935,0.33686619997024536,-0.2787783741950989,-9.798395156860352
1745662733.6518576,0.02540397085249424,0.0002882599364966154,-0.1791783571243286,0.4444427490234375,-0.4448091387748718,-9.836372375488281
1745662733.68246,0.026564722880721092,-0.0025499809999018908,-0.18113404512405396,0.25340837240219116,-0.25052040815353394,-9.792407035827637
1745662733.6839077,0.02616986073553562,0.0023047977592796087,-0.17971912026405334,0.452953964471817,-0.418919175863266,-9.714311599731445
1745662733.689645,0.030651533976197243,0.00371430441737175,-0.17937937378883362,0.22820143401622772,-0.19016917049884796,-9.881457328796387
1745662733.7246346,0.030500194057822227,-0.0069655766710639,-0.17975983023643494,0.45464277267456055,-0.4090993404388428,-9.699310302734375
1745662733.7262967,0.024244651198387146,-0.001570763299241662,-0.17990493774414062,0.40189680457115173,-0.289092481136322,-9.69932746887207
1745662733.7296958,0.028052261099219322,-0.0003596587630454451,-0.18079373240470886,0.3373752236366272,-0.4519140124320984,-9.908059120178223
1745662733.731848,0.02681908570230007,-0.008627974428236485,-0.1794825792312622,0.40549236536026,-0.42576202750205994,-9.822683334350586
1745662733.732376,0.020948681980371475,0.0009267317946068943,-0.1789582520723343,0.29998332262039185,-0.34180891513824463,-9.725726127624512
1745662733.7665145,0.014225129969418049,-0.00775125902146101,-0.17852088809013367,0.45551878213882446,-0.5399827361106873,-9.70924186706543
1745662733.770353,0.020648567005991936,-0.006531668361276388,-0.17820188403129578,0.28008154034614563,-0.27506959438323975,-9.78868579864502
1745662733.7727497,0.009649872779846191,-0.001236341311596334,-0.17852267622947693,0.4689110815525055,-0.5076088905334473,-9.83588695526123
1745662733.7761815,0.014932245016098022,-0.0074392580427229404,-0.1786298304796219,0.2619766294956207,-0.281532347202301,-9.777083396911621
1745662733.8121595,0.01045665331184864,-0.0050896755419671535,-0.17715807259082794,0.4205588400363922,-0.4176826477050781,-9.702750205993652
1745662733.816274,0.008493218570947647,-0.008717109449207783,-0.1780969649553299,0.45789605379104614,-0.39536935091018677,-9.797038078308105
1745662733.817853,0.007464849855750799,-0.0043114409781992435,-0.17793183028697968,0.27305567264556885,-0.24790291488170624,-9.917190551757812
1745662733.8203459,0.0144124124199152,-0.008909927681088448,-0.17872019112110138,0.48043036460876465,-0.4922870695590973,-9.678499221801758
1745662733.8521426,0.010760188102722168,-0.005897362716495991,-0.17927305400371552,0.2979293763637543,-0.08124107122421265,-9.583761215209961
1745662733.853721,0.008987454697489738,-0.0058401585556566715,-0.17850063741207123,0.4661025106906891,-0.5287556052207947,-9.866456985473633
1745662733.856319,0.016436006873846054,-0.010591274127364159,-0.18061800301074982,0.2944582402706146,-0.08502019941806793,-9.86025619506836
1745662733.8585541,0.014074224047362804,-0.0006960266036912799,-0.17794708907604218,0.4237523078918457,-0.41693204641342163,-9.80948257446289
1745662733.8617153,0.024409795179963112,-0.012871992774307728,-0.18109269440174103,0.3014470636844635,-0.2043176144361496,-9.694971084594727
1745662733.8981044,0.02091587707400322,-0.008532503619790077,-0.17761817574501038,0.37577757239341736,-0.38787180185317993,-9.699222564697266
1745662733.9013932,0.01918540894985199,-0.006790889892727137,-0.1775900423526764,0.45201191306114197,-0.37315258383750916,-9.81739616394043
1745662733.9063828,0.009092273190617561,-0.006372551433742046,-0.17829127609729767,0.43189114332199097,-0.3472810685634613,-9.859273910522461
1745662733.9094205,1.5395507944049314e-05,-0.011808900162577629,-0.17672859132289886,0.32381048798561096,-0.22337648272514343,-9.67169189453125
1745662733.9416502,0.019681299105286598,-0.008263705298304558,-0.17562317848205566,0.43934887647628784,-0.40597397089004517,-9.747337341308594
1745662733.9423952,0.0050958204083144665,-0.014150840230286121,-0.17740805447101593,0.28787750005722046,-0.2772309482097626,-9.894366264343262
1745662733.944337,0.02909984067082405,-0.005301106721162796,-0.17660056054592133,0.35505738854408264,-0.32857686281204224,-9.75541877746582
1745662733.9457736,0.007164761424064636,-0.01203993521630764,-0.1760154813528061,0.41205888986587524,-0.255850613117218,-9.62145709991455
1745662733.9842057,0.02095998451113701,-0.007664503995329142,-0.17763374745845795,0.2436433732509613,-0.4254087507724762,-9.779256820678711
1745662733.984771,0.013551697134971619,-0.012769150547683239,-0.1774253398180008,0.46235281229019165,-0.32170814275741577,-9.750279426574707
1745662733.987324,0.009871192276477814,-0.010157322511076927,-0.17696526646614075,0.20358948409557343,-0.4460360109806061,-9.957876205444336
1745662733.9898841,0.02298092469573021,-0.006681645754724741,-0.17646867036819458,0.4190025329589844,-0.3736284673213959,-9.682035446166992
1745662734.023851,-0.0046605938114225864,-0.015275007113814354,-0.17668800055980682,0.35067665576934814,-0.4149165749549866,-9.709272384643555
1745662734.026102,0.01872476190328598,-0.009633664041757584,-0.1756567656993866,0.35216546058654785,-0.42263007164001465,-9.878741264343262
1745662734.0286658,-0.003553969319909811,-0.009493591263890266,-0.17594455182552338,0.39786291122436523,-0.3943410813808441,-9.760564804077148
1745662734.0301676,0.008625026792287827,-0.009269489906728268,-0.17463740706443787,0.2256680727005005,-0.32965710759162903,-9.718050956726074
1745662734.0314808,-0.0006650223513133824,-0.012292066588997841,-0.1748020350933075,0.4803582727909088,-0.4314640164375305,-9.709264755249023
1745662734.0690084,0.015945615246891975,-0.006909976247698069,-0.17474448680877686,0.3312137722969055,-0.2994801998138428,-9.682260513305664
1745662734.072171,0.0017760045593604445,-0.00922490656375885,-0.1753970980644226,0.2325350046157837,-0.4142283797264099,-9.764006614685059
1745662734.0738506,0.008692748844623566,-0.009228185750544071,-0.17542913556098938,0.49986210465431213,-0.5113892555236816,-9.830103874206543
1745662734.0753636,-0.0013958351919427514,-0.0030560686718672514,-0.17561841011047363,0.20438246428966522,-0.2738056182861328,-9.841204643249512
1745662734.1121118,0.003418968291953206,-0.006915058940649033,-0.17265796661376953,0.4051646590232849,-0.5173059701919556,-9.71711254119873
1745662734.1135843,-0.006696742959320545,-0.011415228247642517,-0.17421293258666992,0.36109498143196106,-0.254432737827301,-9.691950798034668
1745662734.1154273,0.004072866402566433,0.0012663013767451048,-0.1735869199037552,0.31169480085372925,-0.39622193574905396,-9.905202865600586
1745662734.1155107,-0.008048254996538162,-0.009706498123705387,-0.17349767684936523,0.3941892087459564,-0.2960027754306793,-9.826003074645996
1745662734.1175356,0.00823200959712267,-0.0033619001042097807,-0.17257168889045715,0.2285175770521164,-0.2784494459629059,-9.699908256530762
1745662734.1555817,0.0038539834786206484,-0.007897037081420422,-0.1743585765361786,0.4814016819000244,-0.30512043833732605,-9.638047218322754
1745662734.156277,0.0011177553096786141,-0.0039729769341647625,-0.17493735253810883,0.2339225560426712,-0.2517348527908325,-9.817068099975586
1745662734.1589773,0.010959761217236519,-0.0031513324938714504,-0.1743285357952118,0.42498499155044556,-0.32296842336654663,-9.816978454589844
1745662734.160146,1.843567042669747e-05,-0.007278929464519024,-0.1751590073108673,0.34268057346343994,-0.29023975133895874,-9.826197624206543
1745662734.1990886,0.022923780605196953,-0.002162336139008403,-0.17296889424324036,0.38233843445777893,-0.34309399127960205,-9.883441925048828
1745662734.1996226,0.0030789196025580168,-0.008879130706191063,-0.17391018569469452,0.39275649189949036,-0.37283191084861755,-9.746111869812012
1745662734.2018316,0.020729519426822662,-0.004055019933730364,-0.17241616547107697,0.2122209519147873,-0.2807425558567047,-9.717730522155762
1745662734.2023547,-0.005036637187004089,-0.0081641785800457,-0.1721678525209427,0.4191042482852936,-0.4666326940059662,-9.698755264282227
1745662734.2024164,0.017154810950160027,-0.004714413080364466,-0.1733909398317337,0.2611633539199829,-0.3272780478000641,-9.869749069213867
1745662734.243679,0.002136944094672799,-0.002485044300556183,-0.1725262850522995,0.39064040780067444,-0.3913051187992096,-9.848130226135254
1745662734.2442307,0.00016668345779180527,-0.01151028461754322,-0.1727694422006607,0.2693931460380554,-0.4251857399940491,-9.787132263183594
1745662734.2489069,0.004333678632974625,-0.00391638558357954,-0.17324182391166687,0.3893209993839264,-0.3958176076412201,-9.679241180419922
1745662734.2525415,0.003995032981038094,-0.005261708050966263,-0.1731749176979065,0.3073153793811798,-0.35972359776496887,-9.886178970336914
1745662734.2855597,0.006209883838891983,-0.006857746280729771,-0.17329296469688416,0.4491448998451233,-0.3175036311149597,-9.805774688720703
1745662734.2888937,0.005112649407237768,-0.004172568209469318,-0.17443622648715973,0.24956360459327698,-0.3257421851158142,-9.786235809326172
1745662734.2933786,0.010596854612231255,-0.009515340439975262,-0.17350754141807556,0.4361933171749115,-0.3742292523384094,-9.683618545532227
1745662734.2975116,-0.012454752810299397,-0.011321638710796833,-0.17213115096092224,0.2675616145133972,-0.3582516312599182,-9.755195617675781
1745662734.3292098,0.007078369148075581,-0.0019727651961147785,-0.17088055610656738,0.45556125044822693,-0.5133780241012573,-9.854232788085938
1745662734.3321922,-0.012871893122792244,-0.008999939076602459,-0.17211677134037018,0.25023001432418823,-0.2558966279029846,-9.790182113647461
1745662734.334745,-0.006335219833999872,-0.007220934145152569,-0.17145095765590668,0.3215283453464508,-0.4948996603488922,-9.770358085632324
1745662734.3364854,-0.014288583770394325,-0.007914602756500244,-0.17230042815208435,0.43941545486450195,-0.330340713262558,-9.655241012573242
1745662734.33784,-0.015734251588582993,-0.0035857807379215956,-0.1732301115989685,0.19964499771595,-0.3333728313446045,-9.894678115844727
1745662734.3804028,-0.012819047085940838,-0.0104108527302742,-0.17352543771266937,0.4877200722694397,-0.3631135821342468,-9.763378143310547
1745662734.3805122,-0.015286749228835106,-0.007441216614097357,-0.17315566539764404,0.26245054602622986,-0.24721984565258026,-9.739328384399414
1745662734.3805618,-0.009220979176461697,-0.0024172929115593433,-0.17364542186260223,0.44224080443382263,-0.3245888650417328,-9.800210952758789
1745662734.3821545,-0.015488940291106701,-0.010779930278658867,-0.172859326004982,0.2794489562511444,-0.2807826101779938,-9.825216293334961
1745662734.4146578,0.004218918737024069,-0.005685547832399607,-0.1743769347667694,0.34401434659957886,-0.2207174003124237,-9.710243225097656
1745662734.4163692,0.007518998347222805,-0.004640533588826656,-0.17342641949653625,0.39254963397979736,-0.20260541141033173,-9.713879585266113
1745662734.418448,-0.005193739198148251,-0.006357924547046423,-0.1771196573972702,0.4246884286403656,-0.3191255033016205,-9.774991989135742
1745662734.4207606,0.00854063592851162,-0.006325712893158197,-0.17412200570106506,0.2977403998374939,-0.13918082416057587,-9.854829788208008
1745662734.454456,-0.004300514701753855,-0.00583235127851367,-0.175900399684906,0.43929123878479004,-0.42861080169677734,-9.830726623535156
1745662734.4572115,0.020082343369722366,-0.002474583685398102,-0.173416405916214,0.21131089329719543,-0.12291797250509262,-9.69658088684082
1745662734.4573054,0.007752521894872189,-0.0044631874188780785,-0.17329005897045135,0.4370359778404236,-0.30066782236099243,-9.647581100463867
1745662734.4611092,0.015104563906788826,-0.005746092647314072,-0.17625203728675842,0.24290470778942108,-0.16354410350322723,-9.78784465789795
1745662734.4612558,0.01372749824076891,4.88799050799571e-05,-0.176068514585495,0.4182472825050354,-0.31919386982917786,-9.850862503051758
1745662734.5022156,0.01821339689195156,-0.005418564658612013,-0.17618444561958313,0.2838664650917053,-0.33716654777526855,-9.836223602294922
1745662734.5023036,0.015580815263092518,-0.003214047057554126,-0.17689082026481628,0.261140912771225,-0.30536916851997375,-9.7562894821167
1745662734.5055566,0.01621568575501442,-0.006983255501836538,-0.17278800904750824,0.4404473900794983,-0.4893069863319397,-9.684869766235352
1745662734.5073292,0.011048626154661179,-0.0027535525150597095,-0.17433884739875793,0.2238038331270218,-0.19907227158546448,-9.85258674621582
1745662734.5431318,0.008595610968768597,-0.005013581365346909,-0.17247459292411804,0.47405219078063965,-0.5489259958267212,-9.844403266906738
1745662734.5455782,0.007816138677299023,-0.005086931400001049,-0.17186591029167175,0.2725503146648407,-0.15593074262142181,-9.717013359069824
1745662734.5474217,0.00988590158522129,-0.001975571969524026,-0.17261287569999695,0.3838929533958435,-0.5023528933525085,-9.77875804901123
1745662734.548359,0.007898671552538872,-0.009707948192954063,-0.17117246985435486,0.31945157051086426,-0.18726031482219696,-9.778966903686523
1745662734.5511222,0.010589824989438057,-0.0007448510150425136,-0.1727498471736908,0.2684062421321869,-0.3124731779098511,-9.843440055847168
1745662734.5879638,0.009431425482034683,-0.007408414967358112,-0.17244622111320496,0.4479781985282898,-0.3144119381904602,-9.685786247253418
1745662734.5914485,0.016008492559194565,-0.004515212960541248,-0.1717720329761505,0.2674390971660614,-0.15601150691509247,-9.776700973510742
1745662734.596595,0.013061861507594585,-0.00541516812518239,-0.17193067073822021,0.4870137572288513,-0.32710665464401245,-9.828852653503418
1745662734.5998995,0.01823675073683262,-0.005126224365085363,-0.1732424795627594,0.2905995845794678,-0.23389331996440887,-9.84935474395752
1745662734.630108,0.032617684453725815,-0.00027551205130293965,-0.17297865450382233,0.3679715394973755,-0.3150421679019928,-9.671180725097656
1745662734.6321473,0.03126753121614456,-0.004644834436476231,-0.17320747673511505,0.3002607226371765,-0.29640012979507446,-9.7618408203125
1745662734.6336606,0.019383477047085762,4.8444606363773346e-05,-0.17182116210460663,0.3831932544708252,-0.40315255522727966,-9.849809646606445
1745662734.635163,0.02216968685388565,-0.004874152597039938,-0.17185024917125702,0.33427485823631287,-0.42859774827957153,-9.760812759399414
1745662734.6712775,0.02331315353512764,-0.0015722280368208885,-0.17229032516479492,0.34843188524246216,-0.2593782842159271,-9.702906608581543
1745662734.6755433,0.010372629389166832,-0.0075296200811862946,-0.16949646174907684,0.4149048924446106,-0.5303200483322144,-9.837831497192383
1745662734.6759357,0.02989654615521431,0.0014201875310391188,-0.1715315580368042,0.28670984506607056,-0.11107353121042252,-9.765419006347656
1745662734.6796346,0.008685429580509663,-0.00602872297167778,-0.17116324603557587,0.35734859108924866,-0.44771209359169006,-9.81363582611084
1745662734.6827335,0.026753652840852737,-0.0047237565740942955,-0.17077253758907318,0.32436084747314453,-0.13460804522037506,-9.658829689025879
1745662734.714783,0.0241900272667408,-0.000770437705796212,-0.1707170456647873,0.4772225320339203,-0.4280715882778168,-9.845121383666992
1745662734.7169344,0.02659710869193077,-0.005082296207547188,-0.1722138226032257,0.2518724203109741,-0.09357823431491852,-9.916938781738281
1745662734.7201648,0.023781832307577133,-0.001836998388171196,-0.17213425040245056,0.3683765232563019,-0.4996813237667084,-9.764108657836914
1745662734.7212117,0.03390350937843323,-0.003586863400414586,-0.1702164113521576,0.3507612645626068,-0.16159100830554962,-9.545478820800781
1745662734.7658288,0.027848342433571815,-0.001707286573946476,-0.1718333214521408,0.33037808537483215,-0.36885449290275574,-9.785219192504883
1745662734.7659848,0.036853328347206116,-0.0044180559925735,-0.17144706845283508,0.3973410129547119,-0.22751513123512268,-9.85525131225586
1745662734.7660952,0.029858147725462914,-0.0055022286251187325,-0.16638782620429993,0.33462658524513245,-0.17092421650886536,-9.777697563171387
1745662734.7661688,0.03687465563416481,0.005442081019282341,-0.16944310069084167,0.4214114546775818,-0.4077916145324707,-9.862102508544922
1745662734.8030667,0.029178619384765625,-0.0071037099696695805,-0.16785308718681335,0.30237752199172974,-0.21174785494804382,-9.651937484741211
1745662734.8066516,0.03750354051589966,-0.0018043670570477843,-0.16827967762947083,0.3605252802371979,-0.4909469187259674,-9.73218059539795
1745662734.8086987,0.02978447638452053,-0.0028106612153351307,-0.16888903081417084,0.3725658059120178,-0.3601432740688324,-9.853974342346191
1745662734.813493,0.042192332446575165,0.0031277178786695004,-0.16796354949474335,0.2008623331785202,-0.4223197102546692,-9.906610488891602
1745662734.816694,0.026691844686865807,-0.007147339638322592,-0.1662108153104782,0.4066445231437683,-0.371406227350235,-9.62308406829834
1745662734.8426208,0.02653397247195244,-0.0021988763473927975,-0.1690157651901245,0.33746954798698425,-0.43994754552841187,-9.706350326538086
1745662734.844718,0.030617082491517067,-0.0024814705830067396,-0.16527524590492249,0.41947421431541443,-0.45109766721725464,-9.88116455078125
1745662734.846082,0.013725550845265388,-0.006666327361017466,-0.16728655993938446,0.284803181886673,-0.41793495416641235,-9.899395942687988
1745662734.8493571,0.02930496633052826,-0.0004067154659423977,-0.1667238026857376,0.41010767221450806,-0.46585187315940857,-9.659497261047363
1745662734.8864553,0.005298249889165163,-0.003343398915603757,-0.16666774451732635,0.34186649322509766,-0.4007406234741211,-9.682657241821289
1745662734.890249,0.023459121584892273,-0.003499828279018402,-0.1668221354484558,0.2800725996494293,-0.35298195481300354,-9.82701587677002
1745662734.894942,0.009886820800602436,-0.007955564185976982,-0.1662004292011261,0.5101698637008667,-0.42139190435409546,-9.85527515411377
1745662734.898401,0.02331688441336155,0.0010927924886345863,-0.16680081188678741,0.20873689651489258,-0.1847669780254364,-9.812294006347656
1745662734.9307437,0.016352200880646706,-0.003934967331588268,-0.16578447818756104,0.46152037382125854,-0.43183836340904236,-9.663942337036133
1745662734.933385,0.02986624278128147,-0.007557225413620472,-0.16770383715629578,0.20810917019844055,-0.20910760760307312,-9.768205642700195
1745662734.9369276,0.020042408257722855,-0.0020285930950194597,-0.1665801703929901,0.4059084355831146,-0.45449408888816833,-9.845460891723633
1745662734.9405842,0.026342308148741722,-0.005372566170990467,-0.1674518883228302,0.40958458185195923,-0.3283925950527191,-9.711569786071777
1745662734.9436414,0.024476736783981323,0.0033500429708510637,-0.163899764418602,0.27686935663223267,-0.41708865761756897,-9.727836608886719
1745662734.9751148,0.01753433793783188,-0.01320576947182417,-0.16708868741989136,0.44480735063552856,-0.39833515882492065,-9.751326560974121
1745662734.9783573,0.025255601853132248,-0.003799745114520192,-0.16634711623191833,0.31061214208602905,-0.3868521451950073,-9.936380386352539
1745662734.984181,0.02443765290081501,0.001743887783959508,-0.16557535529136658,0.44502830505371094,-0.5200607180595398,-9.835306167602539
1745662734.9877605,0.01472097635269165,-0.002534620463848114,-0.16451933979988098,0.26339074969291687,-0.5297067165374756,-9.953939437866211
1745662735.01727,0.011308583430945873,-0.008296877145767212,-0.1642845720052719,0.4486323297023773,-0.3334558308124542,-9.542753219604492
1745662735.0185497,0.006677642464637756,-0.00191483274102211,-0.16550280153751373,0.24668678641319275,-0.39493328332901,-9.7293062210083
1745662735.0212862,0.01250846404582262,-0.010770097374916077,-0.16282887756824493,0.5196475982666016,-0.4437766671180725,-9.867162704467773
1745662735.0229769,0.004756204783916473,-0.008989664725959301,-0.16463367640972137,0.27970656752586365,-0.30139729380607605,-9.943434715270996
1745662735.025312,0.013043996877968311,-0.002185282064601779,-0.1639927178621292,0.4011326730251312,-0.4733215272426605,-9.710953712463379
1745662735.0597992,0.0004367222136352211,-0.0098947212100029,-0.16255217790603638,0.3120523989200592,-0.2766323685646057,-9.626861572265625
1745662735.0629904,0.02043558470904827,-0.006378197576850653,-0.1655452698469162,0.3148764669895172,-0.41701406240463257,-9.809924125671387
1745662735.0630825,0.007034118287265301,-0.009556340985000134,-0.16460879147052765,0.4770461916923523,-0.2551048994064331,-9.796300888061523
1745662735.0667315,0.022846519947052002,0.0004387914086692035,-0.16481493413448334,0.18581652641296387,-0.3133166432380676,-9.78753662109375
1745662735.1039853,0.00707438588142395,-0.010234826244413853,-0.16679321229457855,0.47684329748153687,-0.43561726808547974,-9.629565238952637
1745662735.1055884,0.02122081071138382,-0.009181727655231953,-0.16484251618385315,0.28943100571632385,-0.36489152908325195,-9.849145889282227
1745662735.1083605,0.01076318509876728,-0.004258538130670786,-0.1639600247144699,0.443389892578125,-0.5490158796310425,-9.940339088439941
1745662735.1129868,0.004745635204017162,-0.009546712040901184,-0.16171705722808838,0.43975162506103516,-0.47984886169433594,-9.782304763793945
1745662735.145222,0.00430996622890234,-0.011834533885121346,-0.15974748134613037,0.35311397910118103,-0.3075266182422638,-9.964489936828613
1745662735.1461515,0.007899874821305275,-0.0038427249528467655,-0.16164006292819977,0.24463768303394318,-0.4177413880825043,-9.815702438354492
1745662735.1477597,-0.0006267305579967797,-0.011832140386104584,-0.16140595078468323,0.37737637758255005,-0.38711217045783997,-9.478697776794434
1745662735.149809,-0.006219672970473766,-0.010736224241554737,-0.1593666970729828,0.2759929597377777,-0.4659174978733063,-9.729238510131836
1745662735.186254,0.00608067074790597,-0.006186264101415873,-0.1622433215379715,0.48937326669692993,-0.47581449151039124,-9.938356399536133
1745662735.1892195,-0.01029672846198082,-0.008596071973443031,-0.1606266349554062,0.25023800134658813,-0.29101765155792236,-9.946327209472656
1745662735.1913338,0.001959914807230234,-0.00932738371193409,-0.15973062813282013,0.37140294909477234,-0.48857659101486206,-9.618326187133789
1745662735.193413,-0.015852011740207672,-0.012796157971024513,-0.15967419743537903,0.40263503789901733,-0.3892980217933655,-9.62761116027832
1745662735.1949172,6.20980717940256e-05,-0.006816574838012457,-0.15799105167388916,0.29180485010147095,-0.38549143075942993,-9.946977615356445
1745662735.2321258,-0.014984908513724804,-0.010419918224215508,-0.1601281613111496,0.37497758865356445,-0.4510210454463959,-9.8770112991333
1745662735.2339895,-0.002932982984930277,-0.009763465262949467,-0.16007676720619202,0.28726762533187866,-0.2639533281326294,-9.600944519042969
1745662735.2359056,-0.012498913332819939,-0.008968675509095192,-0.15869610011577606,0.4275546967983246,-0.4168897569179535,-9.686955451965332
1745662735.2376544,0.003059065667912364,-0.012118751183152199,-0.1609046459197998,0.2866418957710266,-0.30691057443618774,-9.91556167602539
1745662735.2738235,-0.0051911030896008015,-0.0056070261634886265,-0.1589844524860382,0.4043695032596588,-0.32792896032333374,-9.815255165100098
1745662735.2759268,-0.0070558032020926476,-0.007132087834179401,-0.15918105840682983,0.28775519132614136,-0.394126832485199,-9.694649696350098
1745662735.2870042,0.007175748702138662,-0.010693307034671307,-0.15896828472614288,0.3035973906517029,-0.2873794138431549,-9.691352844238281
1745662735.290177,-0.006983394268900156,-0.010069345124065876,-0.15955111384391785,0.4621087908744812,-0.4170903265476227,-9.859130859375
1745662735.294222,0.008721121586859226,-0.0029539763927459717,-0.15963557362556458,0.24507638812065125,-0.27304965257644653,-9.876866340637207
1745662735.3171995,-0.006511862389743328,-0.0076857274398207664,-0.16070248186588287,0.38113826513290405,-0.470289409160614,-9.6430025100708
1745662735.3182533,-0.00199720892123878,-0.011775352992117405,-0.15662860870361328,0.25810712575912476,-0.27883586287498474,-9.633699417114258
1745662735.3208225,-0.002254670951515436,-0.0038896158803254366,-0.15833452343940735,0.37879064679145813,-0.5528947114944458,-9.879976272583008
1745662735.3586335,-0.01184145174920559,-0.006476817186921835,-0.15878471732139587,0.26921287178993225,-0.22606095671653748,-9.670248031616211
1745662735.3616345,-0.0076250298880040646,-0.005146079696714878,-0.15835194289684296,0.40689969062805176,-0.486583411693573,-9.721882820129395
1745662735.363034,-0.011376641690731049,-0.011225289665162563,-0.1560177505016327,0.3740132749080658,-0.268586665391922,-9.84634780883789
1745662735.3654623,-0.0010099009377881885,-0.001024777302518487,-0.15678508579730988,0.29172468185424805,-0.35291582345962524,-9.849717140197754
1745662735.3690834,-0.016124527901411057,-0.009512098506093025,-0.1587802767753601,0.3985713720321655,-0.3225718140602112,-9.672319412231445
1745662735.404439,0.0028536911122500896,-0.00088844308629632,-0.15775036811828613,0.22084300220012665,-0.2814790606498718,-9.7615327835083
1745662735.4089742,-0.002426612889394164,-0.009880784898996353,-0.1579466313123703,0.4530576765537262,-0.3771439492702484,-9.794499397277832
1745662735.425019,0.005440317559987307,-0.004321726504713297,-0.1579732596874237,0.24074479937553406,-0.23495671153068542,-9.868758201599121
1745662735.4271722,-0.00048748645349405706,-0.0030681719072163105,-0.158485546708107,0.40534311532974243,-0.42420268058776855,-9.657818794250488
1745662735.446975,0.0002850616874638945,-0.007146245334297419,-0.15835702419281006,0.3225070834159851,-0.3570229709148407,-9.647034645080566
1745662735.450138,0.0008654827252030373,-0.002147836610674858,-0.15668730437755585,0.3135069012641907,-0.40842095017433167,-9.842060089111328
1745662735.4527423,-0.003578346921131015,-0.006640987936407328,-0.1576690375804901,0.3876820206642151,-0.46605628728866577,-9.894940376281738
1745662735.4559765,0.004487997852265835,-0.0016204130370169878,-0.15854611992835999,0.21191072463989258,-0.2604978680610657,-9.718252182006836
1745662735.4560156,-0.011217519640922546,-0.006213476415723562,-0.15532740950584412,0.5308166742324829,-0.5513358116149902,-9.646011352539062
1745662735.4915469,0.010561736300587654,-0.0017472055042162538,-0.15612655878067017,0.21784238517284393,-0.25076785683631897,-10.023099899291992
1745662735.4953818,0.009952133521437645,0.00022498625912703574,-0.15686316788196564,0.3825579285621643,-0.44770511984825134,-9.681601524353027
1745662735.4997373,-0.00015215473831631243,-0.007532979361712933,-0.15502046048641205,0.3018006682395935,-0.27182021737098694,-9.580272674560547
1745662735.5032272,0.006680147256702185,-0.002627379959449172,-0.15596935153007507,0.430795818567276,-0.4287571907043457,-9.8278169631958
1745662735.5326838,0.002438717521727085,-0.007108164485543966,-0.1549145132303238,0.3643098771572113,-0.37382471561431885,-9.980003356933594
1745662735.5352175,-0.002681551268324256,0.001138439285568893,-0.15720662474632263,0.20398744940757751,-0.3225318491458893,-9.764137268066406
1745662735.5384974,0.004356741905212402,-0.004718475975096226,-0.1545320749282837,0.4700287878513336,-0.45438042283058167,-9.467940330505371
1745662735.5410101,-0.006292380392551422,-0.0020275914575904608,-0.15629224479198456,0.25386038422584534,-0.24004295468330383,-9.795969009399414
1745662735.5435963,0.006513661239296198,-0.0009097205474972725,-0.1542471945285797,0.4344252645969391,-0.38589829206466675,-10.010035514831543
1745662735.5753827,-0.0085349902510643,-0.006684298627078533,-0.15666110813617706,0.34451863169670105,-0.22232525050640106,-9.821561813354492
1745662735.5782623,0.018407830968499184,0.004056356847286224,-0.1565074622631073,0.3365200459957123,-0.3599468171596527,-9.555635452270508
1745662735.5892272,-0.0052187186665833,-0.006753547582775354,-0.15526840090751648,0.4567718505859375,-0.2625969648361206,-9.673391342163086
1745662735.5944417,0.012425506487488747,-0.0011090378975495696,-0.1568194329738617,0.2076592892408371,-0.36602362990379333,-10.105415344238281
1745662735.619524,0.00590292364358902,-0.0024201120249927044,-0.15402455627918243,0.47585803270339966,-0.336325466632843,-9.826895713806152
1745662735.6216013,0.01744544878602028,0.0014463188126683235,-0.15689599514007568,0.24032899737358093,-0.22347287833690643,-9.58552360534668
1745662735.6230195,0.01205478422343731,-0.002518871333450079,-0.15705910325050354,0.4582124352455139,-0.3075474798679352,-9.602463722229004
1745662735.6257384,0.005947647616267204,-0.008242486044764519,-0.15542098879814148,0.36425644159317017,-0.3941693603992462,-9.965286254882812
1745662735.6619275,0.019087187945842743,0.003077805507928133,-0.15729615092277527,0.3351888060569763,-0.3400905430316925,-9.968932151794434
1745662735.6658285,0.004091855138540268,-0.00017422973178327084,-0.15460027754306793,0.30523261427879333,-0.47450828552246094,-9.662385940551758
1745662735.6672614,0.017697658389806747,-0.0049069905653595924,-0.15550750494003296,0.2240537703037262,-0.27795904874801636,-9.58600902557373
1745662735.6710823,-0.0061531392857432365,-0.007113903760910034,-0.1550637185573578,0.5480020046234131,-0.5230622291564941,-9.863998413085938
1745662735.6726403,0.014683494344353676,-0.002487484598532319,-0.1552629917860031,0.2508927285671234,-0.27213653922080994,-10.068387985229492
1745662735.706201,-0.0010683608707040548,0.00038031116127967834,-0.15414823591709137,0.45411786437034607,-0.3726801574230194,-9.48796272277832
1745662735.711066,0.0029345708899199963,-0.00392313115298748,-0.1577049046754837,0.3088320791721344,-0.15559425950050354,-9.743176460266113
1745662735.714332,0.0021299980580806732,-0.0028047035448253155,-0.155493825674057,0.41705161333084106,-0.4145168364048004,-10.092968940734863
1745662735.7186806,0.010474717244505882,-0.004497223533689976,-0.15994960069656372,0.2932853400707245,-0.17855879664421082,-9.844534873962402
1745662735.749822,0.017468422651290894,0.004459797404706478,-0.15625514090061188,0.37736231088638306,-0.39694321155548096,-9.561958312988281
1745662735.7619345,0.01016579382121563,-0.009691220708191395,-0.15812358260154724,0.3522206246852875,-0.22397689521312714,-9.633100509643555
1745662735.7621467,0.014611822552978992,-0.0013667448656633496,-0.15505099296569824,0.372023344039917,-0.45963507890701294,-9.941705703735352
1745662735.7622101,0.010108202695846558,-0.001759232021868229,-0.1572960466146469,0.3744926452636719,-0.3113230764865875,-9.849702835083008
1745662735.7894735,0.012078257277607918,-0.0010854650754481554,-0.1580144613981247,0.1879211962223053,-0.3749154210090637,-9.697607040405273
1745662735.791302,0.01127551682293415,-0.0044294619001448154,-0.15669767558574677,0.4738991856575012,-0.3783363103866577,-9.589156150817871
1745662735.7934186,0.0012461986625567079,-0.005572859663516283,-0.1591370552778244,0.3043633997440338,-0.350262314081192,-9.980417251586914
1745662735.7976582,0.013895915821194649,-0.0014605100732296705,-0.15750840306282043,0.4100748896598816,-0.4808174967765808,-9.987895011901855
1745662735.7977557,-0.0073572685942053795,-0.005377027206122875,-0.15766333043575287,0.3081759512424469,-0.34070152044296265,-9.583114624023438
1745662735.8349955,0.008861225098371506,-0.00026206221082247794,-0.15650202333927155,0.32997772097587585,-0.40661925077438354,-9.565567016601562
1745662735.8363655,0.019548101350665092,-0.008130816742777824,-0.15777520835399628,0.3471992611885071,-0.3508075177669525,-9.744101524353027
1745662735.8384619,-0.0005521876737475395,-0.01344327349215746,-0.15813055634498596,0.4129212498664856,-0.44003501534461975,-10.063573837280273
1745662735.840789,0.01659449376165867,-0.007468707859516144,-0.15672990679740906,0.26902368664741516,-0.3691866397857666,-9.882673263549805
1745662735.8753722,-0.0021989657543599606,-0.007739965803921223,-0.1584889143705368,0.39747557044029236,-0.4664793014526367,-9.538159370422363
1745662735.881196,0.00795283168554306,-0.014140186831355095,-0.1566113829612732,0.292724609375,-0.33029523491859436,-9.610898971557617
1745662735.883903,0.0018513298127800226,-0.009062266908586025,-0.1580057442188263,0.4709968566894531,-0.36705052852630615,-9.951542854309082
1745662735.886415,-0.0011230430100113153,-0.011862240731716156,-0.1569432020187378,0.2724146842956543,-0.26571816205978394,-9.961297988891602
1745662735.890858,0.012272714637219906,-0.006235876586288214,-0.16085752844810486,0.3954413831233978,-0.2961971163749695,-9.602229118347168
1745662735.9222257,0.003485602792352438,-0.011333750560879707,-0.158206507563591,0.37236952781677246,-0.27535730600357056,-9.554277420043945
1745662735.9222898,0.012499727308750153,-0.011020524427294731,-0.15739567577838898,0.3352581560611725,-0.26548123359680176,-9.950624465942383
1745662735.9242196,0.008645630441606045,-0.010650224052369595,-0.15860562026500702,0.36246487498283386,-0.40140581130981445,-10.035199165344238
1745662735.928112,0.018683582544326782,-0.007920324802398682,-0.15956194698810577,0.24510636925697327,-0.18592754006385803,-9.554990768432617
1745662735.9629023,0.011920010671019554,-0.007488317787647247,-0.15742018818855286,0.45567598938941956,-0.40906277298927307,-9.515603065490723
1745662735.9653604,0.01464784424751997,-0.015927499160170555,-0.15862958133220673,0.3038174510002136,-0.2245703637599945,-9.886526107788086
1745662735.9663992,0.014862768352031708,-0.006131319794803858,-0.15882687270641327,0.4022499918937683,-0.4938807487487793,-10.059706687927246
1745662735.97002,0.009508462622761726,-0.007117641624063253,-0.160862997174263,0.30104729533195496,-0.3166266083717346,-9.641096115112305
1745662736.005174,0.016795597970485687,-0.007652676664292812,-0.15892517566680908,0.2732340395450592,-0.4601902961730957,-9.571012496948242
1745662736.007078,0.0013209499884396791,-0.01617923378944397,-0.15833143889904022,0.40986356139183044,-0.3198939561843872,-9.84713077545166
1745662736.0093694,0.004620593041181564,-0.009693225845694542,-0.1588079184293747,0.30764180421829224,-0.4257263243198395,-10.055424690246582
1745662736.0103104,0.010109378024935722,-0.005609429441392422,-0.15812906622886658,0.400319904088974,-0.3902236819267273,-9.712177276611328
1745662736.0125246,-0.006092858035117388,-0.010612953454256058,-0.1580839455127716,0.1869465857744217,-0.30646899342536926,-9.568528175354004
1745662736.0492003,0.010168737731873989,-0.01256056409329176,-0.15705326199531555,0.49143165349960327,-0.42413392663002014,-9.698314666748047
1745662736.05265,0.00934976153075695,-0.007738239131867886,-0.1606861650943756,0.4539576470851898,-0.4024988114833832,-9.427166938781738
1745662736.0546577,0.011677401140332222,-0.01215448509901762,-0.15877756476402283,0.3175303041934967,-0.23868736624717712,-9.626127243041992
1745662736.0581093,0.014096463099122047,-0.004252330865710974,-0.16027456521987915,0.3816693425178528,-0.4026471674442291,-10.063151359558105
1745662736.094092,0.007307949475944042,-0.011493969708681107,-0.15848317742347717,0.3374122977256775,-0.3778456747531891,-9.9185791015625
1745662736.0982108,0.013048430904746056,-0.0022861852776259184,-0.16095198690891266,0.24518346786499023,-0.32068461179733276,-9.613804817199707
1745662736.0991695,0.011296977289021015,-0.009580315090715885,-0.15875867009162903,0.4453703463077545,-0.4784465730190277,-9.586712837219238
1745662736.1007025,0.00877234898507595,-0.010586647316813469,-0.1596236228942871,0.2212599217891693,-0.2252551019191742,-9.988655090332031
1745662736.1326578,0.005236421711742878,-0.005281198304146528,-0.15757079422473907,0.4890851080417633,-0.5796818733215332,-9.9444580078125
1745662736.133408,0.003518917364999652,-0.008895034901797771,-0.1593591421842575,0.2531587481498718,-0.2126292735338211,-9.593255996704102
1745662736.1353924,0.002047091256827116,-0.005843305494636297,-0.15638281404972076,0.3582790493965149,-0.5505026578903198,-9.655789375305176
1745662736.1378016,0.0018114745616912842,-0.012058275751769543,-0.15854153037071228,0.394004762172699,-0.2523229122161865,-9.801706314086914
1745662736.1407719,-0.00012913663522340357,-0.0032256084959954023,-0.15957173705101013,0.21868881583213806,-0.3477242588996887,-10.035478591918945
1745662736.1790159,-0.0010703157167881727,-0.011087912134826183,-0.1589229553937912,0.4700850546360016,-0.37231701612472534,-9.587377548217773
1745662736.1814687,0.007404868956655264,-0.005693651735782623,-0.15798668563365936,0.29146090149879456,-0.20515958964824677,-9.631346702575684
1745662736.1829267,0.008240309543907642,-0.0037664449773728848,-0.15728211402893066,0.2777019441127777,-0.42232269048690796,-9.945388793945312
1745662736.1846151,0.0006456851842813194,-0.0007729203789494932,-0.15636946260929108,0.4299471974372864,-0.40764856338500977,-9.650574684143066
1745662736.2223334,-0.00300588458776474,-0.006042794324457645,-0.1564582884311676,0.25517067313194275,-0.35087642073631287,-9.644131660461426
1745662736.2233503,0.0019539364147931337,-0.0031023325864225626,-0.157804474234581,0.40982627868652344,-0.35080185532569885,-9.810060501098633
1745662736.2259614,-0.006190776824951172,-0.005585819017142057,-0.15604142844676971,0.3638778328895569,-0.3204347491264343,-9.924365043640137
1745662736.2280552,0.008569538593292236,0.00033921515569090843,-0.15720665454864502,0.31142276525497437,-0.3044500946998596,-9.746249198913574
1745662736.2318425,0.000507353397551924,-0.005250283982604742,-0.1572115272283554,0.36010512709617615,-0.3636999726295471,-9.610214233398438
1745662736.2647872,0.007985410280525684,-0.005836789496243,-0.15638530254364014,0.3046538233757019,-0.20891578495502472,-9.72034740447998
1745662736.268904,-0.0002245896030217409,-0.002115875016897917,-0.15645365417003632,0.4363357424736023,-0.4149021506309509,-9.929882049560547
1745662736.271235,0.013306936249136925,-0.0037308880127966404,-0.15650956332683563,0.22699859738349915,-0.1981699913740158,-9.840502738952637
1745662736.2745664,0.010321917943656445,-0.0028642623219639063,-0.15763260424137115,0.46001940965652466,-0.391235888004303,-9.631002426147461
1745662736.3105626,0.008883007802069187,-0.008309293538331985,-0.1563052088022232,0.32740986347198486,-0.2142469882965088,-9.690909385681152
1745662736.3106217,0.01443537138402462,-0.00024080672301352024,-0.15715117752552032,0.39243319630622864,-0.44643348455429077,-9.918717384338379
1745662736.3106694,0.0056236665695905685,-0.005711223464459181,-0.15709379315376282,0.3294776380062103,-0.2740885615348816,-9.76609992980957
1745662736.3117716,0.005642137955874205,-0.0015631098067387938,-0.15548935532569885,0.25885269045829773,-0.46041709184646606,-9.631115913391113
1745662736.3245637,0.008921998552978039,-0.005422969348728657,-0.15597452223300934,0.43528419733047485,-0.3877788782119751,-9.698335647583008
1745662736.354707,0.0005800774088129401,-0.004062500782310963,-0.15609829127788544,0.2731192409992218,-0.3027872145175934,-9.95026969909668
1745662736.3580832,0.008615638129413128,-0.006129155401140451,-0.15661737322807312,0.41711312532424927,-0.4577339291572571,-9.889432907104492
1745662736.3605423,-0.0034749421756714582,-0.0029384668450802565,-0.1551651656627655,0.2624295651912689,-0.26080456376075745,-9.611419677734375
1745662736.361686,0.004647092428058386,-0.0050105503760278225,-0.15370908379554749,0.3826083838939667,-0.504122257232666,-9.648907661437988
1745662736.394491,-0.003981679677963257,-0.008152511902153492,-0.15347328782081604,0.3571386933326721,-0.2912296950817108,-9.868935585021973
1745662736.3983884,0.004223373718559742,-5.463371053338051e-05,-0.15493330359458923,0.3006593883037567,-0.3276340067386627,-9.926895141601562
1745662736.404967,0.009831164963543415,-0.006454122718423605,-0.15386483073234558,0.4068375527858734,-0.25977054238319397,-9.559587478637695
1745662736.4154818,0.01805531606078148,0.0014954927610233426,-0.15515324473381042,0.33913832902908325,-0.260518878698349,-9.881256103515625
1745662736.4355545,0.006040723994374275,-0.010030585341155529,-0.1544785052537918,0.35391855239868164,-0.4413067698478699,-9.933123588562012
1745662736.439441,0.019169693812727928,0.0006746694562025368,-0.1548771858215332,0.2768096327781677,-0.18527093529701233,-9.598871231079102
1745662736.4430847,0.0026348589453846216,-0.0004924194072373211,-0.15619909763336182,0.40476030111312866,-0.5766012072563171,-9.693992614746094
1745662736.444782,0.023872781544923782,-0.007563643157482147,-0.15460273623466492,0.22731474041938782,-0.16177251935005188,-9.875595092773438
1745662736.489209,-0.0011949026957154274,-0.0024637943133711815,-0.1551838368177414,0.4820897579193115,-0.4950534701347351,-9.926732063293457
1745662736.4895818,0.01261081825941801,-0.004910716321319342,-0.15311677753925323,0.24708881974220276,-0.35926324129104614,-9.756592750549316
1745662736.491706,0.002616801066324115,0.0012359279207885265,-0.1533292829990387,0.32758039236068726,-0.3349457383155823,-9.597736358642578
1745662736.494907,-0.0023106331937015057,-0.012255726382136345,-0.15517382323741913,0.44351810216903687,-0.4681682586669922,-9.770892143249512
1745662736.496992,0.006711903028190136,0.002553378464654088,-0.15348103642463684,0.27632319927215576,-0.2322492152452469,-9.904252052307129
1745662736.522527,-0.004877099301666021,-0.0052516707219183445,-0.15357457101345062,0.4168829321861267,-0.4471488893032074,-9.774691581726074
1745662736.526353,0.00620666379109025,-0.0057638962753117085,-0.1539720594882965,0.3115675449371338,-0.20578281581401825,-9.703137397766113
1745662736.5264597,0.003940337337553501,-0.002831721678376198,-0.15257515013217926,0.41938915848731995,-0.3720264434814453,-9.773775100708008
1745662736.5286288,-0.01241525262594223,-0.008438711985945702,-0.15480594336986542,0.45842409133911133,-0.34416037797927856,-9.889283180236816
1745662736.564309,-0.0019266406306996942,-0.0032396495807915926,-0.15555627644062042,0.21093988418579102,-0.2066473513841629,-9.847311019897461
1745662736.5668898,-0.0016187634319067001,-0.007253886200487614,-0.15370433032512665,0.4181276261806488,-0.3697463870048523,-9.605320930480957
1745662736.5686631,0.0028462805785238743,-0.010357287712395191,-0.15551069378852844,0.30408090353012085,-0.16699250042438507,-9.717162132263184
1745662736.5700676,0.006572443060576916,-0.0033626146614551544,-0.1555086374282837,0.47138920426368713,-0.41677775979042053,-9.871583938598633
1745662736.6070547,0.0019474361324682832,-0.005265519954264164,-0.15565082430839539,0.26768189668655396,-0.1972101628780365,-9.834257125854492
1745662736.6099675,0.008134196512401104,-0.0032049696892499924,-0.1554519683122635,0.34349924325942993,-0.357088565826416,-9.708013534545898
1745662736.6136389,0.0002966289466712624,-0.011483021080493927,-0.1554126888513565,0.39589911699295044,-0.3241855800151825,-9.77718734741211
1745662736.6168447,0.0091236038133502,-0.003348780097439885,-0.15567217767238617,0.30725863575935364,-0.34114497900009155,-9.89354133605957
1745662736.6195955,0.0055973222479224205,-0.003712924662977457,-0.15589770674705505,0.36118432879447937,-0.3622264266014099,-9.780675888061523
1745662736.6526806,-0.008037162013351917,-0.008470715954899788,-0.15683478116989136,0.24561533331871033,-0.327769935131073,-9.598173141479492
1745662736.653234,0.002368706511333585,-0.008201247081160545,-0.15437398850917816,0.47943615913391113,-0.5194650292396545,-9.749120712280273
1745662736.6564207,-0.00728404987603426,-0.005415364168584347,-0.15265601873397827,0.2937832474708557,-0.1894860863685608,-9.96290397644043
1745662736.6596587,-0.006120241247117519,-0.00535869924351573,-0.15433813631534576,0.2542761266231537,-0.523335337638855,-9.968823432922363
1745662736.69409,-0.004849467892199755,-0.010002203285694122,-0.15127168595790863,0.40248608589172363,-0.239526629447937,-9.435142517089844
1745662736.7011518,-0.011030985042452812,-0.004021308850497007,-0.15405884385108948,0.24897751212120056,-0.3183844983577728,-9.72373104095459
1745662736.7049198,-0.002519655739888549,-0.014027823694050312,-0.1530364751815796,0.44985833764076233,-0.36883801221847534,-9.98875617980957
1745662736.705993,-0.007061691023409367,-0.005509000271558762,-0.15318909287452698,0.2701945900917053,-0.14283546805381775,-9.8917818069458
1745662736.708798,0.0011603806633502245,-0.004420997574925423,-0.15397775173187256,0.42651301622390747,-0.42632246017456055,-9.62116527557373
1745662736.7458243,0.0023648471105843782,-0.011679448187351227,-0.15200072526931763,0.2955188751220703,-0.13339921832084656,-9.572833061218262
1745662736.7459788,-0.0016755337128415704,-0.007667112164199352,-0.1520499736070633,0.40356630086898804,-0.3506384789943695,-9.938962936401367
1745662736.7460551,0.00013994568143971264,-0.005700000561773777,-0.15241581201553345,0.3204699456691742,-0.27614790201187134,-9.941128730773926
1745662736.746104,0.010471402667462826,-0.004903251770883799,-0.15347428619861603,0.2645687460899353,-0.24255843460559845,-9.67192554473877
1745662736.7820523,0.003925647120922804,-0.005879270378500223,-0.1521306037902832,0.25462308526039124,-0.20132604241371155,-9.568265914916992
1745662736.7842429,0.0005975121748633683,-0.004491910338401794,-0.15156175196170807,0.34791404008865356,-0.5119218826293945,-9.745601654052734
1745662736.786009,-0.0007484741508960724,-0.00850975513458252,-0.15150755643844604,0.29800182580947876,-0.2881370484828949,-9.907718658447266
1745662736.7871583,-0.002729580970481038,-0.0025875107385218143,-0.15065060555934906,0.38484445214271545,-0.3398948311805725,-9.879045486450195
1745662736.8271239,0.0002272692508995533,-0.008730362169444561,-0.15083056688308716,0.4202801585197449,-0.3797260820865631,-9.711182594299316
1745662736.8290539,-0.0019962687510997057,-0.004928681068122387,-0.15181732177734375,0.20389357209205627,-0.2031126469373703,-9.74792194366455
1745662736.8298144,-0.002411831868812442,-0.0073721883818507195,-0.15128901600837708,0.45805057883262634,-0.41973167657852173,-9.722277641296387
1745662736.832242,-0.004986866377294064,-0.005093100015074015,-0.15129637718200684,0.27752014994621277,-0.2056305855512619,-9.761250495910645
1745662736.8654358,0.002620789222419262,-0.005422004032880068,-0.15259338915348053,0.4359574317932129,-0.3221326768398285,-9.844868659973145
1745662736.8670113,-0.0012167670065537095,-0.009227046743035316,-0.15328645706176758,0.33101844787597656,-0.22240817546844482,-9.836050033569336
1745662736.8697667,0.00579096470028162,-0.003358714748173952,-0.15434077382087708,0.32113805413246155,-0.23865632712841034,-9.75810432434082
1745662736.8710911,0.0011348814005032182,-0.008795522153377533,-0.15217985212802887,0.4210924208164215,-0.36048072576522827,-9.681374549865723
1745662736.873682,0.01371784508228302,-0.005443707574158907,-0.15420883893966675,0.2572965621948242,-0.13638518750667572,-9.785611152648926
1745662736.910073,0.012443442828953266,-0.0017782002687454224,-0.15537795424461365,0.39907947182655334,-0.43559160828590393,-9.931193351745605
1745662736.911689,0.009323595091700554,-0.014392058365046978,-0.15365615487098694,0.38070952892303467,-0.21803751587867737,-9.744344711303711
1745662736.9124393,0.010434219613671303,0.002095934934914112,-0.15373340249061584,0.2953648865222931,-0.3086227774620056,-9.717643737792969
1745662736.9159708,0.010240749455988407,-0.012980866245925426,-0.1540314257144928,0.4340697228908539,-0.32703346014022827,-9.760058403015137
1745662736.9533415,0.019575219601392746,-0.005770586431026459,-0.1545741856098175,0.267980694770813,-0.1848543882369995,-9.885209083557129
1745662736.9553099,0.012420707382261753,-0.006630973424762487,-0.15714825689792633,0.4769476056098938,-0.39302366971969604,-9.76141357421875
1745662736.9578276,0.01800096407532692,-0.008242467418313026,-0.15254351496696472,0.24166551232337952,-0.2458939105272293,-9.69160270690918
1745662736.9595366,0.014476398006081581,-0.006033352576196194,-0.15492983162403107,0.3990200161933899,-0.32462450861930847,-9.686604499816895
1745662736.9639802,0.008197300136089325,-0.012123612686991692,-0.152635857462883,0.3295787274837494,-0.4279410243034363,-9.878732681274414
1745662736.9960601,0.025076311081647873,0.00025860933237709105,-0.15312443673610687,0.2739458680152893,-0.23271068930625916,-9.815820693969727
1745662737.0020316,-0.002948165638372302,-0.011348032392561436,-0.15450532734394073,0.4600217342376709,-0.49549436569213867,-9.701888084411621
1745662737.0051663,0.020412566140294075,-0.006591878831386566,-0.1521245688199997,0.26330190896987915,-0.25426238775253296,-9.780566215515137
1745662737.0100806,0.0016011728439480066,-0.007327681872993708,-0.15509626269340515,0.4673140048980713,-0.4261583387851715,-9.85339641571045
1745662737.0458481,0.008635828271508217,-0.007749973796308041,-0.15389707684516907,0.19339102506637573,-0.25952109694480896,-9.78271198272705
1745662737.0469732,0.009646834805607796,-0.0037737831007689238,-0.1513056755065918,0.45587509870529175,-0.3390602767467499,-9.613713264465332
1745662737.0480514,0.0008415997726842761,-0.0133314598351717,-0.15450015664100647,0.3565109968185425,-0.2878614068031311,-9.777115821838379
1745662737.0504189,0.014484268613159657,-0.0055975643917918205,-0.15379230678081512,0.3884369134902954,-0.2918100357055664,-9.921939849853516
1745662737.0824616,0.004520156886428595,-0.005777019541710615,-0.15268422663211823,0.39716246724128723,-0.28268319368362427,-9.758768081665039
1745662737.0853522,0.011180849745869637,-0.005007866770029068,-0.15477412939071655,0.27154502272605896,-0.23113088309764862,-9.705102920532227
1745662737.0880966,0.010187693871557713,-0.010152792558073997,-0.15412762761116028,0.4384240210056305,-0.4064219892024994,-9.796208381652832
1745662737.0900512,0.01334842573851347,-0.012194831855595112,-0.15217521786689758,0.24316859245300293,-0.17850132286548615,-9.898898124694824
1745662737.095001,0.021387139335274696,-0.0014983551809564233,-0.15365126729011536,0.4422827661037445,-0.36394602060317993,-9.717628479003906
1745662737.129636,0.008173970505595207,-0.008012110367417336,-0.155466228723526,0.41691654920578003,-0.2731214165687561,-9.532662391662598
1745662737.1297677,0.0008721236372366548,-0.01045927219092846,-0.15485796332359314,0.3141348659992218,-0.3848491609096527,-9.787567138671875
1745662737.1298163,0.01811002753674984,-0.004730642773211002,-0.15312640368938446,0.4209674894809723,-0.3529711365699768,-9.947404861450195
1745662737.130357,-0.007499538362026215,-0.006204000674188137,-0.15428073704242706,0.22626373171806335,-0.33302298188209534,-9.836952209472656
1745662737.1681795,0.015187469311058521,-0.006662454456090927,-0.15408870577812195,0.37323158979415894,-0.3994460105895996,-9.571985244750977
1745662737.172674,-0.009056523442268372,-0.006880675908178091,-0.1525568962097168,0.4059446454048157,-0.34516438841819763,-9.6722412109375
1745662737.174806,0.010009766556322575,-0.0032093406189233065,-0.15265676379203796,0.2809213697910309,-0.24892301857471466,-10.010951042175293
1745662737.177733,7.03876867191866e-05,-0.009630453772842884,-0.15275295078754425,0.4502336382865906,-0.33664917945861816,-9.85429859161377
1745662737.21119,0.00678697694092989,-0.0038005043752491474,-0.15387488901615143,0.24008163809776306,-0.17481721937656403,-9.664268493652344
1745662737.2118275,0.006551189813762903,-0.0063979909755289555,-0.15403030812740326,0.4586637616157532,-0.4095209240913391,-9.721461296081543
1745662737.2141378,0.013891111128032207,-0.009203769266605377,-0.1525229662656784,0.2110309600830078,-0.16734109818935394,-9.887436866760254
1745662737.2203097,0.012016604654490948,-0.005638728383928537,-0.15386192500591278,0.398330956697464,-0.33954209089279175,-9.810073852539062
1745662737.2212496,0.011810997501015663,-0.004669646732509136,-0.15496642887592316,0.34098386764526367,-0.24148467183113098,-9.625242233276367
1745662737.254196,0.011830675415694714,-0.003393185557797551,-0.15402752161026,0.33124789595603943,-0.3156510293483734,-9.698974609375
1745662737.2567098,0.003408874152228236,-0.0058942860923707485,-0.15277427434921265,0.42535537481307983,-0.356116384267807,-9.664715766906738
1745662737.2597368,0.010690746828913689,0.0018170441035181284,-0.15126551687717438,0.27853885293006897,-0.16129717230796814,-9.782809257507324
1745662737.261204,0.006300693843513727,-0.005383879411965609,-0.15058043599128723,0.40005064010620117,-0.4315275251865387,-9.912029266357422
1745662737.2988272,0.01697610504925251,-0.0015105854254215956,-0.15316838026046753,0.26405754685401917,-0.15625441074371338,-9.777447700500488
1745662737.3027055,0.00793534331023693,-0.0012370891636237502,-0.15165993571281433,0.43616384267807007,-0.38232338428497314,-9.675500869750977
1745662737.3066235,0.010405364446341991,-0.007116527762264013,-0.15267005562782288,0.30868351459503174,-0.3071093261241913,-9.782736778259277
1745662737.3080537,0.009282853454351425,0.0030088149942457676,-0.1520063877105713,0.31333059072494507,-0.3167828619480133,-9.808432579040527
1745662737.3402138,-0.0004786161589436233,-0.002980269957333803,-0.15049251914024353,0.3266727030277252,-0.47642746567726135,-9.740748405456543
1745662737.3422973,0.01486129779368639,0.002301553962752223,-0.15063028037548065,0.2764131426811218,-0.22685246169567108,-9.692428588867188
1745662737.3448539,-0.00679060211405158,-0.009284725412726402,-0.1514420360326767,0.471092164516449,-0.4357312321662903,-9.886483192443848
1745662737.347214,0.009701033122837543,0.0011741349007934332,-0.1513100415468216,0.21553055942058563,-0.25265660881996155,-9.953081130981445
1745662737.3503466,0.0009273469331674278,1.848628744482994e-05,-0.1516943871974945,0.4086170196533203,-0.3955441415309906,-9.650423049926758
1745662737.3851383,-0.0007876328309066594,-0.006860776804387569,-0.1516513228416443,0.28317034244537354,-0.2658423185348511,-9.616549491882324
1745662737.3867254,0.004533157683908939,5.4184441978577524e-05,-0.1520976573228836,0.4084321856498718,-0.3451707661151886,-9.888222694396973
1745662737.3881483,-0.003046998055651784,-0.004193909000605345,-0.15127280354499817,0.3688942790031433,-0.28816038370132446,-9.91787338256836
1745662737.3900611,0.011233833618462086,0.0015608281828463078,-0.15236137807369232,0.30327218770980835,-0.21942158043384552,-9.712993621826172
1745662737.4251301,-0.0019806036725640297,-0.007349072489887476,-0.15262839198112488,0.4766407608985901,-0.31698545813560486,-9.673097610473633
1745662737.4274662,0.011844494380056858,-0.0027208137325942516,-0.15155185759067535,0.2639734148979187,-0.2101798951625824,-9.95469856262207
1745662737.427543,0.012890334241092205,-0.0014089796459302306,-0.15285532176494598,0.4134143888950348,-0.3363474905490875,-9.787243843078613
1745662737.4292061,0.011426855809986591,-0.0015393123030662537,-0.15299175679683685,0.3138953149318695,-0.21714314818382263,-9.543205261230469
1745662737.429671,0.015479031018912792,0.0016859102761372924,-0.15208062529563904,0.37486547231674194,-0.28174251317977905,-9.701081275939941
1745662737.470836,0.0044542523100972176,-0.010016221553087234,-0.15405133366584778,0.3585098385810852,-0.32921096682548523,-9.990255355834961
1745662737.4761097,0.010405130684375763,0.0007996559143066406,-0.15494361519813538,0.4175799489021301,-0.3491596579551697,-9.622403144836426
1745662737.4779217,-0.0026036598719656467,-0.011110039427876472,-0.15231339633464813,0.32381340861320496,-0.3948364555835724,-9.727670669555664
1745662737.481926,0.013595295138657093,0.0011149253696203232,-0.15203025937080383,0.33263006806373596,-0.23163369297981262,-9.916910171508789
1745662737.513835,-0.004251823760569096,-0.004044243600219488,-0.1528487652540207,0.34955042600631714,-0.39837542176246643,-9.787921905517578
1745662737.5162902,0.016154516488313675,-0.001797399716451764,-0.15399686992168427,0.31512153148651123,-0.18022167682647705,-9.587479591369629
1745662737.519421,-0.0006340788677334785,-0.00843268632888794,-0.15354382991790771,0.4908924102783203,-0.36627092957496643,-9.806577682495117
1745662737.5205135,0.009730182588100433,-0.007615809328854084,-0.15336909890174866,0.2655225992202759,-0.24767927825450897,-10.004295349121094
1745662737.5550115,0.014723393134772778,0.004741405136883259,-0.15328392386436462,0.4180696904659271,-0.3781864047050476,-9.710362434387207
1745662737.5570858,0.013132736086845398,-0.0076658399775624275,-0.1532130241394043,0.2929846942424774,-0.13344377279281616,-9.516745567321777
1745662737.5592098,0.00932062603533268,-0.00418523233383894,-0.15350010991096497,0.4192465841770172,-0.3687081038951874,-9.797431945800781
1745662737.5621405,0.013383288867771626,-0.007705943193286657,-0.15353016555309296,0.4113190770149231,-0.2705267667770386,-9.986870765686035
1745662737.5655477,0.01839575171470642,0.004372019320726395,-0.15541096031665802,0.2573630213737488,-0.2869364023208618,-9.87971019744873
1745662737.6066842,0.017841236665844917,-0.009336866438388824,-0.15339216589927673,0.43416541814804077,-0.3492370545864105,-9.548601150512695
1745662737.606729,0.012443860061466694,-0.006226669996976852,-0.15424685180187225,0.2829412817955017,-0.21439483761787415,-9.72938346862793
1745662737.6068006,0.012283595278859138,-0.007610735949128866,-0.15446415543556213,0.4041929841041565,-0.39342206716537476,-9.653080940246582
1745662737.6068354,0.019205186516046524,-0.011454095132648945,-0.15397177636623383,0.3254241347312927,-0.154915452003479,-9.68026065826416
1745662737.643446,0.012718811631202698,-0.006587049458175898,-0.15660493075847626,0.4139305651187897,-0.31723612546920776,-9.868375778198242
1745662737.6456656,0.01437003631144762,-0.008637497201561928,-0.15534690022468567,0.3499573767185211,-0.3692561984062195,-9.774505615234375
1745662737.6492364,0.018426304683089256,-0.0032972916960716248,-0.15273810923099518,0.23465017974376678,-0.2099362164735794,-9.649381637573242
1745662737.651838,0.01071656309068203,-0.010835978202521801,-0.1556784063577652,0.4217154383659363,-0.5335510969161987,-9.765384674072266
1745662737.685306,0.022778375074267387,-0.007760132197290659,-0.15552158653736115,0.25567829608917236,-0.15668602287769318,-9.837870597839355
1745662737.686839,0.006309134420007467,-0.0059122005477547646,-0.154689222574234,0.4526677131652832,-0.5036500096321106,-9.856508255004883
1745662737.687995,0.016143623739480972,-0.009669085033237934,-0.15391024947166443,0.2817235291004181,-0.23715245723724365,-9.678613662719727
1745662737.6995857,0.004008367192000151,-0.005734017584472895,-0.15463195741176605,0.40434032678604126,-0.4617978632450104,-9.745904922485352
1745662737.6996512,0.008171861991286278,-0.010891619138419628,-0.15374045073986053,0.37568721175193787,-0.3687230944633484,-9.807765007019043
1745662737.727236,0.003984340000897646,-0.0032520145177841187,-0.15562888979911804,0.2979671359062195,-0.3211948275566101,-9.84559440612793
1745662737.7298193,0.0015784960705786943,-0.0123470863327384,-0.15363439917564392,0.4269470274448395,-0.39955753087997437,-9.692713737487793
1745662737.7335758,0.00731209572404623,-0.006694273557513952,-0.15434202551841736,0.37469926476478577,-0.2070046216249466,-9.721563339233398
1745662737.7357397,0.00623369263485074,-0.008654569275677204,-0.15605850517749786,0.41090530157089233,-0.3625020384788513,-9.90440845489502
1745662737.770644,0.004600134678184986,-0.008951621130108833,-0.15597938001155853,0.2891130745410919,-0.144979327917099,-9.837174415588379
1745662737.7734041,0.010315073654055595,-0.005800326820462942,-0.157570943236351,0.3800482749938965,-0.40234464406967163,-9.754545211791992
1745662737.7759616,0.013362717814743519,-0.012685162015259266,-0.15497881174087524,0.32540515065193176,-0.24704071879386902,-9.696183204650879
1745662737.7785351,0.024757977575063705,-0.0027921448927372694,-0.15636374056339264,0.3786104619503021,-0.2632591128349304,-9.7708158493042
1745662737.813861,0.006362126674503088,-0.014135831966996193,-0.15648746490478516,0.35355910658836365,-0.31421250104904175,-9.829303741455078
1745662737.818254,0.019880220293998718,-0.004269734025001526,-0.15562379360198975,0.3212595283985138,-0.33493560552597046,-9.714205741882324
1745662737.8200004,0.006972479168325663,-0.0019577182829380035,-0.15558503568172455,0.3114451766014099,-0.35582536458969116,-9.821102142333984
1745662737.8218966,0.0010771658271551132,-0.00867406278848648,-0.15521585941314697,0.4534516930580139,-0.3873664438724518,-9.721846580505371
1745662737.8559344,0.003269106149673462,-0.008297324180603027,-0.15585196018218994,0.24591763317584991,-0.19660085439682007,-9.749289512634277
1745662737.8645225,0.0018912951927632093,-0.010403644293546677,-0.1570403128862381,0.49735504388809204,-0.45386838912963867,-9.831704139709473
1745662737.8646314,0.009657812304794788,-0.00675969710573554,-0.15476107597351074,0.27828818559646606,-0.19259074330329895,-9.820093154907227
1745662737.8647063,0.0039063431322574615,-0.00412001833319664,-0.15640267729759216,0.4150565266609192,-0.3447946012020111,-9.707377433776855
1745662737.8998985,0.0048764413222670555,-0.011290320195257664,-0.15506631135940552,0.33561161160469055,-0.27965566515922546,-9.767658233642578
1745662737.9029648,0.013837928883731365,-0.006457009352743626,-0.15783527493476868,0.31667354702949524,-0.21626782417297363,-9.846879005432129
1745662737.9047208,0.01413204986602068,-0.00945482961833477,-0.15600398182868958,0.4730481505393982,-0.36495548486709595,-9.770275115966797
1745662737.90691,0.020598409697413445,-0.003241756232455373,-0.15898099541664124,0.1967889368534088,-0.1289137601852417,-9.719828605651855
1745662737.9096699,0.0066998302936553955,-0.010661822743713856,-0.15775138139724731,0.4496607780456543,-0.5651100873947144,-9.679821014404297
1745662737.9432616,0.014410276897251606,-0.010280349291861057,-0.15531055629253387,0.2594687044620514,-0.2537423074245453,-9.774629592895508
1745662737.9471729,0.012128138914704323,-0.0020536589436233044,-0.1557902991771698,0.35974979400634766,-0.5237487554550171,-9.864980697631836
1745662737.948523,0.00947154127061367,-0.008190259337425232,-0.1559487283229828,0.3030412197113037,-0.2291157990694046,-9.734319686889648
1745662737.9526584,0.015109626576304436,-0.005576523952186108,-0.16368244588375092,0.36743980646133423,-0.3516944348812103,-9.863039016723633
1745662737.9922338,0.01649842970073223,0.0007242268184199929,-0.16373668611049652,0.2705070972442627,-0.3209318518638611,-9.802302360534668
1745662737.9923694,0.01696508191525936,-0.006178644485771656,-0.16339191794395447,0.41307178139686584,-0.41998404264450073,-9.739663124084473
1745662737.992483,0.007364647928625345,-0.004851798061281443,-0.16675403714179993,0.22850251197814941,-0.22915780544281006,-9.762651443481445
1745662737.9927304,0.009770099073648453,-0.002214027801528573,-0.1636439859867096,0.45430976152420044,-0.5856488347053528,-9.804268836975098
1745662738.030183,0.005156543105840683,-0.005181415472179651,-0.16471311450004578,0.2619590759277344,-0.2675631642341614,-9.731602668762207
1745662738.0314422,0.002551536774262786,0.000988308689557016,-0.16451933979988098,0.3457813560962677,-0.4891200661659241,-9.807374000549316
1745662738.032477,-6.205122917890549e-05,-0.006797728128731251,-0.16402465105056763,0.3481972813606262,-0.31228333711624146,-9.753751754760742
1745662738.0337229,-2.9139546313672327e-05,0.0015614076983183622,-0.16695936024188995,0.2964431047439575,-0.31349611282348633,-9.776355743408203
1745662738.0710845,0.00093448645202443,-0.005894988775253296,-0.1656261682510376,0.4742773175239563,-0.36616870760917664,-9.751733779907227
1745662738.0735292,-0.000897299381904304,-0.003261659760028124,-0.16667233407497406,0.24767224490642548,-0.20871801674365997,-9.82844352722168
1745662738.075878,0.012101279571652412,-0.0020706686191260815,-0.16801674664020538,0.47522926330566406,-0.3848072588443756,-9.773885726928711
1745662738.0770276,-0.0009190846467390656,-0.00531743373721838,-0.1661919355392456,0.2388121783733368,-0.15658050775527954,-9.675773620605469
1745662738.0805094,0.009771621786057949,0.001380531000904739,-0.16698944568634033,0.3543086647987366,-0.40171757340431213,-9.800189971923828
1745662738.1137917,0.0017795783933252096,-0.008239754475653172,-0.16815762221813202,0.30383074283599854,-0.22740869224071503,-9.856449127197266
1745662738.115999,0.016604024916887283,-0.0003208574780728668,-0.16841453313827515,0.3137001395225525,-0.32702046632766724,-9.855087280273438
1745662738.11703,0.00841087382286787,-0.007499583996832371,-0.16786113381385803,0.4317156672477722,-0.26341694593429565,-9.687777519226074
1745662738.1180863,0.010297596454620361,-0.005230703856796026,-0.16845135390758514,0.2786467671394348,-0.3553927540779114,-9.757917404174805
1745662738.1576877,0.010645626112818718,-0.004581498447805643,-0.1668812334537506,0.4364963471889496,-0.399270623922348,-9.762678146362305
1745662738.1598456,-0.0015727661084383726,-0.006042909808456898,-0.165619894862175,0.22187428176403046,-0.43587636947631836,-9.84106731414795
1745662738.1615014,0.015668299049139023,0.0003728075826074928,-0.1661461591720581,0.3661494851112366,-0.3558579087257385,-9.703980445861816
1745662738.1636896,-0.0052154273726046085,-0.007838658057153225,-0.16844120621681213,0.5314573645591736,-0.8101681470870972,-9.668245315551758
1745662738.2004247,-0.01139155589044094,0.010011231526732445,-0.16187115013599396,0.29805660247802734,-0.4824465811252594,-10.077295303344727
1745662738.2025716,-0.023912617936730385,-0.007001403719186783,-0.16030080616474152,0.6868088841438293,-0.5053621530532837,-9.615449905395508
1745662738.2054837,-0.021211428567767143,-0.0018688238924369216,-0.16099432110786438,0.6362692713737488,0.08364658802747726,-9.617776870727539
1745662738.2088022,-0.00620886217802763,-0.005420790519565344,-0.1646140217781067,0.6280586123466492,-0.1761547029018402,-10.29539680480957
1745662738.2103605,-0.005457995925098658,-0.010593460872769356,-0.17080219089984894,0.09274949133396149,0.17530301213264465,-10.079529762268066
1745662738.243616,0.0020684883929789066,-0.001459016464650631,-0.1713227927684784,0.2680250108242035,-0.3630554974079132,-9.253817558288574
1745662738.2474296,-0.003956903703510761,-0.009450095705688,-0.17243215441703796,0.2389202117919922,0.19075867533683777,-9.282344818115234
1745662738.250046,0.016849448904395103,-0.013623343780636787,-0.17161163687705994,0.30712711811065674,-0.2830175757408142,-10.307586669921875
1745662738.2539697,0.0365263856947422,-0.005329349543899298,-0.17063185572624207,0.5666260123252869,0.16777987778186798,-10.11149787902832
1745662738.2896552,0.050062209367752075,-0.0010147758293896914,-0.1701110154390335,0.2674826383590698,-0.3038719594478607,-9.606593132019043
1745662738.2929218,0.059354495257139206,-0.01682390831410885,-0.16681860387325287,0.47140955924987793,-0.5061014890670776,-9.323395729064941
1745662738.295757,0.041554611176252365,-0.01184802781790495,-0.16235044598579407,0.31112024188041687,-0.5599393844604492,-10.016352653503418
1745662738.299364,0.034515537321567535,-0.0007366151548922062,-0.16012151539325714,0.3176780939102173,-0.8867002725601196,-10.192241668701172
1745662738.328683,0.015766233205795288,-0.0027412690687924623,-0.16176509857177734,0.1369812786579132,-0.4487503468990326,-9.407554626464844
1745662738.3303084,0.03150470182299614,-0.0076229749247431755,-0.1664811372756958,0.27035775780677795,-0.21250569820404053,-9.653895378112793
1745662738.3325648,0.04004255309700966,-0.008270548656582832,-0.16635991632938385,0.3299040198326111,-0.5565070509910583,-9.86984920501709
1745662738.3332148,0.02789677307009697,-0.008732185699045658,-0.16478069126605988,0.4670373797416687,-0.5414243936538696,-9.8662691116333
1745662738.3367047,0.022727373987436295,-0.0019706478342413902,-0.16093528270721436,0.2110632359981537,-0.6069478988647461,-9.851046562194824
1745662738.3728352,0.012560471892356873,-0.00796329416334629,-0.15792463719844818,0.516501784324646,-0.6077544093132019,-9.567361831665039
1745662738.37493,-0.00556649174541235,-0.01042085699737072,-0.16042393445968628,0.33493664860725403,-0.3663102984428406,-9.776595115661621
1745662738.3754997,0.002148773754015565,-0.0008678015437908471,-0.16221913695335388,0.4340059161186218,-0.3490920662879944,-9.965864181518555
1745662738.380551,-0.016306385397911072,-0.008585234172642231,-0.16721470654010773,0.31193506717681885,-0.1991528421640396,-9.826066017150879
1745662738.4155407,0.011655924841761589,-0.004690571688115597,-0.16565540432929993,0.28686830401420593,-0.23556554317474365,-9.563265800476074
1745662738.416214,-0.013337296433746815,-0.010955068282783031,-0.16636617481708527,0.44394057989120483,-0.2389824390411377,-9.632478713989258
1745662738.4174519,0.018908198922872543,-0.0018657408654689789,-0.1634448617696762,0.21810555458068848,-0.1774912178516388,-9.970254898071289
1745662738.4175298,0.012730213813483715,-0.003421683330088854,-0.16352489590644836,0.46556368470191956,-0.22917261719703674,-9.784392356872559
1745662738.418628,0.041498325765132904,-0.0033625599462538958,-0.16437086462974548,0.2217646837234497,-0.038224540650844574,-9.628093719482422
1745662738.4603577,0.041716232895851135,-0.004809149540960789,-0.1631600558757782,0.48302268981933594,-0.2712334096431732,-9.765571594238281
1745662738.4604163,0.05262909457087517,-0.010999519377946854,-0.1624418944120407,0.2882381081581116,-0.17529229819774628,-9.97612476348877
1745662738.461826,0.04798002168536186,0.0019105704268440604,-0.1624325066804886,0.27172350883483887,-0.45438796281814575,-9.811187744140625
1745662738.4643025,0.034827254712581635,-0.010793927125632763,-0.16378375887870789,0.3845757842063904,-0.5169833302497864,-9.496194839477539
1745662738.5007584,0.03358716145157814,-0.006465479731559753,-0.16352199018001556,0.3079662621021271,-0.518027126789093,-9.776568412780762
1745662738.5048156,0.00171031488571316,-0.009162419475615025,-0.16333109140396118,0.5246102213859558,-0.7582324147224426,-10.029768943786621
1745662738.5049686,0.01173805259168148,-0.005258720368146896,-0.1630639135837555,0.2770056426525116,-0.3925464153289795,-9.81947135925293
1745662738.5061972,-0.010487658903002739,-0.004524624440819025,-0.1637164056301117,0.44289761781692505,-0.5916963219642639,-9.5632905960083
1745662738.5082781,-0.010020018555223942,-0.016700278967618942,-0.16223226487636566,0.3674775958061218,-0.32277727127075195,-9.73155403137207
1745662738.55091,0.0229281485080719,-0.006878018379211426,-0.16356390714645386,0.3661257326602936,-0.2700445055961609,-9.582947731018066
1745662738.5532823,0.031166961416602135,-0.003463165368884802,-0.162178173661232,0.4186694622039795,-0.5883680582046509,-9.78352165222168
1745662738.5575197,0.01834159903228283,-0.009219752624630928,-0.16199788451194763,0.4147290587425232,-0.2776586711406708,-9.936738967895508
1745662738.5592263,0.029222410172224045,-0.0034435722045600414,-0.16168586909770966,0.2611570954322815,-0.4718529284000397,-9.88615608215332
1745662738.5943847,0.014986042864620686,-0.007261841092258692,-0.16092698276042938,0.38731470704078674,-0.3478873670101166,-9.529520988464355
1745662738.594434,0.02121758833527565,-0.00666725542396307,-0.1618395745754242,0.2262471616268158,-0.3465653955936432,-9.669177055358887
1745662738.6025639,0.020142963156104088,-0.006055109202861786,-0.16209134459495544,0.3881629705429077,-0.38772350549697876,-9.964042663574219
1745662738.602644,0.011838791891932487,-0.009264609776437283,-0.16205938160419464,0.23505079746246338,-0.4046965539455414,-9.922772407531738
1745662738.6345146,0.027103275060653687,0.00025295745581388474,-0.159906268119812,0.33158576488494873,-0.46851032972335815,-9.607400894165039
1745662738.6373677,0.0008575778338126838,-0.009082920849323273,-0.16092725098133087,0.36162611842155457,-0.5152308344841003,-9.57758617401123
1745662738.6421127,0.01753833517432213,-0.005937365815043449,-0.1574281007051468,0.3816528916358948,-0.36914151906967163,-9.898491859436035
1745662738.6422555,-0.0040496294386684895,-0.0069877454079687595,-0.16006596386432648,0.5540259480476379,-0.44407686591148376,-9.955879211425781
1745662738.6740499,0.009653997607529163,-0.0015749726444482803,-0.15883305668830872,0.268045574426651,-0.15041176974773407,-9.713712692260742
1745662738.6876428,-0.003289587330073118,-0.004546436946839094,-0.16092093288898468,0.44424280524253845,-0.4151471257209778,-9.597023963928223
