timestamp,angular_vel_x,angular_vel_y,angular_vel_z,linear_acc_x,linear_acc_y,linear_acc_z
1745732021.3552098,-0.0035214577801525593,0.0013648283202201128,0.0006461870507337153,-0.20588688552379608,0.3292277753353119,-9.814863204956055
1745732021.371058,0.008155537769198418,-0.003467156318947673,0.001356104970909655,-0.32244500517845154,0.5800126194953918,-9.750621795654297
1745732021.3925107,-0.0009679539944045246,5.151762252353365e-06,0.0010417411103844643,-0.21758624911308289,0.290272057056427,-9.782588005065918
1745732021.3966272,0.00042801740346476436,-0.003958818502724171,0.0001333705149590969,-0.2853408455848694,0.5839829444885254,-9.754753112792969
1745732021.400117,0.006056210957467556,0.0004956609918735921,0.0005732496501877904,-0.2808055579662323,0.31209999322891235,-9.829565048217773
1745732021.4170308,-0.004665409214794636,-0.003368771867826581,0.0010887677781283855,-0.2392311841249466,0.5266648530960083,-9.74499797821045
1745732021.421415,0.009115340188145638,0.0008910690667107701,0.00043042399920523167,-0.3343350887298584,0.43858298659324646,-9.743992805480957
1745732021.4228613,-0.006548839155584574,-0.0019508317345753312,0.0016240309923887253,-0.1858823597431183,0.36068353056907654,-9.795526504516602
1745732021.4297154,0.009987413883209229,-0.0014527043094858527,-0.00011196955892955884,-0.3447282016277313,0.5898046493530273,-9.78140926361084
1745732021.4409275,-0.0012851470382884145,-0.00024376335204578936,-1.02572375908494e-05,-0.20513756573200226,0.28059205412864685,-9.761225700378418
1745732021.4431899,0.0012735394993796945,-0.003686807584017515,-0.0002542502770666033,-0.31028103828430176,0.6144819259643555,-9.725831031799316
1745732021.444848,0.005847858730703592,0.0005488061578944325,0.0007264796295203269,-0.26066622138023376,0.3102509379386902,-9.843575477600098
1745732021.446398,-0.0019597525242716074,-0.002693803980946541,-0.0006660638027824461,-0.24443864822387695,0.526311993598938,-9.765460014343262
1745732021.4485362,0.00910119153559208,0.0008840186637826264,0.0012003750307485461,-0.3204886019229889,0.411485493183136,-9.756706237792969
1745732021.4910202,-0.005477954633533955,-0.0025167022831737995,0.0002802145027089864,-0.20224587619304657,0.4481639862060547,-9.754509925842285
1745732021.4931676,0.011093859560787678,-0.0012323894770815969,-0.0007490826537832618,-0.34452176094055176,0.5157486796379089,-9.810453414916992
1745732021.4932375,-0.004136047791689634,6.072306860005483e-05,0.002040904015302658,-0.19579526782035828,0.3253138065338135,-9.797791481018066
1745732021.4932976,0.0070170252583920956,-0.0018894178792834282,0.0009485097834840417,-0.32134175300598145,0.5917942523956299,-9.707385063171387
1745732021.527813,-0.0005852918257005513,-0.00015751458704471588,-0.00078958721132949,-0.23120936751365662,0.2912124991416931,-9.803027153015137
1745732021.529568,0.0012532861437648535,-0.0024169066455215216,0.0007918851333670318,-0.27644142508506775,0.6051108837127686,-9.772520065307617
1745732021.5317535,0.007364966906607151,0.001119363703764975,4.17239498347044e-05,-0.2853594124317169,0.3358571231365204,-9.806520462036133
1745732021.5352063,-0.004671985749155283,-0.0027808796148747206,0.0003653155581559986,-0.21614356338977814,0.4979449212551117,-9.729280471801758
1745732021.5698266,0.01015600934624672,-0.0008745112572796643,-0.0009370488114655018,-0.3228656053543091,0.48330432176589966,-9.782148361206055
1745732021.575185,-0.006426541600376368,-0.00207881978712976,0.0010084857931360602,-0.19733120501041412,0.37187638878822327,-9.792887687683105
1745732021.5783942,0.008817234076559544,-0.0018796867225319147,0.00038215192034840584,-0.346885085105896,0.5925389528274536,-9.76484489440918
1745732021.5794816,-0.0033171933609992266,-0.0005347966216504574,0.00013756770931649953,-0.20925530791282654,0.27442434430122375,-9.789637565612793
1745732021.6132343,0.004565219860523939,-0.0035983205307275057,5.856952702743001e-05,-0.3030051290988922,0.6112400889396667,-9.753403663635254
1745732021.6143222,0.00425372738391161,0.0011395468609407544,0.0007755436236038804,-0.26656803488731384,0.3236370086669922,-9.806062698364258
1745732021.6177387,-0.0024943468160927296,-0.0026258628349751234,0.001359202666208148,-0.23966054618358612,0.5215961337089539,-9.734277725219727
1745732021.6202714,0.00947973970323801,0.0007942559313960373,-0.0020329526159912348,-0.31673040986061096,0.4236045777797699,-9.794855117797852
1745732021.622944,0.004035226069390774,-0.0035423352383077145,-0.0007264800369739532,-0.2960657477378845,0.598536491394043,-9.75722599029541
1745732021.6575449,0.003206684021279216,0.0006919410079717636,-0.00041970115853473544,-0.25969398021698,0.3115609288215637,-9.815488815307617
1745732021.6595387,-0.0013610032619908452,-0.0017501059919595718,0.0021295163314789534,-0.22222912311553955,0.5200287103652954,-9.751154899597168
1745732021.6606133,0.0074143195524811745,-0.0019020544132217765,-0.00031967059476301074,-0.32762929797172546,0.43452149629592896,-9.761661529541016
1745732021.6632874,-0.005074556451290846,-0.002632357180118561,0.002003062516450882,-0.18158850073814392,0.3723532259464264,-9.782886505126953
1745732021.6973462,0.00867830403149128,-0.0017801299691200256,0.0004742051532957703,-0.34641239047050476,0.5362370610237122,-9.781366348266602
1745732021.7003336,-0.0037964284420013428,0.002469720784574747,0.002550862729549408,-0.18737472593784332,0.31443682312965393,-9.776283264160156
1745732021.7012956,0.004102825187146664,-0.00435989024117589,0.0016934594605118036,-0.32052940130233765,0.5910038352012634,-9.75010871887207
1745732021.7036662,0.0033820171374827623,0.0006569923716597259,0.0024678560439497232,-0.2640678286552429,0.3174413740634918,-9.817853927612305
1745732021.7057261,-0.00311521184630692,-0.0028518985491245985,-0.0010061368811875582,-0.25425106287002563,0.5268925428390503,-9.770751953125
1745732021.7422602,0.009367325343191624,5.6733433666522615e-06,0.0019154998008161783,-0.30095088481903076,0.38126781582832336,-9.764983177185059
1745732021.7440896,-0.003689603880047798,-0.0024498323909938335,0.0011542753782123327,-0.20512112975120544,0.47114428877830505,-9.741249084472656
1745732021.745268,0.00833507627248764,-0.0011302775237709284,0.001853135065175593,-0.3530285358428955,0.5068514943122864,-9.798002243041992
1745732021.7480757,-0.004149543587118387,-0.00030589624657295644,0.0006054515251889825,-0.19988450407981873,0.3395325243473053,-9.800359725952148
1745732021.7844927,0.007353991270065308,-0.0017871428281068802,0.0012660989305004478,-0.3422399163246155,0.5820985436439514,-9.733978271484375
1745732021.7855005,0.0005847805878147483,-0.000973245594650507,0.002234848914667964,-0.2237587869167328,0.28152474761009216,-9.789268493652344
1745732021.7884154,0.0005490811308845878,-0.0023483631666749716,0.0008658107253722847,-0.2721458077430725,0.585340142250061,-9.758334159851074
1745732021.7906218,0.005778822116553783,0.001607365207746625,0.0019898710306733847,-0.2907187044620514,0.34337878227233887,-9.797863960266113
1745732021.8285382,-0.004530014004558325,-0.0024133853148669004,3.116745574516244e-05,-0.2207653820514679,0.4762108325958252,-9.750377655029297
1745732021.8295965,0.010116802528500557,0.00012949034862685949,0.0012302270624786615,-0.34251928329467773,0.47202953696250916,-9.779451370239258
1745732021.8331327,-0.004045417997986078,-0.0008219944429583848,0.0004791812098119408,-0.18791304528713226,0.3648207485675812,-9.788228988647461
1745732021.835968,0.007983465678989887,-0.0010415774304419756,0.002615058794617653,-0.3506860136985779,0.5684102773666382,-9.772418022155762
1745732021.8386211,-0.0014139908598735929,0.00010883002687478438,0.0007994243060238659,-0.226215198636055,0.31264016032218933,-9.794580459594727
1745732021.8798802,0.0054490827023983,0.000491170329041779,0.0004899932537227869,-0.2619599997997284,0.3251342177391052,-9.804901123046875
1745732021.8799114,-0.002563402522355318,-0.003518134355545044,0.004098384641110897,-0.24179618060588837,0.524324893951416,-9.789945602416992
1745732021.882708,0.010331133380532265,0.0009940708987414837,-0.0008280356414616108,-0.3252202570438385,0.42235860228538513,-9.781532287597656
1745732021.8879085,-0.004685278050601482,-0.0017512660706415772,0.0006502148462459445,-0.20183932781219482,0.42096948623657227,-9.769393920898438
1745732021.915561,0.008310789242386818,-0.0013105374528095126,0.00118441809900105,-0.3349018096923828,0.49379897117614746,-9.770298957824707
1745732021.9176886,-0.0015705011319369078,-0.0014816211769357324,0.0007602037512697279,-0.1960333287715912,0.3428865075111389,-9.801285743713379
1745732021.9231954,0.004635850433260202,-0.002605670364573598,0.0014027312863618135,-0.32816579937934875,0.6021527051925659,-9.748151779174805
1745732021.923278,0.003939094953238964,-0.000867903814651072,0.00022909748076926917,-0.23555903136730194,0.2942517101764679,-9.794946670532227
1745732021.9563475,-0.0018832329660654068,-0.003637296613305807,0.0022293701767921448,-0.2605038583278656,0.5510708689689636,-9.754613876342773
1745732021.9581513,0.007469134870916605,-0.000409250904340297,-0.0011300393380224705,-0.30479177832603455,0.3826754689216614,-9.805109024047852
1745732021.962207,-0.002945783082395792,-0.0019475057488307357,0.0003841965808533132,-0.21083728969097137,0.46528998017311096,-9.767780303955078
1745732021.9624286,0.008578185923397541,-0.0007295981049537659,-4.1224295273423195e-05,-0.3545859754085541,0.4941190779209137,-9.763506889343262
1745732021.964788,-0.003699934110045433,-0.002617818536236882,0.000911496754270047,-0.1953984946012497,0.32997432351112366,-9.773244857788086
1745732022.0020142,0.0034832630772143602,0.0006829808698967099,0.0009921432938426733,-0.2535736560821533,0.34274300932884216,-9.782490730285645
1745732022.0036619,-0.0013939335476607084,-0.00244215689599514,0.0012447189074009657,-0.262932151556015,0.5682501792907715,-9.744793891906738
1745732022.0050163,0.007306643761694431,0.0011514070210978389,-0.00029702804749831557,-0.2933105230331421,0.38871586322784424,-9.808187484741211
1745732022.0073602,-0.006239512003958225,-0.0012003469746559858,0.0023179189302027225,-0.21333737671375275,0.43105340003967285,-9.781458854675293
1745732022.044623,0.01036248542368412,-0.0005437695072032511,0.00042436301009729505,-0.3322996199131012,0.5154818296432495,-9.748001098632812
1745732022.0462205,-0.004531238693743944,-0.0005957129178568721,0.00023998692631721497,-0.20145480334758759,0.3261135518550873,-9.792264938354492
1745732022.0484955,0.006020457483828068,-0.0022396945860236883,0.00061812624335289,-0.32259342074394226,0.6153043508529663,-9.771905899047852
1745732022.051608,0.001799136633053422,0.0027486009057611227,0.0007971490849740803,-0.2263818234205246,0.2865111529827118,-9.802968978881836
1745732022.0872436,-0.0006759235402569175,-0.0012869639322161674,0.0019277229439467192,-0.26691895723342896,0.5771969556808472,-9.733180046081543
1745732022.0873067,0.007467339280992746,-0.00013173665502108634,-0.00043166213436052203,-0.28388482332229614,0.3697854280471802,-9.795300483703613
1745732022.0894022,-0.0059312377125024796,-0.0014511968474835157,0.0006753591005690396,-0.21592554450035095,0.4674086570739746,-9.784112930297852
1745732022.0937471,0.009118517860770226,-0.0019796371925622225,0.0006670023431070149,-0.3337661623954773,0.4771248698234558,-9.772500038146973
1745732022.0983992,-0.004394621588289738,-0.0015950112137943506,0.0012297467328608036,-0.1853930801153183,0.3608308434486389,-9.760966300964355
1745732022.1323612,0.007665339857339859,-0.001406240975484252,0.0006218002527020872,-0.3403737545013428,0.5683377981185913,-9.74884033203125
1745732022.1351643,-0.0014115629019215703,0.00039244932122528553,0.0018961925525218248,-0.22929596900939941,0.3335641324520111,-9.804291725158691
1745732022.1382945,0.004307872150093317,-0.0015278750797733665,3.458066930761561e-05,-0.3026161193847656,0.5982126593589783,-9.743006706237793
1745732022.1403432,0.0032940469682216644,0.0003904310869984329,0.0005199331790208817,-0.26664668321609497,0.3090474009513855,-9.796712875366211
1745732022.1714694,-0.002313902135938406,-0.0027098706923425198,0.0007374092820100486,-0.21961303055286407,0.5262587666511536,-9.756362915039062
1745732022.178323,0.009697135537862778,-0.0007358792936429381,0.0002809087745845318,-0.32690557837486267,0.44061073660850525,-9.783742904663086
1745732022.180537,-0.007287552114576101,-0.0008397367782890797,0.0013673530193045735,-0.2023835927248001,0.40034231543540955,-9.797541618347168
1745732022.1806178,0.009406689554452896,-0.0014597424305975437,0.0006477387505583465,-0.3498295247554779,0.5402255058288574,-9.748648643493652
1745732022.1816623,-0.0037701569963246584,-0.0005505118751898408,-0.00048757591866888106,-0.1837056577205658,0.3058914542198181,-9.78028392791748
1745732022.2154448,0.004095359239727259,-0.00206557335332036,-9.910958033287898e-05,-0.31376299262046814,0.5991992354393005,-9.756861686706543
1745732022.219781,0.008180132135748863,0.003176280530169606,0.0005210706731304526,-0.31838056445121765,0.38663196563720703,-9.796036720275879
1745732022.2235954,-0.006292496807873249,-0.004011667333543301,-8.626412454759702e-05,-0.20006604492664337,0.44954532384872437,-9.738149642944336
1745732022.2279427,0.00868131686002016,0.0005559948040172458,-0.0001163986962637864,-0.34692272543907166,0.5043627023696899,-9.754798889160156
1745732022.2608085,-0.0032723371405154467,-0.00034450244856998324,0.0007859918987378478,-0.19648906588554382,0.3275702893733978,-9.799086570739746
1745732022.2645416,0.007751050405204296,-0.002494231564924121,2.0654453692259267e-05,-0.3335469365119934,0.5756370425224304,-9.757601737976074
1745732022.267544,0.001957012340426445,-0.0001953217142727226,0.0007896575843915343,-0.21192395687103271,0.3075576424598694,-9.788824081420898
1745732022.2709026,-0.00010476783063495532,-0.003562299534678459,0.0009930540109053254,-0.2859158515930176,0.5993257761001587,-9.736111640930176
1745732022.300145,0.005157153587788343,0.0008867757278494537,-0.0005108420155011117,-0.2746695280075073,0.32168760895729065,-9.796430587768555
1745732022.3029394,-0.001919279806315899,-0.0016586456913501024,0.001829777262173593,-0.22254443168640137,0.521991491317749,-9.752817153930664
1745732022.305958,0.008272727951407433,0.0018842981662601233,3.179912528139539e-05,-0.35098904371261597,0.4397183060646057,-9.792888641357422
1745732022.3100345,-0.005053457338362932,-0.0012769122840836644,0.0008809039136394858,-0.18967562913894653,0.3695693612098694,-9.781309127807617
1745732022.3110285,0.007926502265036106,-0.0017164215678349137,0.001723219989798963,-0.35351869463920593,0.5762706995010376,-9.744540214538574
1745732022.346036,-0.0031124898232519627,0.00010046725947177038,-0.00029602315044030547,-0.19850561022758484,0.2878665328025818,-9.79240608215332
1745732022.3487532,0.007024203427135944,-0.0023217271082103252,0.0011970850173383951,-0.29447001218795776,0.3744369149208069,-9.810585021972656
1745732022.3502321,-0.0047752344980835915,-0.003590460866689682,0.00014888150326441973,-0.22534580528736115,0.48203834891319275,-9.794713020324707
1745732022.351973,0.008818198926746845,-0.0012015938991680741,0.0009831746574491262,-0.3380877673625946,0.46964162588119507,-9.771191596984863
1745732022.388567,-0.004037471953779459,-0.0021696407347917557,0.0022026202641427517,-0.18721608817577362,0.36478668451309204,-9.75317096710205
1745732022.3898237,0.00785570964217186,-0.0011583025334402919,-0.0003142946807201952,-0.32630088925361633,0.5639342665672302,-9.759809494018555
1745732022.3923666,-0.0005498616956174374,8.27619805932045e-06,0.0006416070973500609,-0.22799816727638245,0.3042648434638977,-9.824132919311523
1745732022.3972561,0.0032846066169440746,-0.004734061658382416,0.002189032733440399,-0.30548498034477234,0.6010961532592773,-9.750829696655273
1745732022.4349678,0.0040226224809885025,0.002042385283857584,0.0008867012220434844,-0.2716386914253235,0.30805712938308716,-9.790254592895508
1745732022.4350286,-0.0022960910573601723,-0.003981097135692835,-0.00019005026842933148,-0.2375318706035614,0.5260614156723022,-9.758809089660645
1745732022.4350789,0.008377927355468273,-0.0017174374079331756,0.0022595548070967197,-0.31039872765541077,0.42722398042678833,-9.791780471801758
1745732022.4357946,-0.008020332083106041,-0.002700905781239271,-0.0013120099902153015,-0.18821701407432556,0.39097923040390015,-9.763849258422852
1745732022.44098,0.011012864299118519,-0.0006951803807169199,0.0014101045671850443,-0.36261624097824097,0.5519417524337769,-9.750652313232422
1745732022.4766726,-0.003736177459359169,-0.0014482418773695827,-0.0009290584130212665,-0.20277473330497742,0.29501837491989136,-9.802763938903809
1745732022.4809117,0.005420590750873089,-0.002916580531746149,0.0026829401031136513,-0.30946236848831177,0.5931516885757446,-9.773333549499512
1745732022.4833622,0.001774040749296546,0.0025594248436391354,0.0003776272351387888,-0.25208404660224915,0.32471761107444763,-9.79393482208252
1745732022.4886596,-0.0006976054864935577,-0.003727912437170744,0.0011370969004929066,-0.2654172480106354,0.5362776517868042,-9.73271369934082
1745732022.5164645,0.00812248419970274,-0.00021229109552223235,-0.0006602939101867378,-0.30543628334999084,0.3899766802787781,-9.80601978302002
1745732022.5195367,-0.00570428092032671,-0.00387849030084908,0.00047017791075631976,-0.20912913978099823,0.4607277512550354,-9.777425765991211
1745732022.5214517,0.00873119942843914,0.00195330660790205,-0.00030245253583416343,-0.32671669125556946,0.4858863353729248,-9.76001262664795
1745732022.523795,-0.004708532709628344,-0.0020247804932296276,0.0019716150127351284,-0.2055092751979828,0.349219411611557,-9.761813163757324
1745732022.5599859,0.005092338193207979,-0.0016058087348937988,0.00030459757545031607,-0.33128947019577026,0.58892822265625,-9.766291618347168
1745732022.561964,0.002132176188752055,0.003162119537591934,0.0025335741229355335,-0.22914688289165497,0.28819653391838074,-9.826255798339844
1745732022.564501,0.009959992952644825,-0.0005373797030188143,0.0013101843651384115,-0.34713903069496155,0.4740171432495117,-9.79295539855957
1745732022.5658607,-0.005434934049844742,-0.0016728565096855164,-0.00041326723294332623,-0.20561306178569794,0.3601207733154297,-9.786849021911621
1745732022.610538,0.009318821132183075,-0.0001366879732813686,9.502210014034063e-05,-0.349928081035614,0.5715471506118774,-9.747583389282227
1745732022.612161,-0.002651125192642212,-0.00018466732581146061,0.002101882128044963,-0.21210424602031708,0.2927454113960266,-9.79658317565918
1745732022.6122656,0.0036723208613693714,-0.0033764324616640806,0.00017663549806457013,-0.3081064224243164,0.5943024754524231,-9.762567520141602
1745732022.6123466,0.003952670842409134,0.001973517704755068,0.00018229342822451144,-0.25954002141952515,0.3315654695034027,-9.812437057495117
1745732022.6450438,-0.0017476662760600448,-0.0034541438799351454,-0.0016828452935442328,-0.23995336890220642,0.5176306962966919,-9.73926067352295
1745732022.6483529,0.011216280050575733,0.0006446161423809826,-0.0005118896369822323,-0.31599128246307373,0.424262136220932,-9.781933784484863
1745732022.6487854,-0.006648157723248005,-0.002599717816337943,0.0018333488842472434,-0.20534686744213104,0.448701947927475,-9.781303405761719
1745732022.6504884,0.009761281311511993,0.0007003363571129739,-0.0001653700164752081,-0.34930220246315,0.4939936101436615,-9.758552551269531
1745732022.6523602,-0.004172820597887039,0.0010245932498946786,0.0007619686657562852,-0.20300030708312988,0.34322792291641235,-9.793160438537598
1745732022.6899574,0.006589271128177643,-0.0015083118341863155,0.001460845465771854,-0.32400545477867126,0.6110826134681702,-9.75784969329834
1745732022.6923127,0.0005006438004784286,-0.00044763763435184956,0.0003851362853311002,-0.24208350479602814,0.2958926558494568,-9.794106483459473
1745732022.704158,-0.0025983271189033985,-0.0021206310484558344,0.0032080858945846558,-0.24423298239707947,0.5356824398040771,-9.751142501831055
1745732022.7042463,0.008382514119148254,0.0011565117165446281,0.0007072172593325377,-0.3311766982078552,0.42122882604599,-9.790695190429688
1745732022.7328024,-0.0044657145626842976,-0.002057052683085203,0.0005725586088374257,-0.1969616562128067,0.40561971068382263,-9.744558334350586
1745732022.7338588,0.009440578520298004,-0.0007781207095831633,0.001675530569627881,-0.33685073256492615,0.545489490032196,-9.755548477172852
1745732022.7338936,-0.0028573053423315287,-0.0008735856972634792,0.0005967483157292008,-0.2054678499698639,0.3136751055717468,-9.822195053100586
1745732022.7348974,0.006035219877958298,-0.0015148388920351863,0.002055502263829112,-0.308254599571228,0.5781854391098022,-9.753747940063477
1745732022.7779748,0.0016698079416528344,0.0014223556499928236,0.00027189706452190876,-0.244367316365242,0.30436334013938904,-9.781515121459961
1745732022.7780654,-0.0008310221019200981,-0.004843034781515598,0.001591764623299241,-0.27183589339256287,0.5649025440216064,-9.73676872253418
1745732022.7807815,0.006808699108660221,0.002651501214131713,0.0011862851679325104,-0.2988988757133484,0.3801898956298828,-9.800113677978516
1745732022.7844317,-0.004177749156951904,-0.001647057244554162,0.0015775446081534028,-0.21759407222270966,0.47624272108078003,-9.77202320098877
1745732022.7877648,0.010125492699444294,0.0009628421394154429,0.0014390558935701847,-0.33158817887306213,0.45955023169517517,-9.760869979858398
1745732022.819505,-0.004262849222868681,-0.0018210720736533403,0.0013801343739032745,-0.1754082888364792,0.3533881902694702,-9.781896591186523
1745732022.821665,0.007565138395875692,-0.0007992320461198688,0.0017676930874586105,-0.3449634909629822,0.5922579765319824,-9.75685977935791
1745732022.823963,9.227627742802724e-05,0.0006146334926597774,5.4077991080703214e-05,-0.1998101770877838,0.2809257507324219,-9.802704811096191
1745732022.8264446,0.0009499091538600624,-0.0023851990699768066,0.0011623359750956297,-0.28470882773399353,0.6075339317321777,-9.741402626037598
1745732022.8701591,0.005133424885571003,0.0005261382320895791,0.0017612293595448136,-0.25901931524276733,0.3258271813392639,-9.797548294067383
1745732022.8702097,-0.0007627507438883185,-0.0033500418066978455,0.0005355142639018595,-0.23132070899009705,0.50960773229599,-9.757478713989258
1745732022.8702965,0.009490224532783031,0.0007207499002106488,0.0007400388130918145,-0.32660365104675293,0.4504471719264984,-9.777867317199707
1745732022.8703403,-0.007349655032157898,-0.0018206292297691107,0.00275399605743587,-0.18798591196537018,0.36983388662338257,-9.766749382019043
1745732022.9049845,0.010079583153128624,-0.0012617509346455336,0.00022465677466243505,-0.3477711081504822,0.5489761233329773,-9.763091087341309
1745732022.9076295,-0.0027831848710775375,-0.0007107924902811646,0.0015005836030468345,-0.21292395889759064,0.32378673553466797,-9.797881126403809
1745732022.911716,0.0045529999770224094,-0.00252983788959682,0.0009127918747253716,-0.30824971199035645,0.5832928419113159,-9.747495651245117
1745732022.915783,0.009399634785950184,0.0009537296136841178,0.00023518697707913816,-0.3419656753540039,0.49724847078323364,-9.77399730682373
1745732022.9474778,-0.002816222608089447,-0.0003930116072297096,0.002989138476550579,-0.18926560878753662,0.32240453362464905,-9.779155731201172
1745732022.9502861,0.006486973259598017,-0.0032859344501048326,-3.9029262552503496e-05,-0.3199220895767212,0.6142773032188416,-9.758275985717773
1745732022.95261,-0.0010768520878627896,0.0017384493257850409,0.00042893699719570577,-0.22030577063560486,0.2875864505767822,-9.811749458312988
1745732022.9547174,0.0016219817334786057,-0.0031399396248161793,0.0008643596665933728,-0.2865733802318573,0.5937243700027466,-9.741302490234375
1745732022.9568975,0.0070790862664580345,-0.0006992390262894332,0.0014371683355420828,-0.27666765451431274,0.3619779944419861,-9.786623001098633
1745732022.9931607,-0.0036735697649419308,-0.0038952119648456573,0.0012773333583027124,-0.21321935951709747,0.4729493260383606,-9.758241653442383
1745732023.0055115,0.009667467325925827,6.27330009592697e-05,8.775694004725665e-05,-0.33060288429260254,0.4688795208930969,-9.792610168457031
1745732023.005685,-0.006306557450443506,-0.0010020562913268805,-0.0001450523704988882,-0.20266643166542053,0.38756924867630005,-9.764315605163574
1745732023.0065413,0.00868636928498745,-0.0024492808151990175,-4.157552029937506e-05,-0.33093133568763733,0.558961033821106,-9.743844985961914
1745732023.0363896,-0.00185917760245502,0.0006409478955902159,0.0006589812692254782,-0.22164757549762726,0.2910737991333008,-9.797636032104492
1745732023.040813,0.003244152758270502,-0.003932546358555555,0.0013330768560990691,-0.3053644597530365,0.602963924407959,-9.756121635437012
1745732023.0447268,0.0045182472094893456,-0.00025668073794804513,-5.976115426165052e-05,-0.2540988326072693,0.3293988108634949,-9.799321174621582
1745732023.0495808,-0.0032442002557218075,-0.004455120302736759,0.0012870108475908637,-0.23795028030872345,0.5655499696731567,-9.746146202087402
1745732023.075994,0.0071305809542536736,0.0013546019326895475,0.0019515445455908775,-0.2799355089664459,0.33337146043777466,-9.789270401000977
1745732023.0776036,-0.004840885754674673,-0.003054169239476323,-0.0006350032053887844,-0.24802792072296143,0.5059566497802734,-9.768826484680176
1745732023.0799115,0.010859580710530281,-2.3196171241579577e-05,0.0025064763613045216,-0.33001476526260376,0.4485911428928375,-9.791901588439941
1745732023.0829623,-0.005028960295021534,-0.0008706984226591885,0.0014154064701870084,-0.1927584707736969,0.3798457980155945,-9.768183708190918
1745732023.0836062,0.008980149403214455,-0.0026610817294567823,0.0017620377475395799,-0.34583261609077454,0.5870798826217651,-9.76055908203125
1745732023.1210203,-0.0004604194255080074,0.0016424248460680246,-0.00022571804584003985,-0.2091623991727829,0.2924056649208069,-9.778480529785156
1745732023.1218944,0.004322201944887638,-0.004058028571307659,0.0015048860805109143,-0.2991279661655426,0.5924085378646851,-9.748672485351562
1745732023.124125,0.0036168054211884737,0.002283805515617132,-0.0004268615448381752,-0.25234225392341614,0.3080304265022278,-9.814295768737793
1745732023.1260495,-0.00027159973978996277,-0.0015779538080096245,0.002643787069246173,-0.23835185170173645,0.5426597595214844,-9.735641479492188
1745732023.1628213,0.007813673466444016,0.0003468426875770092,0.0004739350697491318,-0.31951242685317993,0.39905813336372375,-9.789451599121094
1745732023.1718438,-0.006663373671472073,-0.0026772525161504745,0.0024073526728898287,-0.20851163566112518,0.42843905091285706,-9.780841827392578
1745732023.171923,0.010683869943022728,0.0001965856208698824,0.001186521491035819,-0.34492027759552,0.5194341540336609,-9.763167381286621
1745732023.1719806,-0.004719218239188194,4.0860544686438516e-05,0.0016359072178602219,-0.19722701609134674,0.33175283670425415,-9.764976501464844
1745732023.1720269,0.006320857908576727,-0.003263985039666295,0.00010600592941045761,-0.33687108755111694,0.5973721742630005,-9.75661563873291
1745732023.2076795,0.0015218371991068125,0.001523282378911972,0.0021288832649588585,-0.23939795792102814,0.28541451692581177,-9.837701797485352
1745732023.2114441,0.0001647647441131994,-0.0014658333966508508,0.0003627921105362475,-0.2756442129611969,0.5702399015426636,-9.726018905639648
1745732023.2143915,0.007525899447500706,0.0011486858129501343,0.0010928378906100988,-0.28123292326927185,0.3517169952392578,-9.789884567260742
1745732023.2181022,-0.005509939976036549,-0.003277138341218233,0.0001431797572877258,-0.20578479766845703,0.4798888564109802,-9.738531112670898
1745732023.2473695,0.010099297389388084,-0.0006440620636567473,0.0036535344552248716,-0.33831799030303955,0.47677794098854065,-9.785749435424805
1745732023.252668,-0.003921285271644592,-0.0002023116685450077,0.00010483870573807508,-0.20028312504291534,0.3571586608886719,-9.800487518310547
1745732023.252806,0.008261586539447308,-0.00012161685299361125,0.0006568267126567662,-0.333112895488739,0.5746792554855347,-9.749977111816406
1745732023.2555428,-0.002378304023295641,-0.0006654115859419107,0.001904845586977899,-0.20763540267944336,0.296466588973999,-9.788718223571777
1745732023.292069,-0.004140504635870457,-0.0009996993467211723,-0.00042500573908910155,-0.19863753020763397,0.3058881163597107,-9.79517936706543
1745732023.2937045,0.00492976326495409,-0.001634908840060234,0.0008335210150107741,-0.3230898380279541,0.6098865270614624,-9.741662979125977
1745732023.2960522,0.0028769499622285366,0.0010403839405626059,-9.408204641658813e-05,-0.23757009208202362,0.2956007122993469,-9.815407752990723
1745732023.3009331,-0.0023547920864075422,-0.0028061079792678356,0.0018747005378827453,-0.2650291323661804,0.5731955170631409,-9.746542930603027
1745732023.3019176,0.007673443760722876,0.002164148725569248,0.0024023563601076603,-0.29557669162750244,0.3695647716522217,-9.780566215515137
1745732023.3359976,-0.0026154108345508575,-0.0009612099966034293,-0.001376310596242547,-0.2054988443851471,0.45007094740867615,-9.761971473693848
1745732023.3384745,0.008699169382452965,-0.000180631730472669,0.0004925070097669959,-0.33609092235565186,0.49580755829811096,-9.793610572814941
1745732023.3436575,-0.003242859151214361,-0.000566746573895216,0.0020622338633984327,-0.19536863267421722,0.3333580493927002,-9.785592079162598
1745732023.348273,0.007381127681583166,-0.0016851503169164062,-6.068248694646172e-05,-0.34949132800102234,0.5903809070587158,-9.74111557006836
1745732023.3780196,0.0007077796617522836,-0.0012309674639254808,0.001288492465391755,-0.20306053757667542,0.28709080815315247,-9.788737297058105
1745732023.381806,0.001230531488545239,-0.001899372786283493,0.00014251802349463105,-0.28497347235679626,0.590068519115448,-9.770248413085938
1745732023.3860013,0.008198520168662071,0.002438779454678297,0.0006918588769622147,-0.27618712186813354,0.3313143253326416,-9.822186470031738
1745732023.3906276,-0.0038737033028155565,-0.0031422029715031385,0.0005387332057580352,-0.23844489455223083,0.5330968499183655,-9.737592697143555
1745732023.3939474,0.011087429709732533,0.0012074114056304097,0.00023615527607034892,-0.322195827960968,0.4226997494697571,-9.768328666687012
1745732023.4235084,0.0076133995316922665,-0.00024683852097950876,0.0006745685823261738,-0.29219961166381836,0.36439403891563416,-9.82080364227295
1745732023.4381263,-0.003950812853872776,-0.0009502599132247269,0.0019221126567572355,-0.20813973248004913,0.4857589304447174,-9.755485534667969
1745732023.4381971,0.009337494149804115,-0.0004386361688375473,0.0019975309260189533,-0.33609044551849365,0.5048578381538391,-9.756654739379883
1745732023.4382517,-0.0051839337684214115,0.00031367409974336624,0.0010615881765261292,-0.17731228470802307,0.3430575728416443,-9.778441429138184
1745732023.466418,0.009133369661867619,-0.002446124330163002,0.0003656707121990621,-0.3460214138031006,0.6125524640083313,-9.770185470581055
1745732023.4689145,-0.0014112138887867332,0.0009869644418358803,0.0016377726569771767,-0.22530002892017365,0.28340625762939453,-9.802692413330078
1745732023.4712176,0.005172543227672577,-0.0029866609256714582,0.0006710024317726493,-0.31328433752059937,0.6217237710952759,-9.736005783081055
1745732023.4722633,0.0038662985898554325,0.0006647448753938079,0.0027113519608974457,-0.28331318497657776,0.3223055601119995,-9.807575225830078
1745732023.5058327,-0.0038480020593851805,-0.0036399434320628643,0.0013214924838393927,-0.2266048938035965,0.4953377842903137,-9.756640434265137
1745732023.5123167,0.011083142831921577,0.0011255654972046614,0.0009496748680248857,-0.33791905641555786,0.4596463143825531,-9.799066543579102
1745732023.513401,-0.006350031588226557,-0.0016513395821675658,0.0004029911942780018,-0.20537443459033966,0.41704660654067993,-9.777422904968262
1745732023.5157228,0.009147797711193562,-0.0020839425269514322,0.002098034368827939,-0.35021302103996277,0.5543047189712524,-9.775354385375977
1745732023.550078,-0.0021476545371115208,0.0005183906177990139,0.001362346112728119,-0.205784410238266,0.306966632604599,-9.788447380065918
1745732023.5547616,0.003756611840799451,-0.0017194881802424788,0.0010602204129099846,-0.3197316825389862,0.5989303588867188,-9.721474647521973
1745732023.5566952,0.005427815951406956,0.0015085471095517278,0.002033126074820757,-0.2391325980424881,0.3083484470844269,-9.805715560913086
1745732023.5589724,-0.001069020596332848,-0.0023767168167978525,0.002271702280268073,-0.2630143463611603,0.5695932507514954,-9.760766983032227
1745732023.5590322,0.007635161280632019,-0.00031852006213739514,-0.0001784972264431417,-0.3135508596897125,0.3758677542209625,-9.795275688171387
1745732023.600896,-0.005707825068384409,-0.0014458507066592574,0.0013564734254032373,-0.20767204463481903,0.4636708199977875,-9.77688980102539
1745732023.6009684,0.010143847204744816,0.0005795491742901504,0.0018891009967774153,-0.35566991567611694,0.5046967267990112,-9.782926559448242
1745732023.6010215,-0.004179029725492001,-0.0013251102063804865,0.00018536081188358366,-0.19549855589866638,0.33149975538253784,-9.751150131225586
1745732023.6010718,0.006747482810169458,8.730125045985915e-06,0.0024170917458832264,-0.3412586748600006,0.6000257730484009,-9.751325607299805
1745732023.6373653,0.007279376499354839,-0.00273545878008008,0.0003628020640462637,-0.35355252027511597,0.5697985887527466,-9.731669425964355
1745732023.6397529,-0.00032934770570136607,-0.0005640123272314668,-0.00012353560305200517,-0.21458640694618225,0.2834013104438782,-9.811407089233398
1745732023.6450317,0.003975698258727789,-0.002544223563745618,0.001087551238015294,-0.3320048153400421,0.5979946851730347,-9.777527809143066
1745732023.6477704,0.0031136455945670605,0.00015586448716931045,-5.269231041893363e-05,-0.24221579730510712,0.2972765862941742,-9.786863327026367
1745732023.681073,-0.00242498517036438,-0.003374020103365183,0.0007575334748253226,-0.23875561356544495,0.5497586131095886,-9.717571258544922
1745732023.683289,0.009268952533602715,0.002255319384858012,0.0014359334018081427,-0.31837913393974304,0.3925837278366089,-9.799095153808594
1745732023.693445,-0.004378521349281073,-0.0028212270699441433,6.204552482813597e-05,-0.1919548213481903,0.4098796248435974,-9.797120094299316
1745732023.6935012,0.010048127733170986,-0.0014253567205742002,-0.0005247736116871238,-0.35056567192077637,0.5125980973243713,-9.747118949890137
1745732023.7227266,-0.004346463829278946,0.00013604853302240372,0.0011287538800388575,-0.18737606704235077,0.3216931223869324,-9.761139869689941
1745732023.724422,0.00713817123323679,-0.0025772780645638704,0.0017322655767202377,-0.33123302459716797,0.6034449338912964,-9.771183967590332
1745732023.725833,0.002053723903372884,0.0007083196542225778,-0.0011556160170584917,-0.22779110074043274,0.30039456486701965,-9.822596549987793
1745732023.7267985,0.0008704827050678432,-0.001896042376756668,0.0017491137841716409,-0.2600417733192444,0.5597664713859558,-9.733760833740234
1745732023.7279813,0.0055033965036273,0.0013446977827697992,-0.0005757148610427976,-0.2847737669944763,0.34995153546333313,-9.793314933776855
1745732023.7676,-0.002770722145214677,-0.004419091157615185,0.0005282320780679584,-0.21356666088104248,0.4920523762702942,-9.762615203857422
1745732023.7714803,-0.006218011025339365,-0.00209532561711967,0.0014253973495215178,-0.21724876761436462,0.4754451811313629,-9.77105712890625
1745732023.7759647,0.010309522040188313,0.00037703337147831917,0.000913616269826889,-0.33898550271987915,0.5074909329414368,-9.781061172485352
1745732023.7781174,-0.0036487262696027756,-0.0008380841463804245,0.0002042308624368161,-0.1948736310005188,0.32732802629470825,-9.782844543457031
1745732023.810589,0.008786219172179699,-0.0011331253917887807,0.0011606990592554212,-0.3300752639770508,0.6055722236633301,-9.754508972167969
1745732023.815012,0.00023602638975717127,0.0022437439765781164,-0.0009022558224387467,-0.228957861661911,0.28640806674957275,-9.804447174072266
1745732023.8198428,-0.0001531077577965334,-0.003656133310869336,-0.0001435197191312909,-0.28721651434898376,0.5993505716323853,-9.747334480285645
1745732023.823965,0.005948816891759634,0.00151846744120121,0.001627473859116435,-0.2964901924133301,0.3466162383556366,-9.782234191894531
1745732023.8562462,-0.00441677775233984,-0.0019451852422207594,0.0010293740779161453,-0.22428257763385773,0.4846307337284088,-9.743295669555664
1745732023.859038,0.011880658566951752,-0.00038154059438966215,0.0012549646198749542,-0.32509762048721313,0.4950696527957916,-9.778985977172852
1745732023.8591442,-0.005466196220368147,-0.002211984945461154,-2.5706318410811946e-05,-0.1876557618379593,0.3814171254634857,-9.77413558959961
1745732023.8592045,0.007159507367759943,-0.000922763254493475,0.0015716103371232748,-0.34723740816116333,0.5680081844329834,-9.774210929870605
1745732023.8601203,-0.0008067217422649264,0.0009135358850471675,0.0014652706449851394,-0.20404615998268127,0.31748563051223755,-9.805874824523926
1745732023.8946736,0.003828402142971754,-0.001977883279323578,0.001672734273597598,-0.2926875948905945,0.6095934510231018,-9.745762825012207
1745732023.9069111,0.004163231700658798,0.0023698683362454176,0.0005281569319777191,-0.2535375952720642,0.31839925050735474,-9.799565315246582
1745732023.9069605,-0.0011260643368586898,-0.0030251808930188417,0.0006626708200201392,-0.2392367571592331,0.5509277582168579,-9.753615379333496
1745732023.907002,0.007600175682455301,0.0019861385226249695,0.0010757282143458724,-0.3094162344932556,0.4021221995353699,-9.797471046447754
1745732023.9382885,-0.00518761994317174,-0.0023243583273142576,0.000322312640491873,-0.19746705889701843,0.4184849262237549,-9.75704574584961
1745732023.9403808,0.010717574506998062,-0.0009751509642228484,1.1694105523929466e-05,-0.3536704480648041,0.5493541955947876,-9.7646484375
1745732023.9416904,-0.004868370480835438,0.00010905158706009388,0.0010774482507258654,-0.19883330166339874,0.3224111795425415,-9.799335479736328
1745732023.9448683,0.005543569568544626,-0.0022681208793073893,0.0007370536914095283,-0.32983583211898804,0.6061183214187622,-9.762272834777832
1745732023.9480133,0.0022220683749765158,0.0012902526650577784,0.001496332697570324,-0.2266363799571991,0.29546356201171875,-9.78901481628418
1745732023.9810777,-0.0003035765257664025,-0.0017069369787350297,0.0016696739476174116,-0.25834763050079346,0.5636616945266724,-9.741930961608887
1745732023.982153,0.0073816413059830666,0.0005853867623955011,-0.001448991009965539,-0.30224302411079407,0.37260937690734863,-9.794917106628418
1745732023.9846044,0.0076957507990300655,-0.0020808475092053413,0.002392400521785021,-0.3291715979576111,0.5752553343772888,-9.761347770690918
1745732023.9856257,0.0006027595954947174,0.0003396604734007269,0.0007101308437995613,-0.21995174884796143,0.3108288645744324,-9.775191307067871
1745732024.0244193,0.0018673051381483674,-0.00240964163094759,0.0011346295941621065,-0.2993070185184479,0.5919172763824463,-9.741632461547852
1745732024.025708,0.005848754663020372,0.003333441447466612,0.0010195504873991013,-0.2864004969596863,0.304913192987442,-9.80311107635498
1745732024.0273626,-0.00383806973695755,-0.0022897599264979362,0.0014022106770426035,-0.2346673458814621,0.5082315802574158,-9.75991153717041
1745732024.0285258,0.010315443389117718,0.00025103092775680125,-0.0008039632812142372,-0.3279373049736023,0.43636298179626465,-9.779722213745117
1745732024.0659,-0.006345647387206554,-0.003254412906244397,0.0012426372850313783,-0.20285840332508087,0.38931307196617126,-9.756869316101074
1745732024.0713384,0.010640887543559074,0.0002063348947558552,0.0011714736465364695,-0.34554213285446167,0.5623070597648621,-9.770772933959961
1745732024.0713847,-0.0031439675949513912,0.00012925578630529344,0.0010817067231982946,-0.1946701556444168,0.3018464148044586,-9.801817893981934
1745732024.0728219,0.005553623661398888,-0.0032453425228595734,-0.0003862886514980346,-0.31772899627685547,0.6084800958633423,-9.725339889526367
1745732024.0751119,0.002855445723980665,0.0011571623617783189,0.0015051283407956362,-0.2544775605201721,0.2997114658355713,-9.80309772491455
1745732024.1110456,-0.0003869287611451,-0.0029304898343980312,0.0010985105764120817,-0.26344960927963257,0.5515124797821045,-9.771291732788086
1745732024.1140728,0.007703511510044336,0.001458846847526729,0.0008594345417805016,-0.2825224995613098,0.3895261287689209,-9.771108627319336
1745732024.1238463,-0.004302377346903086,0.0004666352178901434,0.001179350889287889,-0.20558801293373108,0.2999405562877655,-9.807634353637695
1745732024.1247509,0.0021642863284796476,-0.001954226288944483,-0.0004023581277579069,-0.31370168924331665,0.590354323387146,-9.749074935913086
1745732024.152754,0.00426997197791934,0.0008903263951651752,0.000989830936305225,-0.2519165873527527,0.30025729537010193,-9.808479309082031
1745732024.153901,-0.0013635497307404876,-0.0028974295128136873,0.0008527068421244621,-0.2562100291252136,0.557242751121521,-9.740677833557129
1745732024.1577427,0.008472318761050701,0.000983365229330957,0.00024519916041754186,-0.3243749737739563,0.38724270462989807,-9.791041374206543
1745732024.162412,-0.004759938921779394,-0.001906449324451387,0.0016831603134050965,-0.21011550724506378,0.4288792610168457,-9.779128074645996
1745732024.1960282,0.009791133925318718,-0.0007584384875372052,0.0006912348326295614,-0.3370261788368225,0.5119959115982056,-9.757673263549805
1745732024.1972015,-0.005104381125420332,0.000264476053416729,0.0013322026934474707,-0.1774415224790573,0.3381114900112152,-9.780630111694336
1745732024.1994765,0.007363620214164257,-0.0034639339428395033,-0.00010835954162757844,-0.33892345428466797,0.5948692560195923,-9.75334358215332
1745732024.2032042,-0.0013069561682641506,0.0025702256243675947,-0.0007896587485447526,-0.23227985203266144,0.29702526330947876,-9.794511795043945
1745732024.2383442,0.0001893045409815386,-0.002735962625592947,0.0009654228342697024,-0.27459004521369934,0.5770539045333862,-9.746098518371582
1745732024.2427268,0.006550358142703772,9.202039655065164e-05,0.00022337408154271543,-0.2738613188266754,0.3450595736503601,-9.789958953857422
1745732024.245683,-0.005639614071696997,-0.0008963545551523566,0.0009738605585880578,-0.21323370933532715,0.5031048655509949,-9.744211196899414
1745732024.250063,0.011232694610953331,0.00036580339656211436,0.00021050908253528178,-0.32960015535354614,0.45034560561180115,-9.778157234191895
1745732024.2513444,-0.004881360102444887,6.987205415498465e-05,0.001216069096699357,-0.1890237033367157,0.3557271361351013,-9.792655944824219
1745732024.2890341,0.007430919446051121,-0.002188753569498658,0.0028733171056956053,-0.3445065915584564,0.5711383819580078,-9.74858283996582
1745732024.2890823,-0.0011985122691839933,0.0010888903634622693,-0.00014891359023749828,-0.1927885264158249,0.29552656412124634,-9.802538871765137
1745732024.289122,0.0025943194050341845,-0.0015136338770389557,0.0010800284799188375,-0.2970850169658661,0.6182802319526672,-9.755803108215332
1745732024.2911494,0.003818388329818845,0.00040253548650071025,-0.00012057945423293859,-0.26057863235473633,0.3117436468601227,-9.806744575500488
1745732024.3241932,-0.002610186580568552,-0.002295722486451268,0.0018970478558912873,-0.23982040584087372,0.5329903364181519,-9.74113655090332
1745732024.3264298,0.009440447203814983,0.000859117426443845,-0.00020296438015066087,-0.3223700225353241,0.4310177266597748,-9.82469367980957
1745732024.3286107,-0.005141803529113531,-0.001861334778368473,0.0006100412574596703,-0.18615424633026123,0.4015924036502838,-9.780385971069336
1745732024.3321018,0.008748224005103111,0.0005129690398462117,0.0021825777366757393,-0.35019105672836304,0.5403566360473633,-9.739944458007812
1745732024.3673685,0.0008406529086641967,0.0017875225748866796,0.0011108301114290953,-0.23698358237743378,0.31368380784988403,-9.820337295532227
1745732024.369522,0.00010605938587104902,-0.002540029352530837,0.0001301195879932493,-0.26969850063323975,0.5547276139259338,-9.727797508239746
1745732024.3730175,0.008455606177449226,-0.0016023230273276567,0.0016963515663519502,-0.28501129150390625,0.3742801547050476,-9.787506103515625
1745732024.3771918,-0.00604894757270813,-0.002031899755820632,-0.0013532191514968872,-0.20456472039222717,0.47541117668151855,-9.776548385620117
1745732024.388146,0.011497491970658302,0.0010232763597741723,0.0014430395094677806,-0.33047860860824585,0.48683977127075195,-9.763275146484375
1745732024.4124706,-0.00508061284199357,-0.0007225393201224506,0.00132078118622303,-0.2011001855134964,0.3438498079776764,-9.778373718261719
1745732024.4142592,0.0055403076112270355,-0.0018035393441095948,0.0003995586303062737,-0.3345649838447571,0.574495792388916,-9.764808654785156
1745732024.4168537,0.0019751216750591993,-0.0006993092829361558,0.0012837543617933989,-0.2197190225124359,0.285992294549942,-9.82502555847168
1745732024.418249,0.0012455328833311796,-0.0025392198003828526,8.815737965051085e-05,-0.2790861129760742,0.606286883354187,-9.733379364013672
1745732024.4557076,0.004911287222057581,0.00010087587725138292,0.0025362675078213215,-0.2741139531135559,0.3319455683231354,-9.77636432647705
1745732024.457992,-0.004270391538739204,-0.0009444167953915894,0.0017214026302099228,-0.23227417469024658,0.5179542303085327,-9.748025894165039
1745732024.4595768,0.009761813096702099,0.00013393591507337987,0.0012969899689778686,-0.3340635895729065,0.4476594030857086,-9.809098243713379
1745732024.460319,-0.005763967987149954,-0.00046556591405533254,0.0010566754499450326,-0.18768683075904846,0.38109979033470154,-9.787882804870605
1745732024.497203,0.006304205860942602,-0.0026315622963011265,0.0012245767284184694,-0.32672935724258423,0.5914324522018433,-9.744280815124512
1745732024.4990335,0.00037467238144017756,4.651798008126207e-05,0.0015713119646534324,-0.23764649033546448,0.30514445900917053,-9.789227485656738
1745732024.5024533,0.0026535317301750183,-0.003755447920411825,-0.00023164685990195721,-0.2937844693660736,0.5835614204406738,-9.75680160522461
1745732024.5053813,0.005675940774381161,0.0016111659351736307,-0.00036565502523444593,-0.26423972845077515,0.33002933859825134,-9.787768363952637
1745732024.5064683,-0.0044693779200315475,-0.0024874743539839983,0.0002982534351758659,-0.2369844913482666,0.5172096490859985,-9.746816635131836
1745732024.5408416,0.009782886132597923,0.0016239617252722383,0.00039760215440765023,-0.331400603055954,0.4250241816043854,-9.811327934265137
1745732024.5435023,-0.0056532928720116615,-0.002469791332259774,0.0005700932815670967,-0.2014797180891037,0.40392550826072693,-9.775172233581543
1745732024.5523694,0.00817289762198925,-0.0021933994721621275,-0.0005882213008590043,-0.33952662348747253,0.5526165962219238,-9.756766319274902
1745732024.5524514,-0.0016299098497256637,0.0002999614807777107,0.0023365113884210587,-0.2040751427412033,0.2823256254196167,-9.79226303100586
1745732024.5831845,0.002992120338603854,-0.0027691673021763563,-0.001368071069009602,-0.3139331340789795,0.6069203615188599,-9.738485336303711
1745732024.5864263,0.00370329013094306,0.0008097568643279374,0.0014153497759252787,-0.2563362717628479,0.30826908349990845,-9.80219554901123
1745732024.5892515,-0.0017984822625294328,-0.0035315691493451595,0.0013544120592996478,-0.253790020942688,0.5549294948577881,-9.744746208190918
1745732024.592622,0.007483079098165035,0.0003109673853032291,-0.0002559520653448999,-0.32102394104003906,0.4085855484008789,-9.78813648223877
1745732024.596477,-0.005573354661464691,-0.00042550740181468427,0.00298124342225492,-0.21064038574695587,0.4301857352256775,-9.774876594543457
1745732024.6260328,0.010093810968101025,-0.001718216808512807,-0.0010679950937628746,-0.3316628336906433,0.5374882221221924,-9.766550064086914
1745732024.6289902,-0.004016269464045763,-0.00033615436404943466,0.002315390855073929,-0.18349750339984894,0.32329729199409485,-9.780717849731445
1745732024.6309676,0.006389048881828785,-0.001639481633901596,-0.0005644474294967949,-0.3166256844997406,0.5921196341514587,-9.767237663269043
1745732024.6317,0.0017509892350062728,0.0012283048126846552,0.0008844012627378106,-0.24696941673755646,0.30772656202316284,-9.79607105255127
1745732024.6701388,-0.0009954168926924467,-0.0021784682758152485,0.0017931066686287522,-0.26910915970802307,0.569581151008606,-9.732943534851074
1745732024.671462,0.006110722199082375,0.000720386509783566,0.00012870198406744748,-0.29997581243515015,0.34811997413635254,-9.79698371887207
1745732024.6732962,-0.00251154787838459,-0.0031049519311636686,0.0016397113213315606,-0.2339218556880951,0.49737483263015747,-9.7603178024292
1745732024.6748421,0.009269875474274158,0.0011220596497878432,0.001041065319441259,-0.33474573493003845,0.46367090940475464,-9.787254333496094
1745732024.6765013,-0.005310543812811375,-0.0013702232390642166,0.001462502870708704,-0.19545845687389374,0.3624548316001892,-9.795310020446777
1745732024.7184868,0.00479382136836648,-0.00048113270895555615,0.0030334987677633762,-0.26035675406455994,0.3007926344871521,-9.782320022583008
1745732024.7186131,-0.003213097108528018,-0.0030054703820496798,0.0004725746694020927,-0.23682956397533417,0.5117068290710449,-9.743009567260742
1745732024.7219195,0.009002197533845901,0.0014887548750266433,0.0014719044556841254,-0.32695427536964417,0.4413061738014221,-9.812312126159668
1745732024.7259676,-0.005453856661915779,-0.001441651489585638,0.000685630482621491,-0.19857552647590637,0.3978098928928375,-9.775477409362793
1745732024.7577817,0.010108931921422482,-0.0011653406545519829,0.0013768126955255866,-0.3472222685813904,0.5334311723709106,-9.776269912719727
1745732024.7609057,-0.0021565360948443413,-0.0009855495300143957,-0.0002691305708140135,-0.2000376284122467,0.33212488889694214,-9.79719066619873
1745732024.7640743,0.0046868277713656425,-0.0010739396093413234,0.0017988538602367043,-0.31961801648139954,0.5881679058074951,-9.72981071472168
1745732024.7672863,0.002542169066146016,-0.000821706373244524,0.0013830175157636404,-0.2536810040473938,0.29822850227355957,-9.798542976379395
1745732024.7999043,-0.0005370744620449841,-0.002357016084715724,0.0015219345223158598,-0.25482743978500366,0.5364760160446167,-9.77099323272705
1745732024.8110342,0.008089805021882057,0.0007511379080824554,0.0010482382494956255,-0.2956257164478302,0.37413182854652405,-9.774148941040039
1745732024.8111894,-0.006183938588947058,-0.0039485665038228035,0.0022694668732583523,-0.2075205296278,0.4776166081428528,-9.750407218933105
1745732024.8112772,0.010476268827915192,0.0010382275795564055,-0.00030765109113417566,-0.3511177599430084,0.5093582272529602,-9.792169570922852
1745732024.8399777,-0.0044108061119914055,-0.0006254916079342365,0.0009597672033123672,-0.17814594507217407,0.31257057189941406,-9.765531539916992
1745732024.8417366,0.004963431507349014,-0.0009299805387854576,0.0008092696079984307,-0.31698569655418396,0.6107726097106934,-9.74945068359375
1745732024.8442528,0.0032217386178672314,-0.0007314866525121033,0.0015681737568229437,-0.23166318237781525,0.31071799993515015,-9.80443000793457
1745732024.8453755,-0.0026289126835763454,-0.0008071355405263603,0.0005542265134863555,-0.26338857412338257,0.5688832402229309,-9.734930038452148
1745732024.8503244,0.00915530975908041,-0.001127770752646029,0.0006340540712699294,-0.2985377907752991,0.38036197423934937,-9.791634559631348
1745732024.8863199,-0.004353465978056192,-0.002103351755067706,0.00014217130956239998,-0.21238966286182404,0.4444904923439026,-9.792593002319336
1745732024.8967786,0.008210270665585995,-0.0003019518335349858,0.0010924842208623886,-0.3390222489833832,0.5022304654121399,-9.758401870727539
1745732024.8968499,-0.004353860858827829,-0.00018922211893368512,-0.0009017639677040279,-0.19190002977848053,0.35200369358062744,-9.764976501464844
1745732024.8976169,0.005584508180618286,-0.002105507766827941,0.0018442400032654405,-0.3413624167442322,0.5668004751205444,-9.740156173706055
1745732024.9281251,0.0004893610021099448,0.0018646875396370888,-0.00010132372699445114,-0.2217051237821579,0.297330766916275,-9.812321662902832
1745732024.9310794,0.002393105300143361,-0.003552328795194626,0.0011608817148953676,-0.2902766168117523,0.5983365178108215,-9.736564636230469
1745732024.9319687,0.00547147449105978,0.0019979404751211405,0.0014106286689639091,-0.2693425714969635,0.32756954431533813,-9.798320770263672
1745732024.9338014,-0.004433413967490196,-0.002897480968385935,-0.0007687614415772259,-0.23093447089195251,0.5371299982070923,-9.769156455993652
1745732024.9352612,0.009331917390227318,0.0008348665433004498,0.0015211568679660559,-0.3285140097141266,0.4495418667793274,-9.778704643249512
1745732024.9768014,-0.004155818372964859,-0.0016613553743809462,0.0003922784235328436,-0.17866653203964233,0.348442018032074,-9.761548042297363
1745732024.9769068,0.008526653051376343,-0.00019778113346546888,-0.0005369102582335472,-0.331663578748703,0.5708813667297363,-9.750295639038086
1745732024.9772947,-0.0041354382410645485,0.0010458168108016253,-0.0015214526792988181,-0.1961279809474945,0.2988155782222748,-9.781343460083008
1745732024.9808364,0.005416551139205694,-0.002882299479097128,0.0021683915983885527,-0.30812868475914,0.5988168716430664,-9.73383903503418
1745732025.0188348,0.0023293658159673214,0.0008340398781001568,0.0002580676809884608,-0.25066328048706055,0.30937880277633667,-9.792898178100586
1745732025.0188982,-0.0017465479904785752,-0.0033784559927880764,0.0012398915132507682,-0.23704636096954346,0.5413819551467896,-9.747097969055176
1745732025.022997,0.009266182780265808,0.0014382163062691689,0.0009952494874596596,-0.31576305627822876,0.4077766537666321,-9.8123197555542
1745732025.0271873,-0.005192344076931477,-0.0025093057192862034,0.0006822701543569565,-0.20169642567634583,0.4479537010192871,-9.749597549438477
1745732025.0286038,0.008093679323792458,-0.0010095970937982202,0.0008995255338959396,-0.3314829468727112,0.5133323669433594,-9.773141860961914
1745732025.0590248,-0.004535536281764507,-0.001600875286385417,0.00013759522698819637,-0.18711210787296295,0.32780852913856506,-9.80006217956543
1745732025.0646033,-0.0006300046807155013,-0.0010297783883288503,0.0017151047941297293,-0.2654041349887848,0.5864622592926025,-9.747542381286621
1745732025.0667658,0.008408172987401485,0.0005561715224757791,0.0009683776879683137,-0.2911396026611328,0.35670891404151917,-9.803359985351562
1745732025.069682,-0.005820603109896183,-0.0028335340321063995,0.0007848815876059234,-0.21437163650989532,0.4856637418270111,-9.755895614624023
1745732025.0995882,0.009431395679712296,-0.00024840421974658966,0.0014993678778409958,-0.3426513075828552,0.49492064118385315,-9.762890815734863
1745732025.1010127,-0.0062371669337153435,-0.0023676648270338774,0.0013435600558295846,-0.19194410741329193,0.3681412637233734,-9.770894050598145
1745732025.1024332,0.009854885749518871,-0.0005562386359088123,0.0016281765419989824,-0.33342689275741577,0.5750678181648254,-9.76052188873291
1745732025.108094,-0.0007774400874041021,0.0007419933681376278,0.0012773394118994474,-0.22944426536560059,0.3012515902519226,-9.791089057922363
1745732025.14487,0.00153424555901438,-0.004639067687094212,0.0006315851351246238,-0.29120439291000366,0.5892680883407593,-9.745645523071289
1745732025.1459095,0.005698640365153551,0.00126876391004771,0.0013737892732024193,-0.2724187672138214,0.33252739906311035,-9.813639640808105
1745732025.1492019,-0.002955320058390498,-0.003596904221922159,0.0011271217372268438,-0.24220320582389832,0.5305840373039246,-9.736387252807617
1745732025.1497073,0.008666841313242912,-0.0006924938643351197,0.001736255595460534,-0.30119389295578003,0.4168524146080017,-9.779653549194336
1745732025.1514082,-0.004781126976013184,-0.001340931630693376,0.002213491592556238,-0.18767082691192627,0.4053068161010742,-9.778203964233398
1745732025.1872737,0.010155352763831615,-0.0022652246989309788,0.0006934499251656234,-0.3576582968235016,0.5543939471244812,-9.783130645751953
1745732025.1897902,-0.005237420555204153,-0.003518369747325778,0.002033809432759881,-0.22924742102622986,0.5028088092803955,-9.767659187316895
1745732025.1930122,0.010171955451369286,0.0007479350315406919,0.001736294711008668,-0.3328952193260193,0.45443663001060486,-9.813992500305176
1745732025.1964183,-0.004898334853351116,-0.001960470573976636,-7.414491847157478e-05,-0.20388388633728027,0.3845673203468323,-9.760126113891602
1745732025.2314978,0.008173803798854351,-0.00150623032823205,0.0013992437161505222,-0.35397547483444214,0.5459274053573608,-9.739374160766602
1745732025.2341888,-0.0018255629111081362,0.0008901437977328897,0.0003059361479245126,-0.21469011902809143,0.3164491057395935,-9.822629928588867
1745732025.2378438,0.004337014630436897,-0.002707120729610324,0.0002196398563683033,-0.3074880540370941,0.5800560712814331,-9.768518447875977
1745732025.240871,0.004662272986024618,0.0011286439839750528,0.0017931318143382668,-0.2542870342731476,0.29824069142341614,-9.773231506347656
1745732025.279913,-0.0015258368803188205,-0.0039171804673969746,0.0005063911667093635,-0.25762349367141724,0.5498177409172058,-9.752689361572266
1745732025.280024,0.00817953608930111,0.001289223087951541,0.0008865460986271501,-0.32111358642578125,0.3734641969203949,-9.823404312133789
1745732025.2801545,-0.004665404558181763,-0.0010572185274213552,-2.7351337848813273e-05,-0.20181603729724884,0.45025715231895447,-9.771688461303711
1745732025.2802553,0.009979265742003918,0.0005385980475693941,0.00109007372520864,-0.3411014974117279,0.5153172016143799,-9.74634838104248
1745732025.3144503,-0.004158633761107922,-0.0007175071514211595,-0.0008188042556867003,-0.19439437985420227,0.3317773640155792,-9.787812232971191
1745732025.3161333,0.007594287395477295,-0.0018088750075548887,0.002037468133494258,-0.3372272849082947,0.5817158222198486,-9.782625198364258
1745732025.3185723,0.0024221930652856827,0.0008724538492970169,9.924601909006014e-05,-0.22604839503765106,0.29953035712242126,-9.80994987487793
1745732025.3207927,8.146259642671794e-05,-0.00444395188242197,0.0006249496946111321,-0.2816580533981323,0.5645787715911865,-9.721056938171387
1745732025.3245816,0.006066627334803343,0.00044321961468085647,2.0950950784026645e-05,-0.30405953526496887,0.34432315826416016,-9.797059059143066
1745732025.3586848,-0.004166475497186184,-0.0029111471958458424,-0.000990942120552063,-0.21229927241802216,0.47149285674095154,-9.790061950683594
1745732025.3618996,0.011283221654593945,0.0019696897361427546,0.0015528348740190268,-0.33864158391952515,0.4713493287563324,-9.76082706451416
1745732025.3666022,-0.006024535745382309,-0.0026716403663158417,0.000780306407250464,-0.20276165008544922,0.35124078392982483,-9.749950408935547
1745732025.3688931,0.007574933581054211,-0.001453919569030404,0.002057640813291073,-0.330756276845932,0.5671787261962891,-9.76857852935791
1745732025.4036016,-0.002358653349801898,0.0009609609842300415,0.00044904270907863975,-0.21197828650474548,0.30401378870010376,-9.809645652770996
1745732025.4052706,0.0033323720563203096,-0.001622709445655346,0.0018711425364017487,-0.29692894220352173,0.5737718343734741,-9.732098579406738
1745732025.406468,0.0054101296700537205,0.001140720909461379,0.0006765736034139991,-0.26482322812080383,0.31705373525619507,-9.77161693572998
1745732025.408951,-0.0020002888049930334,-0.001694177626632154,0.00042214058339595795,-0.24401159584522247,0.53722083568573,-9.782700538635254
1745732025.4118927,0.00863119401037693,-0.0003835806273855269,0.0009023739257827401,-0.3347189724445343,0.40084901452064514,-9.790462493896484
1745732025.4431417,-0.005847787484526634,9.857835539150983e-05,-0.000165830017067492,-0.1988489329814911,0.40178030729293823,-9.744842529296875
1745732025.4457953,0.007367032580077648,-0.0008769823471084237,0.0004136369680054486,-0.3419581353664398,0.5360864400863647,-9.759376525878906
1745732025.4477074,-0.0015858495607972145,0.0007249281043186784,0.001224710256792605,-0.1949511170387268,0.31775718927383423,-9.82501220703125
1745732025.4496787,0.004683244973421097,-0.0014020709786564112,0.0017313029384240508,-0.34006959199905396,0.6033987998962402,-9.761052131652832
1745732025.4873574,0.002244883682578802,0.0007621805416420102,-0.0007795622223056853,-0.2524035573005676,0.30842700600624084,-9.782367706298828
1745732025.4908943,-0.001493676914833486,-0.004044216126203537,-0.0005256360745988786,-0.26743993163108826,0.5557169914245605,-9.738054275512695
1745732025.4933078,0.008508892729878426,0.0020791173446923494,0.0017381422221660614,-0.306530624628067,0.3801732361316681,-9.808984756469727
1745732025.4963446,-0.004625492263585329,-0.0025663257110863924,0.0007827540975995362,-0.20356011390686035,0.42911258339881897,-9.755553245544434
1745732025.4983008,0.010256883688271046,0.00020255027629900724,0.0006479903822764754,-0.3521042466163635,0.4969863295555115,-9.759023666381836
1745732025.5303214,-0.0046311235055327415,-0.0009936413262039423,0.0004741154261864722,-0.19995728135108948,0.3224804997444153,-9.794672012329102
1745732025.5412521,0.008815575391054153,-0.0027297516353428364,-0.0014969619223847985,-0.3202921748161316,0.5708272457122803,-9.756863594055176
1745732025.5419097,-0.004134451039135456,-0.0033790036104619503,0.0008745930390432477,-0.21629247069358826,0.4607335031032562,-9.755075454711914
1745732025.574102,0.009689640253782272,-1.3300217460709973e-06,0.002325895708054304,-0.33743420243263245,0.5226148962974548,-9.760062217712402
1745732025.5765946,-0.0042343889363110065,0.0007517774356529117,-0.0002480591647326946,-0.19160349667072296,0.338797390460968,-9.790544509887695
1745732025.577341,0.009182704612612724,-0.0031718299724161625,0.0012408413458615541,-0.33277931809425354,0.5901491641998291,-9.765708923339844
1745732025.5789456,-0.001975217368453741,0.0002148882922483608,0.0010615652427077293,-0.23572197556495667,0.308079332113266,-9.786406517028809
1745732025.5822663,0.0034568917471915483,-0.00034338439581915736,0.0029397886246442795,-0.2634351849555969,0.5740121006965637,-9.750173568725586
1745732025.6153908,0.00693428423255682,-0.0011706649092957377,-0.00011773572623496875,-0.2908129096031189,0.36044883728027344,-9.81177806854248
1745732025.6189277,-0.0032781853806227446,-0.0031308431643992662,0.0017279030289500952,-0.2325388640165329,0.4978315830230713,-9.74620246887207
1745732025.6214848,0.00858384184539318,-0.00014694810670334846,0.001296790549531579,-0.3350176513195038,0.4332509934902191,-9.781423568725586
1745732025.6238613,-0.00521194888278842,-0.0014730999246239662,0.0012435114476829767,-0.18797200918197632,0.3840223252773285,-9.784934043884277
1745732025.6585026,0.008785908110439777,1.486707515141461e-05,-0.0010923901572823524,-0.3388307988643646,0.5763310194015503,-9.747096061706543
1745732025.6590965,-0.0018803563434630632,0.00033373237238265574,0.0018525418126955628,-0.21213603019714355,0.31182679533958435,-9.799507141113281
1745732025.6622338,0.0037278137169778347,-0.0016432430129498243,0.0018660265486687422,-0.31726977229118347,0.6095842123031616,-9.764683723449707
1745732025.663734,0.0028898015152662992,-0.0007710455683991313,0.0006466899649240077,-0.25077372789382935,0.3034452497959137,-9.804522514343262
1745732025.665565,-0.0014240967575460672,-0.0019665302243083715,-0.0006717812502756715,-0.23083703219890594,0.5462475419044495,-9.742968559265137
1745732025.7177541,0.00845496915280819,0.0004776381829287857,0.0010985946282744408,-0.31428346037864685,0.4048413634300232,-9.794717788696289
1745732025.717912,-0.005320840980857611,-0.0023437696509063244,0.000853245030157268,-0.20581026375293732,0.4328978657722473,-9.755288124084473
1745732025.7180352,0.011230369098484516,-0.0013789096847176552,0.00013954497990198433,-0.3434569835662842,0.5145565867424011,-9.78080940246582
1745732025.7181423,-0.0033363699913024902,5.276985393720679e-05,0.0012756465002894402,-0.19622144103050232,0.3146558701992035,-9.7852201461792
1745732025.7466147,0.005872064270079136,-0.003202996449545026,-0.00017571754870004952,-0.3249216079711914,0.5775024890899658,-9.726252555847168
1745732025.7497427,0.0021893158555030823,0.0006098081357777119,0.0007315439870581031,-0.23354871571063995,0.31708288192749023,-9.807424545288086
1745732025.7528555,0.0009539354359731078,-0.002279411070048809,0.0006528141093440354,-0.2823891043663025,0.5875692367553711,-9.77094841003418
1745732025.7566874,0.007348671555519104,-0.0003608099650591612,0.0004986967542208731,-0.2908042073249817,0.3351467549800873,-9.782485008239746
1745732025.7895255,0.01011777762323618,3.894059773301706e-05,0.0004484171513468027,-0.3210811913013458,0.4684933125972748,-9.785956382751465
1745732025.8005013,-0.005096401087939739,-0.0006390266353264451,0.0019146871054545045,-0.21335074305534363,0.36994513869285583,-9.765739440917969
1745732025.8006608,0.0074349441565573215,-0.0033780280500650406,0.0004000008921138942,-0.347552627325058,0.5622373819351196,-9.7534761428833
1745732025.8007708,-0.0008463392150588334,-0.0017379559576511383,0.0011366556864231825,-0.21120575070381165,0.3002088665962219,-9.80647087097168
1745732025.831166,0.0044435472227633,-0.0028461518231779337,-0.0003587393439374864,-0.2957709729671478,0.5981525182723999,-9.73991584777832
1745732025.833157,0.003918524365872145,-8.980930033430923e-06,0.0004529935831669718,-0.27263912558555603,0.3054274618625641,-9.812078475952148
1745732025.833208,-0.0030526856426149607,-0.0035959393717348576,-0.00014707438822370023,-0.24924516677856445,0.5403796434402466,-9.744382858276367
1745732025.8347123,0.009943176992237568,9.176228559226729e-06,0.0002947306784335524,-0.31826332211494446,0.416196346282959,-9.781377792358398
1745732025.8359227,-0.006404230836778879,-0.0025473344139754772,0.002486268989741802,-0.19604066014289856,0.38514289259910583,-9.774145126342773
1745732025.8747277,0.01046978123486042,-0.0007073128363117576,0.0014306697994470596,-0.35523751378059387,0.5342557430267334,-9.785554885864258
1745732025.877295,-0.004465323872864246,-7.86055825301446e-05,0.0012381502892822027,-0.20295500755310059,0.3102259337902069,-9.788172721862793
1745732025.879622,0.00506585231050849,-0.0038301541935652494,0.0008306278032250702,-0.3223355710506439,0.5803395509719849,-9.727104187011719
1745732025.883538,0.002050005365163088,0.0009393010986968875,0.0012026892509311438,-0.22225287556648254,0.30679458379745483,-9.80505657196045
1745732025.918896,0.009973835200071335,0.0013082700315862894,-0.0006928056245669723,-0.3306851387023926,0.39863377809524536,-9.780937194824219
1745732025.923367,-0.005069465842097998,-0.0022571743465960026,0.001683382666669786,-0.18813075125217438,0.4338681101799011,-9.760124206542969
1745732025.9255576,0.009571445174515247,0.0014689868548884988,0.0014451801544055343,-0.34311729669570923,0.5168060660362244,-9.77004337310791
1745732025.9358027,-0.002546904142946005,-0.00018217494653072208,0.0005666924407705665,-0.19454188644886017,0.3268572688102722,-9.797584533691406
1745732025.9358711,0.006016688887029886,-0.00037645228439942,0.001045433571562171,-0.32434341311454773,0.6305860280990601,-9.741857528686523
1745732025.9693062,0.0018583086784929037,0.0008053973433561623,0.001287177437916398,-0.2313397228717804,0.2830764949321747,-9.799964904785156
1745732025.9699624,-0.0004507817211560905,-0.003405930008739233,0.002089601708576083,-0.25892168283462524,0.5637483596801758,-9.744758605957031
1745732025.9700484,0.007968070916831493,0.0028330772183835506,0.0008066607406362891,-0.2970241904258728,0.36828726530075073,-9.820696830749512
1745732025.9705887,-0.004615338519215584,-0.002344477456063032,0.0012026388430967927,-0.21986761689186096,0.474160373210907,-9.755753517150879
1745732026.0072381,0.009261379018425941,0.0004898460465483367,0.00100230542011559,-0.33750849962234497,0.48918280005455017,-9.756621360778809
1745732026.007322,-0.004519864451140165,-0.00255175051279366,-0.0003481877502053976,-0.1896994560956955,0.3453744351863861,-9.77835750579834
1745732026.0077357,0.008637316524982452,-0.0006461001466959715,0.0010011971462517977,-0.3491549491882324,0.5682241320610046,-9.781333923339844
1745732026.0129693,-0.0008192288805730641,0.0016039814800024033,0.00170234648976475,-0.21833071112632751,0.30142858624458313,-9.79780101776123
1745732026.0455527,0.0026223044842481613,-0.0021537858992815018,0.0008235099958255887,-0.28725185990333557,0.6056351661682129,-9.713908195495605
1745732026.0498054,0.006385532207787037,0.00211371760815382,-0.0005217561265453696,-0.2753600478172302,0.33066946268081665,-9.795880317687988
1745732026.0570235,-0.004636877216398716,-0.003078888403251767,-7.780710438964888e-05,-0.24725838005542755,0.5337271690368652,-9.796292304992676
1745732026.059744,0.009412391111254692,0.001959948567673564,0.0008944122237153351,-0.32518142461776733,0.41506871581077576,-9.786069869995117
1745732026.0619977,-0.004752857144922018,-0.0026592276990413666,0.0007406364311464131,-0.1947106420993805,0.40611690282821655,-9.754295349121094
1745732026.092993,0.010334176942706108,0.00019308700575493276,-0.0007072233711369336,-0.3454960286617279,0.5484415292739868,-9.776555061340332
1745732026.095417,-0.0042737736366689205,0.0007281922735273838,0.0005061106639914215,-0.19700507819652557,0.30416518449783325,-9.8139066696167
1745732026.100014,0.006156579591333866,-0.0002822638489305973,0.0016533499583601952,-0.3094799518585205,0.5925533175468445,-9.735471725463867
1745732026.1008573,0.0017455632332712412,0.00019715428061317652,0.001045886194333434,-0.23122918605804443,0.28623533248901367,-9.784835815429688
1745732026.1320746,-9.369738108944148e-05,-0.0020303530618548393,0.0013114032335579395,-0.2573292851448059,0.5653680562973022,-9.75676441192627
1745732026.133886,0.01022562850266695,-0.0001245349703822285,0.0012335868086665869,-0.33994370698928833,0.4806663990020752,-9.76545238494873
1745732026.1352782,-0.0024617251474410295,-6.774401117581874e-05,0.001064014621078968,-0.1931033879518509,0.34057241678237915,-9.797160148620605
1745732026.1363866,0.006836763117462397,-0.0030016053933650255,0.0007619338575750589,-0.3280859887599945,0.560811460018158,-9.764616966247559
1745732026.1833057,-0.0009141407790593803,-0.0004118541837669909,0.0004971788148395717,-0.22924569249153137,0.2793760895729065,-9.805977821350098
1745732026.1836004,0.00230029271915555,-0.0011323320213705301,0.00176908855792135,-0.28015613555908203,0.5825053453445435,-9.746975898742676
1745732026.1837022,0.004603308159857988,-4.19113966927398e-05,0.00020910515740979463,-0.28232669830322266,0.3143951892852783,-9.800715446472168
1745732026.183746,-0.0026354610454291105,-0.0014225138584151864,0.001635843189433217,-0.23898020386695862,0.5050781965255737,-9.740304946899414
1745732026.1859071,0.00896773487329483,0.000946338870562613,0.001836740062572062,-0.31476524472236633,0.4422007203102112,-9.757197380065918
1745732026.2191443,-0.005946326535195112,-0.0009837846737354994,0.0018645843956619501,-0.2016686499118805,0.360943078994751,-9.798768997192383
1745732026.2220447,0.00933912955224514,-0.00048742914805188775,-0.0003915565903298557,-0.3379320502281189,0.5721839070320129,-9.779488563537598
1745732026.2221444,-0.0021625510416924953,-0.00029159121913835406,0.0005951688508503139,-0.19461344182491302,0.296146035194397,-9.782855987548828
1745732026.2269816,0.004164417274296284,-0.003370694350451231,-0.00015748718578834087,-0.310308575630188,0.6148543953895569,-9.709157943725586
1745732026.2617865,0.005205552093684673,0.00103020912501961,0.0013554523466154933,-0.25656023621559143,0.3150063157081604,-9.809046745300293
1745732026.2652657,0.010234490968286991,-0.0005231444956734776,-9.746671275934204e-05,-0.3246057629585266,0.4455335736274719,-9.790632247924805
1745732026.2653117,-0.004516088869422674,-2.003100235015154e-05,0.0016312927473336458,-0.19301381707191467,0.3968290686607361,-9.777852058410645
1745732026.26723,0.009582767263054848,-0.0022393655963242054,7.177618681453168e-05,-0.33806949853897095,0.548252284526825,-9.777803421020508
1745732026.268801,-0.0022170974407345057,-0.000787844997830689,-0.0004594788479153067,-0.18883240222930908,0.30199775099754333,-9.795073509216309
1745732026.3113081,0.00467155734077096,-0.0024654949083924294,0.0022186660207808018,-0.3118566572666168,0.619616687297821,-9.740193367004395
1745732026.314913,0.002343391999602318,0.002285399939864874,0.0012730960734188557,-0.254601389169693,0.30456748604774475,-9.821056365966797
1745732026.3179116,-0.0009275437332689762,-0.0036118030548095703,-0.0012730699963867664,-0.2605096697807312,0.5708284974098206,-9.750757217407227
1745732026.3228195,0.00884094275534153,0.0033179842866957188,2.8490181648521684e-05,-0.30269908905029297,0.4232088625431061,-9.78010368347168
1745732026.3491163,-0.00499012740328908,-0.004494232125580311,0.0011645162012428045,-0.19383761286735535,0.4316612780094147,-9.757606506347656
1745732026.3514543,0.009404726326465607,1.2665358553931583e-05,-0.00036196730798110366,-0.34193944931030273,0.5240808725357056,-9.79463005065918
1745732026.354447,-0.0035583705175668,-0.0007838585297577083,0.0005879324162378907,-0.1996569186449051,0.3323298990726471,-9.790651321411133
1745732026.3573496,0.005606863647699356,-0.002213961910456419,0.00024154162383638322,-0.3242664933204651,0.5810444355010986,-9.736430168151855
1745732026.3574479,0.0015033641830086708,0.0011978006223216653,0.00045003314153291285,-0.24063536524772644,0.29266172647476196,-9.794644355773926
1745732026.3918743,0.0003358256071805954,-0.0038753848057240248,0.0016607731813564897,-0.2944735288619995,0.587791919708252,-9.764662742614746
1745732026.3970833,0.007044166326522827,0.0006175448070280254,0.000870811112690717,-0.2982806861400604,0.3622625470161438,-9.801918029785156
1745732026.4002838,-0.003734093625098467,-0.0020723280031234026,0.0009660797077231109,-0.21162685751914978,0.505807101726532,-9.738335609436035
1745732026.4017782,0.00872728880494833,0.0005101999267935753,0.000810901983641088,-0.32714223861694336,0.4561862349510193,-9.776961326599121
1745732026.4332838,-0.003932230640202761,-0.0009665228426456451,0.0012434471864253283,-0.1991100013256073,0.38607141375541687,-9.774928092956543
1745732026.4351196,0.007148902863264084,-0.00043034087866544724,0.00011919539974769577,-0.3467905521392822,0.5815157890319824,-9.745267868041992
1745732026.4366913,0.0005417503416538239,-0.0001458977349102497,0.0006133822607807815,-0.21913869678974152,0.2752871513366699,-9.798460960388184
1745732026.4388149,0.003066668752580881,-0.003908614628016949,0.0014772610738873482,-0.2968987822532654,0.6106045246124268,-9.756460189819336
1745732026.4779055,0.0030715609900653362,0.0013350547524169087,0.001428669667802751,-0.25979533791542053,0.30840450525283813,-9.807655334472656
1745732026.4804091,-0.0008885532733984292,-0.0027124963235110044,0.00045234570279717445,-0.2540091276168823,0.5174657106399536,-9.744873046875
1745732026.4827712,0.009081077761948109,-0.0006136660813353956,0.00042243595817126334,-0.3452130854129791,0.5219194293022156,-9.77637004852295
1745732026.4847572,-0.002663076389580965,0.00035361622576601803,0.001997394021600485,-0.19975994527339935,0.3314206302165985,-9.8082275390625
1745732026.5200393,0.005216143559664488,-0.0024929619394242764,0.0003415086248423904,-0.33672744035720825,0.5999178290367126,-9.756805419921875
1745732026.5235097,0.0030529373325407505,0.0005309631815180182,0.0010615262435749173,-0.25121816992759705,0.2911178469657898,-9.788347244262695
1745732026.5294611,2.4618580027890857e-06,-0.003385630203410983,0.0010857990710064769,-0.2621705234050751,0.5686618685722351,-9.747482299804688
1745732026.530751,0.007071288768202066,0.0013517820043489337,0.000746558653190732,-0.2885839641094208,0.36298805475234985,-9.779020309448242
1745732026.5343924,-0.003956804517656565,-0.0020675722043961287,0.002663209568709135,-0.2248353511095047,0.477039635181427,-9.75609016418457
1745732026.5638597,0.009623388759791851,-0.0009842620929703116,0.0016606294084340334,-0.3518688976764679,0.4974525570869446,-9.79470443725586
1745732026.566909,-0.005895394831895828,-0.0002754222368821502,0.0014129042392596602,-0.19183214008808136,0.3279445171356201,-9.766416549682617
1745732026.5694404,0.00827449094504118,-0.00037697359221056104,-0.001296384958550334,-0.33143413066864014,0.5951536893844604,-9.744867324829102
1745732026.5715814,-0.0002560015709605068,0.0018726021517068148,0.0008239971357397735,-0.22098776698112488,0.2849805951118469,-9.805021286010742
1745732026.6076171,0.0023829122073948383,-0.002759275957942009,0.0014677054714411497,-0.2859167456626892,0.5882835984230042,-9.753714561462402
1745732026.6108668,0.004834705498069525,0.002236527856439352,0.0009568411624059081,-0.286954790353775,0.34459084272384644,-9.820056915283203
1745732026.6134953,0.010550240986049175,-0.00021960232697892934,-0.00024267201661132276,-0.329581081867218,0.48859739303588867,-9.771820068359375
1745732026.615754,-0.0043162014335393906,-0.0013536206679418683,0.0012857354013249278,-0.20037031173706055,0.34886759519577026,-9.782333374023438
1745732026.649461,0.006574703846126795,-0.0017668565269559622,-0.0016318873967975378,-0.3362829089164734,0.5799583196640015,-9.764217376708984
1745732026.6511524,-0.0003788842004723847,0.0017093438655138016,0.0018907093908637762,-0.21624310314655304,0.2987592816352844,-9.78144645690918
1745732026.6591141,0.0030252798460423946,-0.0020503595005720854,0.0011371156433597207,-0.2941136658191681,0.6041174530982971,-9.742506980895996
1745732026.6591952,0.0059840986505150795,0.0007497355109080672,0.0003725861315615475,-0.26389074325561523,0.3234730660915375,-9.813122749328613
1745732026.6592665,-0.004005848430097103,-0.002407040214166045,-0.0003592967113945633,-0.2367141991853714,0.521197497844696,-9.74839973449707
1745732026.6908736,0.010022280737757683,-0.0011213868856430054,0.0019559289794415236,-0.33020877838134766,0.4393863081932068,-9.781972885131836
1745732026.6941028,-0.005190135445445776,-0.0016569348517805338,-0.0006928018410690129,-0.19196854531764984,0.386453777551651,-9.757513046264648
1745732026.6958706,0.006635321769863367,-0.0017990085761994123,0.0013001533225178719,-0.33114200830459595,0.5567264556884766,-9.744841575622559
1745732026.6965208,-0.0016660529654473066,0.0004306824994273484,-0.00025400854065082967,-0.2143172323703766,0.30321812629699707,-9.798337936401367
1745732026.7335038,0.003439237829297781,0.0001285005419049412,0.0013583397958427668,-0.3218497037887573,0.6199983954429626,-9.768186569213867
1745732026.740233,0.004437808878719807,-0.0006166763487271965,0.0012593087740242481,-0.2510773539543152,0.31383901834487915,-9.804970741271973
1745732026.7529755,-0.0019516063621267676,-0.0025013205595314503,0.0007294020033441484,-0.2462913691997528,0.5373843908309937,-9.723465919494629
1745732026.7531152,0.008963237516582012,0.0006209792336449027,0.0007293081725947559,-0.3200759291648865,0.40309256315231323,-9.795982360839844
1745732026.7531931,-0.004633442033082247,-0.0029482999816536903,0.00038649552152492106,-0.20605453848838806,0.43661022186279297,-9.780537605285645
1745732026.779536,0.009794050827622414,0.0006330603500828147,0.0007990409503690898,-0.35616230964660645,0.5202085375785828,-9.767138481140137
1745732026.7817078,-0.003610338317230344,-0.002340465784072876,0.0010793397668749094,-0.19343328475952148,0.33423376083374023,-9.77168083190918
1745732026.7833326,0.007103817071765661,-0.0016213502967730165,0.00019300261919852346,-0.30537810921669006,0.5844268202781677,-9.746289253234863
1745732026.784572,0.0015402173157781363,0.0013379629235714674,0.0008888688171282411,-0.22598180174827576,0.27237510681152344,-9.800484657287598
1745732026.8254766,-0.0005435030907392502,-0.002676889067515731,0.0004003700742032379,-0.2798033654689789,0.6064790487289429,-9.755354881286621
1745732026.8271687,0.007076093461364508,0.0016078980406746268,0.0009190484997816384,-0.2728268504142761,0.35340410470962524,-9.796120643615723
1745732026.8293848,-0.00597901176661253,-0.0034839920699596405,0.0012676469050347805,-0.2077917605638504,0.48513349890708923,-9.755481719970703
1745732026.832696,0.007942670956254005,-0.0006389777990989387,0.0017023846739903092,-0.3492392897605896,0.5778639912605286,-9.760663032531738
1745732026.8361828,-0.0019423654302954674,-0.0009651376167312264,-7.3245960265921894e-06,-0.2024046927690506,0.29167667031288147,-9.79251480102539
1745732026.8671844,0.0039014022331684828,-0.002881737193092704,-7.302746234927326e-05,-0.28761357069015503,0.6057451367378235,-9.751729011535645
1745732026.8708913,0.006133530288934708,0.000776855566073209,0.002172864507883787,-0.2833063006401062,0.34165021777153015,-9.793413162231445
1745732026.8738472,-0.005118353758007288,-0.004303707741200924,0.0027428516186773777,-0.24411658942699432,0.536192774772644,-9.752891540527344
1745732026.8739302,0.010538420639932156,0.0009385572629980743,-0.0004323919420130551,-0.3273547291755676,0.43054288625717163,-9.810110092163086
1745732026.9091296,-0.00623773317784071,-0.0006359239923767745,0.0019818642176687717,-0.20057904720306396,0.4136350154876709,-9.773877143859863
1745732026.9181545,0.009670853614807129,-0.00047551008174195886,0.0013637191150337458,-0.3392638564109802,0.5200957655906677,-9.75989055633545
1745732026.918203,-0.0023652140516787767,-0.001055671600624919,0.001069438410922885,-0.2050880491733551,0.3241235613822937,-9.812538146972656
1745732026.918306,0.0050484249368309975,-9.690924343885854e-05,0.0021560618188232183,-0.30967089533805847,0.5935514569282532,-9.740437507629395
1745732026.948596,0.0026672636158764362,0.00030418465030379593,0.0006916361744515598,-0.23634913563728333,0.2806064486503601,-9.7938814163208
1745732026.9510198,0.00013980567746330053,-0.002754384186118841,0.002636636607348919,-0.26930469274520874,0.5736075639724731,-9.759050369262695
1745732026.961873,0.006611281540244818,0.002594007644802332,-0.0001133018740802072,-0.2939441204071045,0.3620512783527374,-9.79175090789795
1745732026.9620051,-0.005698760040104389,-0.002168192993849516,-0.0010249348124489188,-0.20891280472278595,0.41037875413894653,-9.748244285583496
1745732026.993137,0.010481740348041058,0.0007297109114006162,0.001830707653425634,-0.3360462784767151,0.5435880422592163,-9.76297378540039
1745732026.996813,-0.0029388328548520803,-0.0017488671001046896,-0.0006923977052792907,-0.19426658749580383,0.3086361587047577,-9.821545600891113
1745732026.9999645,0.004586690105497837,-8.229026207118295e-06,0.0009401449933648109,-0.32945314049720764,0.5976606607437134,-9.753408432006836
1745732027.0030265,0.0015526978531852365,2.724677415244514e-06,0.0008207921055145562,-0.24461162090301514,0.3022058606147766,-9.804285049438477
1745732027.0057821,-0.0004993455368094146,-0.003860828233882785,0.001028344384394586,-0.26383110880851746,0.5768769979476929,-9.752054214477539
1745732027.0375445,0.008266234770417213,0.0010857454035431147,0.0007260629208758473,-0.29179278016090393,0.3551662564277649,-9.794012069702148
1745732027.041832,-0.0050705671310424805,-0.0019593038596212864,0.0006202672375366092,-0.21196167171001434,0.4835057854652405,-9.763010025024414
1745732027.043207,0.008671208284795284,-0.0005180604639463127,6.168497202452272e-05,-0.34090644121170044,0.4697137773036957,-9.786578178405762
1745732027.046189,-0.004907464142888784,-6.158184078230988e-06,0.0010754110990092158,-0.18982258439064026,0.3618398606777191,-9.773365020751953
1745732027.0821998,0.008588801138103008,-0.0011556934332475066,-0.0008368718554265797,-0.3427635729312897,0.5720384120941162,-9.735757827758789
1745732027.0848289,-0.002364490646868944,-0.0018795460928231478,0.00014479891979135573,-0.206447035074234,0.27167749404907227,-9.814374923706055
1745732027.0869653,0.0023281085304915905,-0.0014355784514918923,0.00030517723644152284,-0.29581767320632935,0.6086841821670532,-9.75605583190918
1745732027.0912802,0.005366676487028599,0.0010273001389577985,-0.0005613031098619103,-0.2704933285713196,0.32683461904525757,-9.79129695892334
1745732027.1271172,-0.0036896727979183197,-0.002667345106601715,0.0010644865687936544,-0.22241008281707764,0.5125905275344849,-9.739591598510742
1745732027.1272347,0.009580859914422035,0.0023532272316515446,0.0017736286390572786,-0.33284634351730347,0.43957099318504333,-9.79680061340332
1745732027.1290343,-0.004514606669545174,-0.0024958676658570766,-0.0014681133907288313,-0.20917432010173798,0.3832171559333801,-9.777137756347656
1745732027.1312287,0.008927440270781517,-0.0007648147293366492,0.0009392057545483112,-0.3430279791355133,0.5365675687789917,-9.7636137008667
1745732027.1334999,-0.0027234037406742573,-0.0003440178115852177,0.00011444962729001418,-0.20280250906944275,0.3153606355190277,-9.791284561157227
1745732027.1654155,0.004885741043835878,-0.0016923428047448397,0.00205890741199255,-0.32538527250289917,0.5680822730064392,-9.732088088989258
1745732027.168475,0.001936976215802133,0.0005553009686991572,-0.00033537019044160843,-0.24770383536815643,0.31853097677230835,-9.807783126831055
1745732027.1727393,-0.0014952333876863122,-0.0019504452357068658,0.0008088421309366822,-0.2696552872657776,0.5738475918769836,-9.749176025390625
1745732027.1747065,-0.0014802279183641076,0.0001882273645605892,-6.297100480878726e-05,-0.23100121319293976,0.27798017859458923,-9.838708877563477
1745732027.2099943,0.0014098391402512789,-0.002292716410011053,0.0016877962043508887,-0.28891319036483765,0.587638258934021,-9.720436096191406
1745732027.215004,0.0043404484167695045,0.00017737755842972547,0.00011038822412956506,-0.27595874667167664,0.3365917205810547,-9.786153793334961
1745732027.2197707,-0.003744676010683179,-0.002064669271931052,0.0009325724095106125,-0.21805481612682343,0.5054433941841125,-9.786797523498535
1745732027.2238853,0.008691715076565742,0.0013600664678961039,0.000640527461655438,-0.3322235941886902,0.4568384289741516,-9.788824081420898
1745732027.2506914,-0.005352075211703777,-0.0005694950232282281,-0.0005206034984439611,-0.19232413172721863,0.3944951593875885,-9.750955581665039
1745732027.2522326,0.008357800543308258,-0.0004059242201037705,0.0006887086201459169,-0.3383257985115051,0.5491885542869568,-9.760873794555664
1745732027.2545955,-0.002659192308783531,0.00044152908958494663,-0.0005899423849768937,-0.20523028075695038,0.2996572256088257,-9.812209129333496
1745732027.2565737,0.004408517386764288,-0.0032807718962430954,0.0014401826774701476,-0.3132903277873993,0.6151464581489563,-9.7420654296875
1745732027.2580843,0.0037676189094781876,0.0018486076733097434,0.0012838429538533092,-0.2596513628959656,0.3059946596622467,-9.781387329101562
1745732027.2961442,-0.0022673888597637415,-0.003086835378780961,0.002067333087325096,-0.254626601934433,0.5562911629676819,-9.75307846069336
1745732027.298281,0.008852154947817326,0.00015502292080782354,-0.0013439652975648642,-0.3041040301322937,0.40085625648498535,-9.806234359741211
1745732027.30313,-0.005086513701826334,-0.0012763924896717072,0.0023113524075597525,-0.19378027319908142,0.4542102813720703,-9.774499893188477
1745732027.3389435,0.008934908546507359,-0.0002679897006601095,0.0007252016221173108,-0.3169941306114197,0.41627854108810425,-9.799062728881836
1745732027.3429873,-0.00445864163339138,-0.0022050016559660435,0.0014668755466118455,-0.17947354912757874,0.39757251739501953,-9.760778427124023
1745732027.3444765,0.010391049087047577,0.0001736898411763832,0.00029418300255201757,-0.3548443913459778,0.5559711456298828,-9.769454002380371
1745732027.3456817,-0.005306045059114695,-0.000831795739941299,0.0007839723257347941,-0.20367202162742615,0.2987726330757141,-9.80396842956543
1745732027.3485715,0.006057265214622021,-0.0006314630154520273,0.0015643902588635683,-0.317001610994339,0.587859034538269,-9.757512092590332
1745732027.385199,0.001999249216169119,0.0006484095938503742,0.0005653128027915955,-0.2218811810016632,0.3022080063819885,-9.791147232055664
1745732027.3866928,-0.001226347521878779,-0.005018393974751234,0.0005753954756073654,-0.2588082253932953,0.570514440536499,-9.718350410461426
1745732027.3888729,0.007888475432991982,0.0015308704460039735,0.0002885540889110416,-0.321099191904068,0.3815046548843384,-9.805502891540527
1745732027.392257,-0.0040619587525725365,-0.001274713664315641,0.0010946805123239756,-0.21438546478748322,0.47025051712989807,-9.782666206359863
1745732027.423227,0.012148989364504814,0.001277295290492475,0.00010714959353208542,-0.34279924631118774,0.475116103887558,-9.769994735717773
1745732027.4250152,-0.005593850277364254,-0.0010043466463685036,0.0009958293521776795,-0.18241600692272186,0.3578871190547943,-9.774240493774414
1745732027.426993,0.006856600288301706,-0.002312621334567666,-0.0005919905379414558,-0.33918315172195435,0.5977777242660522,-9.783653259277344
1745732027.4313219,-0.00023177303955890238,0.0018688736017793417,0.0020371810533106327,-0.2142765074968338,0.2649579644203186,-9.806234359741211
1745732027.4324872,0.0032406095415353775,-0.0022454916033893824,0.0013526674592867494,-0.2900315821170807,0.60640549659729,-9.730179786682129
1745732027.4661558,0.0066440836526453495,0.0009973577689379454,0.0005369697464630008,-0.2738606631755829,0.3214694559574127,-9.81031322479248
1745732027.4697354,-0.0032000758219510317,-0.002917742822319269,0.0003883815079461783,-0.2327764481306076,0.5037832856178284,-9.747095108032227
1745732027.471811,0.009606724604964256,0.0011391211301088333,0.0004960802616551518,-0.3127362132072449,0.45227116346359253,-9.783567428588867
1745732027.474755,-0.0045879194512963295,-0.0019676857627928257,0.00041617880924604833,-0.19234876334667206,0.3942061960697174,-9.77872371673584
1745732027.5100443,0.009375986643135548,-0.001560349715873599,0.001885605393908918,-0.3413492739200592,0.5508009791374207,-9.75285530090332
1745732027.5120137,-0.001743036089465022,-0.0003082531038671732,0.00026655220426619053,-0.18129821121692657,0.31402483582496643,-9.788056373596191
1745732027.5138285,0.005102980881929398,-0.0027858607936650515,-3.4925782529171556e-05,-0.30607467889785767,0.5835829377174377,-9.74560546875
1745732027.5165718,0.003483196021988988,0.000454592372989282,0.0007352899992838502,-0.2491491138935089,0.30102893710136414,-9.809682846069336
1745732027.5558472,0.007538801524788141,-0.0015015869867056608,0.0013086798135191202,-0.3406718671321869,0.5914707183837891,-9.746891975402832
1745732027.5661564,0.000936530705075711,0.0011323128128424287,0.0010245245648548007,-0.228285551071167,0.27688974142074585,-9.817914962768555
1745732027.566291,0.0004992537433281541,-0.00437652412801981,0.0009646176476962864,-0.2860058546066284,0.633283257484436,-9.74131965637207
1745732027.5663695,0.007615848444402218,0.00206260709092021,0.0008257244480773807,-0.2848813235759735,0.3223283290863037,-9.803213119506836
1745732027.597512,-0.005075274500995874,-0.004097585566341877,0.0011510306503623724,-0.21807435154914856,0.47875046730041504,-9.757852554321289
1745732027.6013553,0.009573565796017647,0.001506556523963809,0.0001319006405537948,-0.3264400362968445,0.4860292375087738,-9.778040885925293
1745732027.605071,-0.006131085567176342,-0.0005765806417912245,-4.169482417637482e-05,-0.19001011550426483,0.38645729422569275,-9.78738021850586
1745732027.6069207,0.010561871342360973,-0.003098101820796728,-0.00040550011908635497,-0.33808380365371704,0.5531570315361023,-9.748956680297852
1745732027.6393137,-0.0018180549377575517,-2.7696649340214208e-05,9.816651981964242e-06,-0.217586487531662,0.3143896460533142,-9.797322273254395
1745732027.6400917,0.0032854252494871616,-0.0019535908941179514,0.0002569450007285923,-0.3165063261985779,0.6115063428878784,-9.750737190246582
1745732027.642932,0.005012067966163158,-0.00084983732085675,0.0008944155415520072,-0.24402225017547607,0.29982030391693115,-9.822944641113281
1745732027.6443994,-0.002203588141128421,-0.0020220514852553606,0.0012255023466423154,-0.2625678777694702,0.5570148229598999,-9.7359037399292
1745732027.6462336,0.008011942729353905,0.0012491375673562288,0.00018163489585276693,-0.30688002705574036,0.39199909567832947,-9.784759521484375
1745732027.683887,-0.00460791727527976,-0.0013055249582976103,0.0010285042226314545,-0.2002979815006256,0.2990143299102783,-9.804835319519043
1745732027.686766,0.003646655473858118,-0.0033362966496497393,0.00020783187937922776,-0.32262006402015686,0.5922235250473022,-9.735493659973145
1745732027.6892064,0.002734273672103882,0.0011085497681051493,-0.0004665757005568594,-0.2424074113368988,0.30217045545578003,-9.803018569946289
1745732027.6923134,-0.001986675662919879,-0.0033712952863425016,0.0025086633395403624,-0.2618643641471863,0.5367411375045776,-9.749530792236328
1745732027.7246103,0.009917224757373333,0.0004649202455766499,0.0006850911304354668,-0.31186923384666443,0.39967435598373413,-9.794779777526855
1745732027.7261817,-0.005909038241952658,-0.003491400508210063,-0.00015774762141518295,-0.20675642788410187,0.4612734317779541,-9.740299224853516
1745732027.729222,0.009598406963050365,0.0008278040331788361,0.0014714275021106005,-0.33696144819259644,0.48269033432006836,-9.761934280395508
1745732027.7310948,-0.0033165686763823032,-0.0025898092426359653,-0.0003283680707681924,-0.21565954387187958,0.34159055352211,-9.809673309326172
1745732027.7708838,0.00620149914175272,-0.0026578078977763653,0.0007341866148635745,-0.3309933543205261,0.5981069803237915,-9.75648021697998
1745732027.7734408,-0.00028291967464610934,0.0001240336277987808,0.0006090590031817555,-0.23047861456871033,0.28113144636154175,-9.788782119750977
1745732027.7744772,-0.0002155879483325407,-0.0014320251066237688,0.0016721643041819334,-0.304273784160614,0.6081656217575073,-9.741868019104004
1745732027.7764444,0.006496787071228027,0.0005430543678812683,-0.00032339643803425133,-0.2715546488761902,0.332383930683136,-9.79186725616455
1745732027.814611,-0.004471063148230314,-0.0027854726649820805,0.0013998843496665359,-0.23863689601421356,0.5228204727172852,-9.76539421081543
1745732027.8149831,0.009721633978188038,-0.0008722915081307292,-0.0005383846000768244,-0.3293288052082062,0.47671929001808167,-9.784749031066895
1745732027.8165734,-0.006488471291959286,-0.000940611120313406,-0.0002796835615299642,-0.19610992074012756,0.36197808384895325,-9.7695951461792
1745732027.8180766,0.009334197267889977,7.822853513062e-05,0.0011749647092074156,-0.3464702367782593,0.5567618608474731,-9.746574401855469
1745732027.8208768,-0.001451477175578475,-0.0007871270063333213,0.0005757802282460034,-0.20259127020835876,0.29215508699417114,-9.800945281982422
1745732027.8613305,0.004549126140773296,-0.0019357793498784304,0.0020253376569598913,-0.3123514950275421,0.6013684272766113,-9.750962257385254
1745732027.862757,0.004583768080919981,0.0024219509214162827,0.0014274606946855783,-0.272417277097702,0.30845901370048523,-9.787824630737305
1745732027.8628383,-0.0031867544166743755,-0.0034054641146212816,-0.000287059840047732,-0.24239449203014374,0.538861870765686,-9.749346733093262
1745732027.8648303,0.009459750726819038,0.000299286562949419,0.00011984766751993448,-0.3099212646484375,0.39447295665740967,-9.787259101867676
1745732027.8981848,-0.004162068944424391,-0.0017194651300087571,0.0011661120224744081,-0.19656454026699066,0.4262678623199463,-9.750842094421387
1745732027.9081416,0.008755233138799667,-0.000730229658074677,0.0020321584306657314,-0.34308481216430664,0.5274443626403809,-9.757913589477539
1745732027.9082196,0.006110834889113903,-0.0032059848308563232,0.0015763085102662444,-0.32260197401046753,0.574258029460907,-9.758188247680664
1745732027.908268,0.0020405214745551348,0.0018963301554322243,0.0019034177530556917,-0.21725335717201233,0.2862422466278076,-9.774754524230957
1745732027.941258,-0.0007733581587672234,-0.0014433206524699926,0.0013232979690656066,-0.27190306782722473,0.595262348651886,-9.71676254272461
1745732027.9430685,0.004706329666078091,-0.00035031704464927316,0.0009446759941056371,-0.30037933588027954,0.354767382144928,-9.815696716308594
1745732027.9528768,-0.004187717102468014,-0.001741465413942933,0.002378639066591859,-0.22185787558555603,0.467489629983902,-9.774535179138184
1745732027.9530284,0.010401727631688118,0.000652880291454494,-0.0005329421837814152,-0.33143192529678345,0.48031625151634216,-9.763787269592285
1745732027.9820795,-0.006677849683910608,-0.0033604218624532223,0.002118190750479698,-0.2017958164215088,0.35943397879600525,-9.7577543258667
1745732027.9838269,0.008225703611969948,-0.0009205251699313521,-0.0008237322908826172,-0.3302925229072571,0.5907633304595947,-9.768884658813477
1745732027.9859996,-0.0016151139279827476,0.0007862391066737473,0.0008318610489368439,-0.2187056541442871,0.294299453496933,-9.80285930633545
1745732027.988301,0.0028003486804664135,-0.004111431073397398,0.0019640657119452953,-0.305704265832901,0.5860507488250732,-9.726701736450195
1745732027.9918618,0.005308023188263178,0.002071019494906068,-0.0001602476986590773,-0.2720736563205719,0.3318566083908081,-9.807832717895508
1745732028.0265973,-0.00472748139873147,-0.0026270030066370964,0.001753720105625689,-0.23722544312477112,0.517488956451416,-9.769868850708008
1745732028.029101,0.008990289643406868,0.0012993925483897328,0.0013389394152909517,-0.32945889234542847,0.4262329936027527,-9.80535888671875
1745732028.0300643,0.0013986111152917147,-0.0023842572700232267,-0.00040485328645445406,-0.30704373121261597,0.608177661895752,-9.735204696655273
1745732028.0328245,0.006781210191547871,0.0017347406828776002,0.0008934108773246408,-0.28385981917381287,0.3209508955478668,-9.80279541015625
1745732028.0741432,-0.002125931205227971,-0.0030614491552114487,0.0009076062706299126,-0.23343554139137268,0.5178490281105042,-9.75505542755127
1745732028.0775988,0.00828415434807539,0.0009726498392410576,0.0002637949655763805,-0.3300178647041321,0.4316059947013855,-9.796058654785156
1745732028.0799024,-0.00416271947324276,-0.0033409942407160997,0.0009080611052922904,-0.18803617358207703,0.39562296867370605,-9.773906707763672
1745732028.0827956,0.00956217385828495,3.379536792635918e-05,0.0007509325514547527,-0.3393741548061371,0.550177276134491,-9.76044750213623
1745732028.0848544,-0.0032025203108787537,0.0002613182587083429,0.001892763888463378,-0.19639737904071808,0.32244688272476196,-9.788289070129395
1745732028.1121645,0.004592835437506437,-0.0019634293857961893,-0.000840982305817306,-0.3019026815891266,0.5912836194038391,-9.751768112182617
1745732028.1163383,0.0022217913065105677,0.0014412429882213473,0.0012321536196395755,-0.2330697476863861,0.28543320298194885,-9.790547370910645
1745732028.1164336,-0.000702432356774807,-0.0035556661896407604,0.00047656457172706723,-0.2595145106315613,0.5695090293884277,-9.75093936920166
1745732028.117332,0.007685053162276745,0.00254705804400146,0.00031612528255209327,-0.3001517653465271,0.3796384930610657,-9.802892684936523
1745732028.1542778,-0.004391821101307869,-0.002904405351728201,-0.0003747233422473073,-0.2163618505001068,0.4509153962135315,-9.761507034301758
1745732028.1568425,0.009202206507325172,-0.001635788008570671,0.00029674466350115836,-0.3405793309211731,0.5081214904785156,-9.74897575378418
1745732028.1596773,-0.00453227711841464,-0.0020279951859265566,-0.0013196206418797374,-0.17517955601215363,0.3480188250541687,-9.781621932983398
1745732028.1639202,0.006296528968960047,0.001279322779737413,0.0018966285279020667,-0.3372650146484375,0.6025468111038208,-9.766847610473633
1745732028.1680121,0.0008834222098812461,0.0011947628809139132,0.0013666671002283692,-0.23247966170310974,0.29395800828933716,-9.804960250854492
1745732028.2011225,0.00047583552077412605,-0.005026000551879406,0.0005261240876279771,-0.29342514276504517,0.5919018983840942,-9.733078002929688
1745732028.2044744,0.008177900686860085,0.0008569538476876915,-0.0015704206889495254,-0.2856752872467041,0.3558880686759949,-9.810909271240234
1745732028.2090373,-0.004427425097674131,-0.00249807583168149,0.0015911951195448637,-0.22705908119678497,0.5028213262557983,-9.766048431396484
1745732028.21043,0.00971965678036213,0.0016455112490803003,0.0011684263590723276,-0.3246442675590515,0.4772312045097351,-9.769709587097168
1745732028.2427413,-0.006386213935911655,-0.002302047796547413,-0.00044950254959985614,-0.1947590857744217,0.3655683994293213,-9.75710678100586
1745732028.2460365,0.00772548234090209,-0.0006650154246017337,0.0025333226658403873,-0.34885114431381226,0.5690544843673706,-9.768945693969727
1745732028.2494574,-0.003570863977074623,0.0005217345315031707,5.326210612111026e-06,-0.21030695736408234,0.3130527138710022,-9.807161331176758
1745732028.2534719,0.0034061484038829803,-0.0023815010208636522,0.0007571784663014114,-0.2980407178401947,0.5950271487236023,-9.728657722473145
1745732028.2834165,0.004164894577115774,0.0018879190320149064,0.00013924227096140385,-0.2549983859062195,0.31233930587768555,-9.777870178222656
1745732028.286045,-0.0026986529119312763,-0.0037613436579704285,0.0004802722542081028,-0.24858936667442322,0.5533528923988342,-9.7616548538208
1745732028.2889166,0.009237884543836117,0.0005197285208851099,0.0011234015692025423,-0.31906095147132874,0.41830509901046753,-9.800355911254883
1745732028.2918825,-0.00539280753582716,-0.0027236088644713163,-0.0007837979355826974,-0.20538906753063202,0.43031948804855347,-9.751791000366211
1745732028.2940664,0.009230153635144234,-0.0022224942222237587,0.0011903832200914621,-0.3493495583534241,0.5202801823616028,-9.73658275604248
1745732028.3291354,-0.0017490849131718278,0.0013366625644266605,0.0008489367319270968,-0.18491506576538086,0.3046365976333618,-9.800589561462402
1745732028.3295286,0.004292754456400871,-0.00046902280882932246,-0.0010817317524924874,-0.312502920627594,0.6161376237869263,-9.752070426940918
1745732028.3323054,0.0026988317258656025,8.308754331665114e-05,0.0016724138986319304,-0.22289888560771942,0.29900646209716797,-9.788922309875488
1745732028.333489,0.0015433060470968485,-0.004451288376003504,0.0005390215083025396,-0.2837386131286621,0.5823329091072083,-9.751508712768555
1745732028.3732235,0.005646768491715193,0.0012162219500169158,0.00040424265898764133,-0.29040879011154175,0.3670900762081146,-9.813135147094727
1745732028.3737843,-0.0039722188375890255,-0.0015976764261722565,0.0003825221210718155,-0.20836743712425232,0.46542519330978394,-9.762044906616211
1745732028.3773196,0.010141761042177677,0.001470721559599042,0.001299479277804494,-0.34493428468704224,0.5063668489456177,-9.76473331451416
1745732028.382578,0.0008887654403224587,0.0015707116108387709,0.0032596327364444733,-0.2271362990140915,0.2870153486728668,-9.829727172851562
1745732028.4135697,0.0005045616999268532,-0.002632391406223178,0.0007919588824734092,-0.2951710820198059,0.57538902759552,-9.730408668518066
1745732028.416119,0.007362449076026678,0.002401416888460517,-7.305806320800912e-06,-0.28907012939453125,0.3653697371482849,-9.768911361694336
1745732028.4167562,-0.005975761450827122,-0.004577252082526684,0.0006218985072337091,-0.22073276340961456,0.46833372116088867,-9.779571533203125
1745732028.4195633,0.010719569399952888,0.0011044824495911598,0.0006041784072294831,-0.32666510343551636,0.4759172797203064,-9.808545112609863
1745732028.4242327,-0.004447340499609709,-0.0004761254822369665,0.001494249445386231,-0.18669143319129944,0.3478032648563385,-9.762935638427734
1745732028.4579756,0.008751490153372288,-0.003054078435525298,0.0018344782292842865,-0.34325361251831055,0.5839906930923462,-9.730302810668945
1745732028.4600418,-0.0011969145853072405,0.0021460247226059437,0.0009932590182870626,-0.2305402308702469,0.3078118562698364,-9.837156295776367
1745732028.4635186,0.002956345211714506,-0.0024398809764534235,0.0015013111988082528,-0.31277263164520264,0.5891628265380859,-9.771963119506836
1745732028.471965,0.006515756249427795,-0.0006233553285710514,0.0005180498701520264,-0.26421910524368286,0.31913453340530396,-9.785055160522461
1745732028.5006175,-0.0030934070236980915,-0.0020582706201821566,0.00214768061414361,-0.2357214242219925,0.5355995893478394,-9.722615242004395
1745732028.5043006,0.008873678743839264,0.0015136103611439466,0.0008041305700317025,-0.32133749127388,0.4209526479244232,-9.785970687866211
1745732028.5050416,-0.003640134586021304,-0.0012439584825187922,0.001170107163488865,-0.18353529274463654,0.41034436225891113,-9.78772258758545
1745732028.5073495,0.010258128866553307,-0.0005978936096653342,0.0014909387100487947,-0.3482462763786316,0.5209404826164246,-9.77366828918457
1745732028.5443714,-0.0034427486825734377,0.00037548880209214985,2.1870666387258098e-05,-0.19453957676887512,0.3066171407699585,-9.787088394165039
1745732028.546151,0.005218599922955036,-0.002663333434611559,0.0009147982345893979,-0.3255821764469147,0.6143760681152344,-9.762679100036621
1745732028.5484884,0.00021032961376477033,0.0010601099347695708,0.00187466642819345,-0.232957124710083,0.299692302942276,-9.824895858764648
1745732028.5496535,0.0007928441045805812,-0.0015140597242861986,0.0003779080288950354,-0.27472060918807983,0.556270956993103,-9.734912872314453
1745732028.5863957,0.007470016833394766,0.0013853957643732429,0.0005889330059289932,-0.29736819863319397,0.3675565719604492,-9.789945602416992
1745732028.589538,-0.003982767928391695,-0.002044136868789792,0.001248781569302082,-0.22398507595062256,0.4666648805141449,-9.774806022644043
1745732028.593299,0.009362256154417992,0.00023133456124924123,0.0019707579631358385,-0.3481080234050751,0.4845579266548157,-9.796310424804688
1745732028.5958834,-0.004927732050418854,-0.0024940338917076588,-0.00018483791791368276,-0.1924096792936325,0.3377918004989624,-9.779962539672852
1745732028.5981655,0.006503394339233637,0.0001648913894314319,0.0013141775270923972,-0.329988956451416,0.5738277435302734,-9.740565299987793
1745732028.6303341,0.006518288049846888,0.0015515168197453022,1.664995215833187e-05,-0.272166907787323,0.3303758502006531,-9.807859420776367
1745732028.6329172,-0.003309315536171198,-0.0017232928657904267,-0.0006801061681471765,-0.2203247994184494,0.4998660981655121,-9.740181922912598
1745732028.6351526,0.008078454993665218,-0.00025156798074021935,0.0013808321673423052,-0.3304428458213806,0.4243888854980469,-9.757818222045898
1745732028.6376164,-0.005031512584537268,-0.0013519460335373878,0.0013059278717264533,-0.19337041676044464,0.38985681533813477,-9.77966022491455
1745732028.670693,0.009421630762517452,-0.0013579202350229025,-0.001145301153883338,-0.3513125479221344,0.5409736633300781,-9.804010391235352
1745732028.6728184,-0.0007832686533220112,0.0016887746751308441,0.0018497466808184981,-0.2118726223707199,0.28154414892196655,-9.797831535339355
1745732028.6751134,0.0038436756003648043,-0.003262778278440237,-0.001128665404394269,-0.30119338631629944,0.5955739617347717,-9.720990180969238
1745732028.6769888,0.003364022821187973,0.00047627679305151105,0.0007176125072874129,-0.2383418083190918,0.2987966537475586,-9.817070007324219
1745732028.679182,-0.00039535638643428683,-0.002878369065001607,0.00034438440343365073,-0.25614362955093384,0.5743387937545776,-9.759654998779297
1745732028.7156818,0.00799903366714716,0.00228369003161788,0.00040909339440986514,-0.3090229034423828,0.39807024598121643,-9.779550552368164
1745732028.720268,-0.005637555383145809,-0.0012422477593645453,2.3745838916511275e-05,-0.19707760214805603,0.4464383125305176,-9.767996788024902
1745732028.7257612,0.01073780283331871,0.0003791920898947865,0.0004947626730427146,-0.34796491265296936,0.5005553364753723,-9.771153450012207
1745732028.7282348,-0.005323238670825958,-0.0003152154677081853,0.0010162551188841462,-0.18074467778205872,0.31994345784187317,-9.786587715148926
1745732028.767442,0.0023707684595137835,0.00043427167111076415,0.0012146966764703393,-0.23547618091106415,0.282234251499176,-9.832219123840332
1745732028.767533,-0.00020173657685518265,-0.0028345189057290554,0.0005244415369816124,-0.27690085768699646,0.5896000862121582,-9.7689790725708
1745732028.767584,0.00996677577495575,0.00190871418453753,-7.623228884767741e-05,-0.2935961186885834,0.3660725951194763,-9.781168937683105
1745732028.7676265,-0.004971208516508341,-0.0030026091262698174,0.0021377350203692913,-0.22293195128440857,0.46959128975868225,-9.729674339294434
1745732028.8002326,0.01115882582962513,0.00035800025216303766,0.0002050615439657122,-0.3330153822898865,0.47689303755760193,-9.805651664733887
1745732028.802087,-0.003298155963420868,-0.0005735839367844164,0.0013247091555967927,-0.17938485741615295,0.3517061769962311,-9.797640800476074
1745732028.8043795,0.0076800063252449036,-0.0017388835549354553,0.001114406855776906,-0.3418191969394684,0.5932945013046265,-9.737070083618164
1745732028.8066876,-0.0014386348193511367,-0.0004402149934321642,0.0017329208785668015,-0.2155093252658844,0.2939325273036957,-9.776811599731445
1745732028.8102486,0.0023700473830103874,-0.0034133195877075195,0.001993729267269373,-0.28693491220474243,0.5925048589706421,-9.753395080566406
1745732028.845402,0.006350931711494923,0.0003104400238953531,0.0011355625465512276,-0.2722563147544861,0.32663169503211975,-9.797868728637695
1745732028.8481793,-0.00395274767652154,-0.0029778676107525826,-0.00015952404646668583,-0.24113266170024872,0.5054886937141418,-9.739852905273438
1745732028.854941,0.009810216724872589,0.00014529369946103543,0.0008853088365867734,-0.3366932272911072,0.4291152060031891,-9.789247512817383
1745732028.8599575,-0.0036243386566638947,-0.0022490709088742733,0.0018053154926747084,-0.20598392188549042,0.4081343710422516,-9.786140441894531
1745732028.8884227,0.011421562172472477,8.298242755699903e-05,0.0008281845366582274,-0.3377295136451721,0.5432019233703613,-9.753923416137695
1745732028.890029,-0.003020852105692029,-0.0017085038125514984,0.0006071817479096353,-0.19875821471214294,0.30432307720184326,-9.767648696899414
1745732028.890497,0.004725340753793716,-0.003133287187665701,0.0019501822534948587,-0.3112473785877228,0.6126978993415833,-9.745885848999023
1745732028.8916636,0.0028078812174499035,0.0017773661529645324,0.0010555803310126066,-0.2544746398925781,0.28836673498153687,-9.816505432128906
1745732028.8948011,-0.001605194411240518,-0.003003911580890417,0.001372840953990817,-0.26750585436820984,0.5777885913848877,-9.760171890258789
1745732028.9337769,0.009126421995460987,0.0006187307881191373,0.0011595108080655336,-0.286243200302124,0.3688933253288269,-9.788475036621094
1745732028.9339716,-0.00474380562081933,-0.0029416836332529783,0.0009878160199150443,-0.2136831283569336,0.4455805718898773,-9.772985458374023
1745732028.9347572,0.010878237895667553,0.0008852662285789847,0.0009533286211080849,-0.3423827290534973,0.5085746049880981,-9.781353950500488
1745732028.9372334,-0.005348118953406811,-0.0021154512651264668,0.0008907610317692161,-0.19967862963676453,0.33126965165138245,-9.788612365722656
1745732028.9721017,0.009135881438851357,-0.0017987785395234823,0.0026044435799121857,-0.3312545418739319,0.5926733613014221,-9.761173248291016
1745732028.9738212,0.004766981117427349,0.0005400555673986673,0.00010742263111751527,-0.28042659163475037,0.3422713875770569,-9.801226615905762
1745732028.9763129,-0.0025362365413457155,-0.0026263855397701263,0.0021349499002099037,-0.22420306503772736,0.5132481455802917,-9.757744789123535
1745732028.9782944,0.009364140219986439,0.0010461410274729133,0.0006083723856136203,-0.33207350969314575,0.43463578820228577,-9.79393196105957
1745732029.0180404,-0.00594189902767539,-0.0017838958883658051,-0.00021973936236463487,-0.18088552355766296,0.3969055414199829,-9.766714096069336
1745732029.0228856,0.008777415379881859,-0.0033657934982329607,0.001483703381381929,-0.33779364824295044,0.5572827458381653,-9.757308959960938
1745732029.0271466,-0.0026823109947144985,0.0005879712989553809,0.0013996611814945936,-0.19964195787906647,0.3009845018386841,-9.807127952575684
1745732029.029502,0.0045716287568211555,-0.0019380742451176047,0.0018837874522432685,-0.3246580958366394,0.6134288311004639,-9.746204376220703
1745732029.0323849,0.003540990175679326,0.00016104368842206895,0.0001298349379794672,-0.24452702701091766,0.26761960983276367,-9.802209854125977
1745732029.0587611,-0.001375719322822988,-0.003521450562402606,0.0011652680113911629,-0.2575700879096985,0.5619559288024902,-9.753496170043945
1745732029.0615437,0.008627206087112427,0.001852487912401557,0.0007471883436664939,-0.3058035671710968,0.39717260003089905,-9.793844223022461
1745732029.0629492,-0.005896223243325949,-0.003492553485557437,0.000537347630597651,-0.19707134366035461,0.4294471740722656,-9.765238761901855
1745732029.0647101,0.01039322279393673,-0.001004904042929411,0.0006653322489000857,-0.34448617696762085,0.5219458937644958,-9.771885871887207
1745732029.1065826,-0.005186265334486961,0.0013956926995888352,0.0011152770603075624,-0.19731347262859344,0.33112210035324097,-9.779703140258789
1745732029.1096632,0.004774986766278744,-0.0028505236841738224,0.001319810515269637,-0.32737064361572266,0.6035953760147095,-9.744318008422852
1745732029.1112251,0.0038546216674149036,0.0027127808425575495,0.0016073795268312097,-0.2342231571674347,0.2938523292541504,-9.817476272583008
1745732029.1141286,-0.0014850186416879296,-0.002245658077299595,0.0008664607303217053,-0.267852246761322,0.5862394571304321,-9.743467330932617
1745732029.143734,0.007459521293640137,0.0018469836795702577,-0.0012528441147878766,-0.29890358448028564,0.3623051345348358,-9.781206130981445
1745732029.1463678,-0.005780080799013376,-0.002812481252476573,0.0008713199058547616,-0.21597251296043396,0.4760412275791168,-9.765464782714844
1745732029.1499119,0.009791822172701359,0.0009666659752838314,0.002231549471616745,-0.3393312990665436,0.49379339814186096,-9.776784896850586
1745732029.149947,-0.005041039083153009,-0.0010843605268746614,0.0015733996406197548,-0.19525134563446045,0.3276638686656952,-9.786152839660645
1745732029.1515355,0.010091917589306831,-0.002556669060140848,-0.001065900782123208,-0.33276790380477905,0.5898932814598083,-9.745721817016602
1745732029.1909165,-0.0015907607739791274,-0.00035564182326197624,0.001689500524662435,-0.20543217658996582,0.2830076515674591,-9.808601379394531
1745732029.191325,0.0004871101991739124,-0.0011565799359232187,0.0010657543316483498,-0.3014986515045166,0.5773131847381592,-9.762121200561523
1745732029.1932673,0.005541530903428793,0.0017369476845487952,0.0009686512057669461,-0.28675296902656555,0.333633154630661,-9.815442085266113
1745732029.1958344,-0.003957911394536495,-0.0030866432934999466,-0.0007340626907534897,-0.20581480860710144,0.5108400583267212,-9.766698837280273
1745732029.2329023,0.009915830567479134,0.0015246833208948374,0.0021683501545339823,-0.31736141443252563,0.424619197845459,-9.773396492004395
1745732029.235063,-0.005619871895760298,-0.00160035933367908,0.0005153754027560353,-0.18972106277942657,0.40660595893859863,-9.762659072875977
1745732029.2372158,0.008914103731513023,-0.0007160095265135169,0.0009534120326861739,-0.33716881275177,0.5542346835136414,-9.783798217773438
1745732029.2405655,-0.0025560304056853056,-0.0005867623258382082,-0.0004737558192573488,-0.20165197551250458,0.30011186003685,-9.814711570739746
1745732029.243242,0.004664947744458914,-0.0018986037466675043,0.0017291378462687135,-0.30954188108444214,0.6040159463882446,-9.739139556884766
1745732029.276166,0.00260634021833539,0.0010220438707619905,0.0005839202785864472,-0.23480956256389618,0.30659371614456177,-9.80202865600586
1745732029.2777827,-0.000889134593307972,-0.000776844855863601,0.0014429340371862054,-0.27048152685165405,0.576023519039154,-9.74344253540039
1745732029.2788968,0.00825873389840126,-0.0002656055148690939,0.0004475270980037749,-0.2966884970664978,0.3671095669269562,-9.782564163208008
1745732029.2833476,-0.003945893608033657,-0.0016831370303407311,-0.0007833734271116555,-0.19789603352546692,0.4344974458217621,-9.771012306213379
1745732029.3176885,0.009114949032664299,0.0013056885218247771,0.0010092633310705423,-0.3436046242713928,0.5096389651298523,-9.780878067016602
1745732029.3272476,-0.0031769112683832645,-0.0017584525048732758,0.001306538237258792,-0.18258365988731384,0.3470967710018158,-9.784151077270508
1745732029.3273826,0.0064132846891880035,0.0014814971946179867,0.00020273825793992728,-0.2832892835140228,0.3657965064048767,-9.81988525390625
1745732029.3297484,-0.0037582863587886095,-0.0032144796568900347,0.00024146591022145003,-0.22575631737709045,0.5141583681106567,-9.743795394897461
1745732029.3598948,0.009003449231386185,0.0006269318400882185,0.00043251566239632666,-0.33543312549591064,0.46077173948287964,-9.798636436462402
1745732029.3634593,-0.003485164837911725,0.0011976504465565085,0.000527848897036165,-0.18857750296592712,0.39828452467918396,-9.764416694641113
1745732029.368022,0.007279343903064728,-0.000810974626801908,0.001712936908006668,-0.33037418127059937,0.561439573764801,-9.741375923156738
1745732029.3699653,-0.001297315931878984,-3.816759999608621e-05,0.0009729390731081367,-0.21105487644672394,0.30895352363586426,-9.820104598999023
1745732029.3726926,0.0026733586564660072,-0.0029832879081368446,0.000612779229413718,-0.31153830885887146,0.6050456166267395,-9.756872177124023
1745732029.4064898,0.0046921405009925365,0.0029108431190252304,0.0010912374127656221,-0.24553975462913513,0.2951123118400574,-9.792135238647461
1745732029.407512,-0.001792742172256112,-0.0043683238327503204,0.002577173989266157,-0.2607157826423645,0.5613067746162415,-9.757831573486328
1745732029.4091163,0.011132197454571724,0.0008132450166158378,-0.00011526704474817961,-0.3234398663043976,0.41120225191116333,-9.799832344055176
1745732029.4111757,-0.005881758872419596,-0.0018725686240941286,0.0024264820385724306,-0.20134902000427246,0.444528192281723,-9.743585586547852
1745732029.4478085,0.011778658255934715,-0.0005646171048283577,-5.38610402145423e-05,-0.34094423055648804,0.529227614402771,-9.758184432983398
1745732029.449417,-0.005771199241280556,0.0006973486160859466,0.0007356036803685129,-0.19259591400623322,0.3160008490085602,-9.792560577392578
1745732029.451551,0.0057984283193945885,-0.003518311306834221,0.0010840819450095296,-0.31161338090896606,0.612274169921875,-9.766965866088867
1745732029.4538474,0.002673979150131345,0.0006807711906731129,0.0019478446338325739,-0.2559988498687744,0.2883988320827484,-9.820886611938477
1745732029.4901295,-0.0002979103592224419,-0.002628687769174576,0.0004423266800586134,-0.2604806125164032,0.5462294816970825,-9.727058410644531
1745732029.4939222,0.007615319453179836,0.0011263927444815636,0.0007374952547252178,-0.30337586998939514,0.38086575269699097,-9.779643058776855
1745732029.498918,-0.0059286439791321754,-0.0028475853614509106,0.0010572921019047499,-0.2049943208694458,0.45417118072509766,-9.779104232788086
1745732029.5001042,0.010426345281302929,0.0004252603685017675,0.0006710003945045173,-0.34698158502578735,0.49909982085227966,-9.79008960723877
1745732029.502709,-0.002634833799675107,0.0006928467191755772,0.0022158329375088215,-0.1837591528892517,0.34189921617507935,-9.765752792358398
1745732029.533435,0.006223734468221664,-0.0029446519911289215,-0.0008749851840548217,-0.3379988670349121,0.5830554962158203,-9.742639541625977
1745732029.5346024,0.00041154734208248556,-0.0005024098791182041,9.742798283696175e-05,-0.2007320672273636,0.28534477949142456,-9.815523147583008
1745732029.5375006,0.0021909852512180805,-0.0014505804283544421,0.002193569904193282,-0.2913212180137634,0.5952999591827393,-9.763571739196777
1745732029.539928,0.005652385763823986,0.0009388498147018254,0.0020438700448721647,-0.28807133436203003,0.3221975564956665,-9.796308517456055
1745732029.5769916,-0.003449993673712015,-0.0029167295433580875,-0.00024445587769150734,-0.2163325995206833,0.5090639591217041,-9.744730949401855
1745732029.5809312,0.009207628667354584,-0.0012100248131901026,0.0007773820543661714,-0.3337186872959137,0.44523200392723083,-9.796412467956543
1745732029.5917804,-0.004409214947372675,-0.0006179270567372441,-0.00030184249044395983,-0.19571158289909363,0.37989747524261475,-9.777994155883789
1745732029.5918462,0.009212858974933624,-0.0011025314452126622,0.00046881457092240453,-0.35213056206703186,0.5676201581954956,-9.746892929077148
1745732029.6190805,-0.0026241191662847996,0.0002756309986580163,0.0018187894020229578,-0.20546230673789978,0.29570895433425903,-9.800424575805664
1745732029.6217847,0.004782084375619888,-0.0020276426803320646,0.0013836458092555404,-0.308505654335022,0.5961105823516846,-9.77370834350586
