timestamp,angular_vel_x,angular_vel_y,angular_vel_z,linear_acc_x,linear_acc_y,linear_acc_z
1745737782.7783375,-0.12701240181922913,-0.03154531121253967,0.08291338384151459,0.2634841799736023,-1.2173608541488647,-8.729498863220215
1745737782.7850764,0.057126082479953766,0.024381820112466812,0.08139413595199585,0.3035777509212494,-1.0474393367767334,-9.363845825195312
1745737782.7851613,0.016069546341896057,0.019449276849627495,0.08281603455543518,0.5607452392578125,-1.4582172632217407,-9.770190238952637
1745737782.7862349,-0.028271067887544632,0.01810130849480629,0.0790538340806961,0.37755969166755676,-1.0017590522766113,-10.458909034729004
1745737782.8330133,-0.02540239691734314,0.032897088676691055,0.07746495306491852,0.29226893186569214,-0.9576668739318848,-10.148594856262207
1745737782.8330867,-0.06608034670352936,0.018474658951163292,0.0727800577878952,0.062046218663454056,-0.5748640298843384,-9.651728630065918
1745737782.8337147,-0.024794602766633034,0.0110078826546669,0.07104618847370148,-0.0662410631775856,-0.34553903341293335,-10.004728317260742
1745737782.836981,-0.046345304697752,0.022083502262830734,0.06902420520782471,-0.0016973946476355195,-0.591214120388031,-10.553988456726074
1745737782.86015,-0.00044071744196116924,0.030667250975966454,0.06897197663784027,-0.23872478306293488,-0.5806578397750854,-9.888387680053711
1745737782.8627388,-0.016320975497364998,0.031115297228097916,0.07676088064908981,0.13171948492527008,-1.0008735656738281,-9.167706489562988
1745737782.8649416,-0.014151157811284065,0.031583499163389206,0.08755022287368774,0.15274573862552643,-1.158540964126587,-9.862711906433105
1745737782.8660724,-0.02012033201754093,0.047882623970508575,0.09844271838665009,0.4268677830696106,-1.3299429416656494,-10.415614128112793
1745737782.8679895,-0.06004973128437996,0.046423301100730896,0.10031845420598984,0.6184988617897034,-1.0753905773162842,-9.965792655944824
1745737782.905257,-0.05554341524839401,0.03794300928711891,0.09572802484035492,0.2613431215286255,-0.7273516058921814,-9.788212776184082
1745737782.9084327,-0.07609842717647552,0.0288377795368433,0.08747269958257675,0.3140316307544708,-0.25937607884407043,-10.1364107131958
1745737782.9112742,-0.03093653917312622,0.037387169897556305,0.08246936649084091,-0.12336951494216919,0.1273173987865448,-10.548826217651367
1745737782.9170957,-0.0410371869802475,0.11678139120340347,0.12898528575897217,-0.32994869351387024,-0.7320181131362915,-8.622520446777344
1745737782.9518902,-0.07858378440141678,0.11072604358196259,0.133665531873703,0.23531636595726013,-0.7143541574478149,-8.874613761901855
1745737782.952132,-0.06372110545635223,0.1071120947599411,0.13274672627449036,0.6760669946670532,-0.48140525817871094,-10.841182708740234
1745737782.952189,-0.060888491570949554,0.10914023965597153,0.11918230354785919,0.7072995901107788,-0.21065783500671387,-11.17738151550293
1745737782.9544637,-0.05999884009361267,0.11193303018808365,0.11468373239040375,0.4263489842414856,-0.4895961284637451,-9.29199504852295
1745737782.9557745,-0.07323940098285675,0.10396049916744232,0.11927974224090576,0.6649044752120972,-1.2328205108642578,-8.303814888000488
1745737782.9952102,-0.09337865561246872,0.08626414090394974,0.128540500998497,0.79738450050354,-0.7889469861984253,-9.68224811553955
1745737782.9965777,-0.06915821135044098,0.07306282967329025,0.13203828036785126,0.5908513069152832,-0.29990726709365845,-11.411847114562988
1745737782.9993162,-0.025571435689926147,0.0738416463136673,0.13009938597679138,0.3224749267101288,0.45392942428588867,-10.645309448242188
1745737783.0046008,0.05594680458307266,0.07191606611013412,0.1199255958199501,-0.2673831284046173,1.0654007196426392,-9.025647163391113
1745737783.0364137,0.08819939941167831,0.07810471206903458,0.10873083770275116,-0.23481090366840363,0.044352345168590546,-8.592796325683594
1745737783.0381138,0.12225042283535004,0.0888880044221878,0.10855889320373535,0.027305912226438522,0.031072895973920822,-9.14781379699707
1745737783.038518,0.09890684485435486,0.08180320262908936,0.1142268180847168,0.878983199596405,-1.1149780750274658,-10.20875358581543
1745737783.0398874,0.13587024807929993,0.08020733296871185,0.11937703937292099,0.605170726776123,-1.060840368270874,-10.287707328796387
1745737783.075726,0.052764516323804855,0.0839763656258583,0.12201113998889923,0.5008593201637268,-1.8173891305923462,-9.873030662536621
1745737783.079513,0.031202802434563637,0.06771720945835114,0.12069177627563477,0.7629953622817993,-1.3742976188659668,-9.287382125854492
1745737783.086432,-0.012122010812163353,0.0797749012708664,0.11619380861520767,0.3021869659423828,-1.1428366899490356,-9.613119125366211
1745737783.0869613,-0.03775404766201973,0.07396270334720612,0.11481530964374542,0.13248297572135925,-1.3769375085830688,-9.719953536987305
1745737783.0893326,-0.0645207017660141,0.08018707484006882,0.11588220298290253,-0.07972992956638336,-1.0175857543945312,-9.251082420349121
1745737783.1193163,-0.08891038596630096,0.07978922128677368,0.11426325142383575,-0.09497630596160889,-1.390383005142212,-9.36616039276123
1745737783.1214015,-0.09272986650466919,0.0769817978143692,0.11504050344228745,-0.09944163262844086,-0.7015784382820129,-9.750571250915527
1745737783.1230013,-0.09061740338802338,0.05953478813171387,0.10120661556720734,0.29065248370170593,-0.3312537968158722,-10.121415138244629
1745737783.125063,-0.0678723007440567,0.07028411328792572,0.10243301093578339,0.35726800560951233,-0.7615761756896973,-9.587224006652832
1745737783.1686997,-0.08675571531057358,0.05466365069150925,0.11186762899160385,0.4809805750846863,-0.8780312538146973,-9.193039894104004
1745737783.170887,-0.061744749546051025,0.05130909010767937,0.11834051460027695,0.579177737236023,-0.6511973142623901,-9.734644889831543
1745737783.3917298,-0.0676255151629448,0.03510083258152008,0.1163514032959938,0.8408626317977905,-0.2521962523460388,-10.578630447387695
1745737783.4078755,-0.01301155798137188,0.019278181716799736,0.11003273725509644,0.26566892862319946,0.37133508920669556,-10.460195541381836
1745737783.4355977,0.00931531097739935,0.033042024821043015,0.09910660982131958,0.04177887737751007,-0.09044072777032852,-9.487970352172852
1745737783.4490035,0.014846381731331348,0.02822396159172058,0.09202388674020767,-0.2192060649394989,-0.14865460991859436,-8.805721282958984
1745737783.4973207,0.023267222568392754,0.0328093022108078,0.09505029022693634,0.22780552506446838,-0.9131304025650024,-9.15980339050293
1745737783.5128047,-0.015075054951012135,0.028331834822893143,0.09954562038183212,0.7263113260269165,-1.0414565801620483,-10.050440788269043
1745737783.520308,-0.00402864208444953,0.028268400579690933,0.10427775233983994,0.7287610769271851,-1.056499719619751,-10.485754013061523
1745737783.58192,-0.05396348983049393,0.019764935597777367,0.10250922292470932,0.8656812906265259,-1.0756385326385498,-9.824339866638184
1745737783.5827773,-0.047542035579681396,0.015540887601673603,0.10430578887462616,0.5142766237258911,-0.8546778559684753,-9.413986206054688
1745737783.5828533,-0.07571049779653549,0.014376923441886902,0.10454563051462173,0.5351646542549133,-0.869246780872345,-9.665189743041992
1745737783.5895689,-0.07123202830553055,0.012159749865531921,0.10282649099826813,0.09774885326623917,-0.6651298403739929,-9.841310501098633
1745737783.6402953,-0.09139949083328247,-0.021655019372701645,0.09784619510173798,0.1543509066104889,-0.01443870086222887,-9.612558364868164
1745737783.65388,-0.11133944988250732,-0.018728720024228096,0.09796687215566635,0.40497836470603943,-0.8306382894515991,-9.385684967041016
1745737783.6544135,-0.10893654823303223,-0.033179111778736115,0.10215487331151962,0.7162232995033264,-0.4896157383918762,-9.707317352294922
1745737783.6651382,-0.1266339272260666,-0.02555103227496147,0.10354737937450409,0.6707490086555481,-0.9159008860588074,-10.624177932739258
1745737783.6875293,-0.13452282547950745,-0.03221668303012848,0.10723461955785751,0.5532371997833252,-0.7720093131065369,-10.230751991271973
1745737783.696345,-0.14324375987052917,-0.029580676928162575,0.10805884748697281,0.24790692329406738,-0.5866807103157043,-9.287049293518066
1745737783.7000494,-0.16519851982593536,-0.037192218005657196,0.10918668657541275,0.3096213936805725,-0.7695876955986023,-9.408577919006348
1745737783.7043273,-0.15171149373054504,-0.035517361015081406,0.1093021035194397,0.06257446110248566,-0.14987632632255554,-10.058515548706055
1745737783.7088127,-0.16490091383457184,-0.02896379865705967,0.10422122478485107,0.23076505959033966,-0.44054096937179565,-10.20576286315918
1745737783.7112887,-0.13895022869110107,-0.032732266932725906,0.1014602929353714,0.12698550522327423,0.056183110922575,-9.484673500061035
1745737783.7154014,-0.14659708738327026,-0.026774976402521133,0.09876269102096558,0.18967778980731964,-0.4957554340362549,-9.620773315429688
1745737783.7201138,-0.14551731944084167,-0.03260684758424759,0.09935952723026276,0.4957388937473297,-0.4573132395744324,-9.898538589477539
1745737783.7223487,-0.1377265453338623,-0.020860064774751663,0.10650034248828888,0.5040540099143982,-0.5334188342094421,-9.912002563476562
1745737783.7260432,-0.15745697915554047,-0.030534174293279648,0.1112573891878128,0.6117925643920898,-0.6285804510116577,-9.75512409210205
1745737783.7296596,-0.14367565512657166,-0.032752566039562225,0.11031340062618256,0.3464295268058777,-0.27173343300819397,-9.843149185180664
1745737783.732584,-0.16155686974525452,-0.024313507601618767,0.11014308035373688,0.4013565182685852,-0.4291989803314209,-9.979958534240723
1745737783.7375379,-0.14795802533626556,-0.03239808231592178,0.10314985364675522,0.21623241901397705,0.07540051639080048,-9.748745918273926
1745737783.7499492,-0.15079602599143982,-0.029631424695253372,0.1000003069639206,0.25053516030311584,-0.24282339215278625,-9.806401252746582
1745737783.750047,-0.14385592937469482,-0.03581036999821663,0.09611319750547409,0.1787920743227005,-0.12889303267002106,-9.840700149536133
1745737783.750104,-0.14094051718711853,-0.02351101115345955,0.09746260941028595,0.1992473602294922,-0.4989852011203766,-9.87148666381836
1745737783.750175,-0.15317942202091217,-0.03686376288533211,0.10102345049381256,0.46021533012390137,-0.5537921786308289,-9.706850051879883
1745737783.7502217,-0.13941919803619385,-0.032086748629808426,0.1052815318107605,0.34983929991722107,-0.511385440826416,-9.87803840637207
1745737783.750553,-0.19524811208248138,-0.030395234003663063,0.0996062159538269,0.28503280878067017,-0.10321059077978134,-9.637838363647461
1745737783.7543235,-0.18297939002513885,-0.0261047575622797,0.0989551767706871,0.2172330915927887,-0.17319580912590027,-9.672115325927734
1745737783.7555115,-0.19388604164123535,-0.027557631954550743,0.10065140575170517,0.48114433884620667,-0.2610585689544678,-9.897211074829102
1745737783.7579694,-0.16761796176433563,-0.022548403590917587,0.10215798765420914,0.2784055173397064,-0.041440449655056,-9.912200927734375
1745737783.7600589,-0.17430411279201508,-0.02057190053164959,0.10581086575984955,0.41948166489601135,-0.3539486527442932,-9.719006538391113
1745737783.761889,-0.15502503514289856,-0.025708001106977463,0.10621795803308487,0.2790839970111847,0.06497824937105179,-9.640524864196777
1745737783.7644124,-0.1457761973142624,-0.019895220175385475,0.10603220760822296,0.24305441975593567,-0.216962531208992,-9.943048477172852
1745737783.7709942,-0.152016282081604,-0.02443355694413185,0.10560978949069977,0.24826081097126007,0.0187761839479208,-9.885416984558105
1745737783.7754312,-0.13944189250469208,-0.01872040331363678,0.10270760953426361,0.16610926389694214,-0.14901772141456604,-9.695526123046875
1745737783.7754807,-0.16207978129386902,-0.02512967959046364,0.09776926040649414,0.36236515641212463,-0.2876913547515869,-9.692103385925293
1745737783.775546,-0.15958841145038605,-0.022839194163680077,0.09808243066072464,0.2504674792289734,-0.27844229340553284,-9.949995040893555
1745737783.7756112,-0.18251349031925201,-0.020594347268342972,0.09742510318756104,0.533946692943573,-0.588802695274353,-9.938752174377441
1745737783.7766662,-0.18569177389144897,-0.02540159597992897,0.10070786625146866,0.350250780582428,-0.24240398406982422,-9.669384956359863
1745737783.7785838,-0.1938432902097702,-0.023880144581198692,0.10304269939661026,0.3828307092189789,-0.4963933527469635,-9.765233039855957
1745737783.7821324,-0.12398159503936768,-0.0028010013047605753,0.09174476563930511,0.36306485533714294,0.09374068677425385,-9.716504096984863
1745737783.7831717,-0.1114988699555397,-0.00134205911308527,0.09172797948122025,0.2526339888572693,0.15038587152957916,-9.79975700378418
1745737783.7853186,-0.12325414270162582,-0.00085522944573313,0.09194149076938629,0.45593586564064026,0.03975669667124748,-9.804025650024414
1745737783.787756,-0.10372772067785263,-0.0024190167896449566,0.09295208752155304,0.2368980348110199,0.3105079233646393,-9.756963729858398
1745737783.7889993,-0.10507019609212875,0.0008646567584946752,0.09486555308103561,0.3484291434288025,0.10090043395757675,-9.792878150939941
1745737783.7910497,-0.09091594070196152,-0.005861486773937941,0.09467975795269012,0.23350279033184052,0.4764479696750641,-9.71647834777832
1745737783.792201,-0.07850666344165802,0.003042289987206459,0.0945592075586319,0.21095171570777893,0.21009144186973572,-9.7783203125
1745737783.7944884,-0.08406253159046173,-0.005060987081378698,0.09145717322826385,0.27654170989990234,0.3465835452079773,-9.693265914916992
1745737783.795667,-0.06815643608570099,0.0027113216929137707,0.08975045382976532,0.16150471568107605,0.22122149169445038,-9.72591781616211
1745737783.7981858,-0.08069072663784027,0.0006823268486186862,0.0894765555858612,0.3774985373020172,0.09778574854135513,-9.690755844116211
1745737783.7993844,-0.0706016942858696,0.0022258199751377106,0.08836926519870758,0.24950718879699707,0.2310638725757599,-9.74827766418457
1745737783.8015664,-0.08373632282018661,0.004941241815686226,0.08930458128452301,0.41487589478492737,-0.056662190705537796,-9.792121887207031
1745737783.8028488,-0.07892361283302307,0.003117481479421258,0.08906275033950806,0.27601122856140137,0.2781672477722168,-9.708365440368652
1745737783.8063252,-0.07635515928268433,0.009398501366376877,0.0893736183643341,0.29480496048927307,0.06896376609802246,-9.723688125610352
1745737783.8064008,-0.07856129109859467,0.00440251687541604,0.09056462347507477,0.2818896770477295,0.3251131772994995,-9.70020580291748
1745737783.8074987,-0.05750848725438118,0.01041109673678875,0.08733333647251129,0.14499296247959137,0.28277498483657837,-9.772470474243164
1745737783.808926,-0.07723332941532135,0.008023480884730816,0.08331175148487091,0.2806648313999176,0.2831483483314514,-9.843454360961914
1745737783.810392,-0.041127048432826996,0.01025607530027628,0.08076733350753784,0.4582696855068207,0.4942859709262848,-9.598114013671875
1745737783.8176765,-0.06988497823476791,-0.0022829677909612656,0.08371127396821976,0.6074606776237488,0.19195112586021423,-9.948506355285645
1745737783.817722,0.019865021109580994,0.03455783799290657,0.08540472388267517,-0.20298795402050018,0.619724452495575,-9.944355964660645
1745737783.8180227,-0.032982293516397476,-0.010271472856402397,0.0876101404428482,0.6376699209213257,0.11196007579565048,-9.137346267700195
1745737783.8517506,-0.00757169583812356,0.011138719506561756,0.09052516520023346,0.376887708902359,-0.18171247839927673,-10.011384963989258
1745737783.8529656,-0.03222159296274185,-0.0006409875932149589,0.08601497113704681,-0.45513710379600525,0.2710914611816406,-10.481874465942383
1745737783.8563464,-0.01823858544230461,0.021104473620653152,0.07435550540685654,1.0702863931655884,0.677325427532196,-10.534420013427734
1745737783.856648,-0.07671625912189484,-0.007535263895988464,0.07649662345647812,0.07730089873075485,0.09845833480358124,-10.12964153289795
1745737783.8941891,-0.004120606929063797,0.01486604381352663,0.08702866733074188,0.5938148498535156,0.10191655158996582,-8.752372741699219
1745737783.8966668,-0.032699789851903915,0.0066405534744262695,0.09038398414850235,0.18642741441726685,0.5888330340385437,-9.38940143585205
1745737783.8988369,0.023590639233589172,0.008306240662932396,0.08590646088123322,0.489856481552124,0.4754614233970642,-10.455687522888184
1745737783.8998759,0.05558709055185318,0.028477918356657028,0.08056483417749405,0.41831693053245544,1.5273504257202148,-9.710774421691895
1745737783.9089441,0.042050883173942566,0.01147145964205265,0.0665367990732193,0.42629575729370117,0.38172170519828796,-9.501615524291992
1745737783.9397852,0.1276501566171646,0.020189592614769936,0.05736514925956726,0.49845343828201294,0.7744699716567993,-9.371788024902344
1745737783.942309,0.0013997420901432633,0.024881532415747643,0.05271948501467705,0.5737542510032654,-0.525894284248352,-10.272313117980957
1745737783.9441144,0.08440663665533066,0.03043210878968239,0.05326183885335922,0.738322913646698,-0.4058782458305359,-9.907739639282227
1745737783.9459934,0.0028453052509576082,0.03241217881441116,0.058197230100631714,0.5615221858024597,-0.09002465009689331,-9.263628959655762
1745737783.983825,-0.0053724972531199455,0.023872777819633484,0.059661615639925,0.6966221928596497,-0.49104905128479004,-9.687217712402344
1745737783.9839165,0.02947916090488434,0.03265497088432312,0.06181567162275314,0.545378565788269,0.580683171749115,-10.043489456176758
1745737783.9881072,0.24984344840049744,0.08019043505191803,-0.10966920852661133,0.9207293391227722,-0.1158045083284378,-9.753735542297363
1745737783.9914951,0.2319793701171875,0.10062424838542938,-0.11584997177124023,1.0424774885177612,-0.4813266396522522,-10.066720962524414
1745737784.022414,0.218492791056633,0.08591203391551971,-0.11733295023441315,0.9470230937004089,-0.0779692679643631,-9.591804504394531
1745737784.0269637,0.22935280203819275,0.08565372973680496,-0.12218596041202545,0.9124615788459778,-0.14523759484291077,-9.461076736450195
1745737784.0287592,0.21442505717277527,0.09080719202756882,-0.1270104944705963,0.75540691614151,0.09627356380224228,-9.913675308227539
1745737784.0303416,0.2537838816642761,0.0958595722913742,-0.13302259147167206,0.6674659252166748,0.03599689155817032,-9.996099472045898
1745737784.0323756,0.24234290421009064,0.08486808836460114,-0.13751710951328278,0.8927399516105652,0.17357508838176727,-9.461280822753906
1745737784.0674958,0.26266157627105713,0.09092368930578232,-0.14197345077991486,0.737417995929718,0.031771279871463776,-9.590194702148438
1745737784.0712276,0.2738991379737854,0.09105689823627472,-0.1481975018978119,0.9150220155715942,0.0644267350435257,-9.868335723876953
1745737784.0773787,0.2560245990753174,0.08537722378969193,-0.15336869657039642,1.1100692749023438,-0.018412474542856216,-9.98782730102539
1745737784.0774398,0.2843592166900635,0.08449359238147736,-0.15789353847503662,1.1445828676223755,-0.2181299924850464,-9.847776412963867
1745737784.1095023,0.2548045217990875,0.06902863830327988,-0.16224846243858337,1.1295337677001953,-0.13828310370445251,-9.736552238464355
1745737784.1113904,0.2676524519920349,0.07585880160331726,-0.16270066797733307,0.9706192016601562,-0.4329765737056732,-9.894169807434082
1745737784.114228,0.23704592883586884,0.0667606070637703,-0.17018109560012817,1.0522006750106812,-0.2080063372850418,-9.686525344848633
1745737784.1167839,0.25888222455978394,0.06328575313091278,-0.17342007160186768,0.8365257382392883,-0.1411992311477661,-9.624587059020996
1745737784.1535,0.2398023158311844,0.0707339495420456,-0.1798807978630066,0.940593421459198,-0.027345765382051468,-9.742932319641113
1745737784.154767,0.26625290513038635,0.05999237298965454,-0.1853092610836029,0.8390408754348755,-0.06469856202602386,-9.85303783416748
1745737784.1579108,0.2789214551448822,0.06141459196805954,-0.19168934226036072,0.8968561291694641,-0.11960317939519882,-9.67288589477539
1745737784.1638532,0.25872892141342163,0.05926119163632393,-0.19416522979736328,0.9215368032455444,-0.3815847635269165,-9.690958023071289
1745737784.163972,0.2936946749687195,0.0653267651796341,-0.19667302072048187,0.7973859310150146,-0.3266731798648834,-9.659716606140137
1745737784.1963096,0.2435530722141266,0.058251213282346725,-0.1961100995540619,1.1231037378311157,-0.6132339239120483,-9.581550598144531
1745737784.1994898,0.26627957820892334,0.05979868024587631,-0.20105378329753876,0.9773247838020325,-0.39552292227745056,-9.733695983886719
1745737784.20326,0.21425668895244598,0.035336922854185104,-0.2242928445339203,1.0943946838378906,-0.518499493598938,-9.956537246704102
1745737784.208292,0.2641581892967224,0.029757371172308922,-0.227589413523674,0.8741346597671509,-0.050248511135578156,-9.679174423217773
1745737784.2418702,0.2297646552324295,0.027105331420898438,-0.23186922073364258,1.1049362421035767,-0.4939638078212738,-9.727434158325195
1745737784.2419422,0.2741625905036926,0.016979794949293137,-0.23419900238513947,0.9597404599189758,-0.16861672699451447,-9.854378700256348
1745737784.2443106,0.24751968681812286,0.019065838307142258,-0.23699632287025452,1.0678235292434692,-0.6404234170913696,-9.908599853515625
1745737784.2459137,0.2471226155757904,0.011551654897630215,-0.2392793446779251,1.0060087442398071,-0.525015652179718,-9.606802940368652
1745737784.2852502,0.2371179610490799,0.006741516292095184,-0.24355943500995636,0.9590024948120117,-0.7344149947166443,-9.635174751281738
1745737784.2895458,0.20931439101696014,0.0010544161777943373,-0.24553537368774414,1.1548165082931519,-0.7742865085601807,-9.827692031860352
1745737784.2918422,0.21404647827148438,0.0022949136327952147,-0.2501235902309418,0.9355538487434387,-0.4600179195404053,-9.858214378356934
1745737784.2928653,0.1805766522884369,-0.006681317929178476,-0.25532421469688416,1.0839779376983643,-0.8964191675186157,-9.755663871765137
1745737784.294565,0.20602266490459442,-0.0056608752347528934,-0.25709739327430725,0.8507174253463745,-0.33586978912353516,-9.508371353149414
1745737784.3264863,0.17138764262199402,-0.0076054902747273445,-0.2599780559539795,1.0420610904693604,-0.714140772819519,-9.703812599182129
1745737784.328936,0.20207135379314423,-0.008280504494905472,-0.2621319591999054,0.9271952509880066,-0.38500306010246277,-9.766402244567871
1745737784.3303726,0.1991545855998993,-0.00908217765390873,-0.26267021894454956,0.8665997385978699,-0.4751497805118561,-9.696307182312012
1745737784.3421361,0.1222085952758789,-0.0828227698802948,-0.31798598170280457,0.8453008532524109,-0.8587681651115417,-9.75444507598877
1745737784.3694873,0.11075981706380844,-0.07805018126964569,-0.3200882375240326,0.6871340870857239,-0.7520396709442139,-9.582807540893555
1745737784.3730955,0.11549405753612518,-0.07899607717990875,-0.320389986038208,0.8476058840751648,-1.0620194673538208,-9.717881202697754
1745737784.3747506,0.12310811132192612,-0.08455988764762878,-0.3182829022407532,0.6614349484443665,-0.5488783121109009,-9.710378646850586
1745737784.376687,0.11779744923114777,-0.07478009909391403,-0.3199652135372162,0.8058245778083801,-1.0410491228103638,-9.810858726501465
1745737784.41031,0.1221943348646164,-0.08085904270410538,-0.3213847875595093,0.729130208492279,-0.6540521383285522,-9.5961332321167
1745737784.4130683,0.12073115259408951,-0.07602902501821518,-0.323193222284317,0.774280846118927,-1.0687236785888672,-9.658829689025879
1745737784.4142807,0.10901542007923126,-0.07953360676765442,-0.3254680335521698,0.8232590556144714,-0.8286272883415222,-9.756817817687988
1745737784.418257,0.1038360446691513,-0.07697572559118271,-0.3262484073638916,0.6590868234634399,-1.07216477394104,-9.893301010131836
1745737784.4550261,0.10646365582942963,-0.07376338541507721,-0.324188768863678,0.8109017610549927,-1.040891170501709,-9.638020515441895
1745737784.455086,0.08821340650320053,-0.07660451531410217,-0.32606786489486694,0.6553124189376831,-0.7489972710609436,-9.583950996398926
1745737784.458164,0.09769181907176971,-0.07401503622531891,-0.32614535093307495,0.8501999974250793,-1.1556994915008545,-9.792558670043945
1745737784.4608257,0.09274367243051529,-0.07580749690532684,-0.3290668725967407,0.6776983737945557,-0.5796070098876953,-9.832108497619629
1745737784.4626312,0.09848468005657196,-0.07124537229537964,-0.3280099630355835,0.7621164917945862,-1.1570173501968384,-9.92186164855957
1745737784.500812,0.09468430280685425,-0.07894568890333176,-0.327791303396225,0.7429658770561218,-0.7427732348442078,-9.596800804138184
1745737784.5030522,0.10010983794927597,-0.0752202495932579,-0.32759329676628113,0.606844961643219,-1.0316963195800781,-9.781355857849121
1745737784.5069377,0.08238895237445831,-0.07649154216051102,-0.3272489309310913,0.7909247279167175,-1.013230562210083,-9.80105209350586
1745737784.509692,0.09070883691310883,-0.07645605504512787,-0.33027976751327515,0.6417988538742065,-0.9324485659599304,-9.704399108886719
1745737784.5411794,0.08695971220731735,-0.07176759093999863,-0.3280866742134094,0.8706762194633484,-1.1329749822616577,-9.63374137878418
1745737784.5442858,0.06608593463897705,-0.07911504805088043,-0.33046334981918335,0.6880064606666565,-0.7646615505218506,-9.770423889160156
1745737784.5464487,0.08083117008209229,-0.07127790153026581,-0.3311130404472351,0.7595831751823425,-1.2612584829330444,-9.93642520904541
1745737784.5515554,0.07079104334115982,-0.059864409267902374,-0.3350699543952942,0.6836670637130737,-1.2181559801101685,-9.843951225280762
1745737784.5869899,0.0533292293548584,-0.0698830634355545,-0.3345455527305603,0.6996136903762817,-0.8833447694778442,-9.767382621765137
1745737784.589183,0.06576772779226303,-0.060574304312467575,-0.3355451226234436,0.6047977209091187,-1.3686007261276245,-9.822497367858887
1745737784.5902927,0.04442845284938812,-0.05941518396139145,-0.33366793394088745,0.6766867637634277,-0.9639624357223511,-9.546201705932617
1745737784.592065,0.038313452154397964,-0.057844363152980804,-0.33453845977783203,0.6032941937446594,-1.1187933683395386,-9.680364608764648
1745737784.625003,0.04858341068029404,-0.05906045436859131,-0.33639299869537354,0.7580019235610962,-0.9566295742988586,-9.804963111877441
1745737784.6350443,0.0403108075261116,-0.05748115852475166,-0.3394552767276764,0.5344021320343018,-0.7358616590499878,-9.911663055419922
1745737784.6352527,0.04971131682395935,-0.0529635027050972,-0.33970290422439575,0.6636927723884583,-1.1374642848968506,-9.815516471862793
1745737784.6353018,0.04284322261810303,-0.05913964658975601,-0.3387221395969391,0.5671818256378174,-0.8105700612068176,-9.503459930419922
1745737784.636864,0.04667281359434128,-0.051134832203388214,-0.3398989140987396,0.6449615359306335,-1.2190254926681519,-9.736547470092773
1745737784.671397,0.0310040470212698,-0.05638507753610611,-0.33746767044067383,0.7507243156433105,-0.9840413928031921,-9.887422561645508
1745737784.6717527,0.05137054994702339,-0.04792547971010208,-0.3376782536506653,0.5469978451728821,-1.0042414665222168,-9.801006317138672
1745737784.6742423,0.030278820544481277,-0.04711933061480522,-0.33731162548065186,0.773848831653595,-0.9474383592605591,-9.5074462890625
1745737784.6760805,0.03782089799642563,-0.050985805690288544,-0.3378276228904724,0.5518683195114136,-0.9320350885391235,-9.693682670593262
1745737784.7143621,-0.017277885228395462,-0.01920773647725582,-0.34579139947891235,0.557685136795044,-0.8832969665527344,-9.757299423217773
1745737784.7164588,-0.024528732523322105,-0.016683487221598625,-0.3470388948917389,0.7641130089759827,-1.0512754917144775,-9.761224746704102
1745737784.7206302,-0.03412522003054619,-0.022437043488025665,-0.34609299898147583,0.5800719261169434,-0.9026044607162476,-9.771934509277344
1745737784.7231593,-0.009221474640071392,-0.015079891309142113,-0.34926655888557434,0.6600622534751892,-1.0517516136169434,-9.757014274597168
1745737784.7565055,-0.04251973703503609,-0.02150307409465313,-0.34776216745376587,0.721336841583252,-0.7809136509895325,-9.667506217956543
1745737784.7605202,-0.011394518427550793,-0.01516047865152359,-0.3477931022644043,0.5715031623840332,-1.0645196437835693,-9.756529808044434
1745737784.7631953,-0.031104575842618942,-0.016335612162947655,-0.34802716970443726,0.6488261222839355,-0.8095504641532898,-9.586627006530762
1745737784.7665257,-0.015859898179769516,-0.016365237534046173,-0.34945595264434814,0.5888249278068542,-0.9595829844474792,-9.729143142700195
1745737784.7688239,-0.020051831379532814,-0.013888305053114891,-0.34625476598739624,0.7313441038131714,-0.9842686653137207,-9.784875869750977
1745737784.8046234,-0.021016845479607582,-0.02109651081264019,-0.3491857647895813,0.5803980827331543,-0.820986270904541,-9.793625831604004
1745737784.8085427,-0.024315061047673225,-0.009243962354958057,-0.34925615787506104,0.6303489208221436,-1.1566969156265259,-9.735475540161133
1745737784.8124616,-0.03647507354617119,-0.017939191311597824,-0.34911954402923584,0.664211094379425,-0.9061509966850281,-9.52344036102295
1745737784.8163817,-0.017345335334539413,-0.013341523706912994,-0.3505761921405792,0.6637873649597168,-1.0483490228652954,-9.677547454833984
1745737784.846054,-0.05391288548707962,-0.01461070217192173,-0.3500758409500122,0.7113587856292725,-0.899754524230957,-9.785512924194336
1745737784.8478403,-0.02609807625412941,-0.01064551342278719,-0.34998819231987,0.5411342978477478,-0.9944406747817993,-9.802133560180664
1745737784.8505728,-0.0434645339846611,-0.014277947135269642,-0.3527064323425293,0.6833730936050415,-0.8499895930290222,-9.584892272949219
1745737784.8544517,-0.038696929812431335,-0.01642993465065956,-0.35158678889274597,0.5562654137611389,-0.825829803943634,-9.681090354919434
1745737784.8616323,-0.018952559679746628,-0.009267526678740978,-0.35375452041625977,0.6556369066238403,-0.8731316328048706,-9.829544067382812
1745737784.8836029,-0.039884813129901886,-0.017358971759676933,-0.3530831038951874,0.6648277044296265,-0.7998912930488586,-9.688432693481445
1745737784.8862166,-0.016132023185491562,-0.00991554744541645,-0.35341280698776245,0.6228290796279907,-1.0269572734832764,-9.647334098815918
1745737784.888707,-0.042238734662532806,-0.015704315155744553,-0.3534863591194153,0.703698992729187,-0.9375379681587219,-9.726434707641602
1745737784.8927078,-0.022647300735116005,-0.011812957003712654,-0.3529549539089203,0.553442120552063,-0.9492021799087524,-9.861466407775879
1745737784.9292257,-0.01781860925257206,-0.007216037716716528,-0.3550877273082733,0.570652961730957,-0.8371309041976929,-9.776381492614746
1745737784.9332566,-0.039704330265522,-0.01179316733032465,-0.3566373288631439,0.657349705696106,-0.8014541864395142,-9.750592231750488
1745737784.9333255,-0.01977955922484398,-0.011160439811646938,-0.35737407207489014,0.5666446685791016,-0.7178226709365845,-9.63209342956543
1745737784.9348564,-0.031057674437761307,-0.00790762435644865,-0.3593941330909729,0.68305504322052,-0.9979434013366699,-9.656499862670898
1745737784.9690394,-0.027525877580046654,-0.010878527536988258,-0.3597472608089447,0.5691813230514526,-0.7625901699066162,-9.703658103942871
1745737784.972126,-0.026220863685011864,-0.0071289315819740295,-0.35879725217819214,0.6816571950912476,-0.925139307975769,-9.786223411560059
1745737784.973864,-0.0513107068836689,-0.01076370757073164,-0.36132416129112244,0.5883165597915649,-0.9404243230819702,-9.744890213012695
1745737784.9772549,-0.014298534020781517,-0.006098552606999874,-0.36104217171669006,0.5042327642440796,-0.7761467099189758,-9.61060905456543
1745737784.97866,-0.05781630426645279,-0.013212080113589764,-0.3628057837486267,0.7389252781867981,-0.857937216758728,-9.671796798706055
1745737785.0176446,-0.019795875996351242,-0.007247760891914368,-0.36188560724258423,0.5204529166221619,-0.8654502034187317,-9.79966926574707
1745737785.0194535,-0.040856197476387024,-0.00548284687101841,-0.3600913882255554,0.6294633150100708,-0.8148788213729858,-9.666308403015137
1745737785.0213683,-0.03203953802585602,-0.010503238998353481,-0.3617980480194092,0.5723949074745178,-0.80645751953125,-9.684287071228027
1745737785.0285466,-0.025126982480287552,-0.005151953082531691,-0.3612464368343353,0.5648409128189087,-0.8781894445419312,-9.713569641113281
1745737785.0586035,-0.035812560468912125,-0.011187910102307796,-0.36059218645095825,0.5723168253898621,-0.7561264038085938,-9.740985870361328
1745737785.0631976,-0.045291293412446976,-0.018521765246987343,-0.35301095247268677,0.6019678711891174,-0.7596127390861511,-9.648088455200195
1745737785.0691135,-0.029137853533029556,-0.012568080797791481,-0.3545624911785126,0.5763293504714966,-0.7444372177124023,-9.811277389526367
1745737785.0711832,-0.04550338163971901,-0.020665111020207405,-0.35243263840675354,0.6780364513397217,-0.7875764966011047,-9.946971893310547
1745737785.1042094,-0.022674288600683212,-0.01619827188551426,-0.35290971398353577,0.4978543221950531,-0.736499547958374,-9.874310493469238
1745737785.1042926,-0.04929784685373306,-0.019411394372582436,-0.35314005613327026,0.6459857225418091,-0.9286061525344849,-9.583394050598145
1745737785.104504,-0.02218255214393139,-0.021573787555098534,-0.3518233895301819,0.5347693562507629,-0.6664390563964844,-9.568480491638184
1745737785.1081944,-0.048990342766046524,-0.01630834862589836,-0.3516768515110016,0.6443294882774353,-0.9054514765739441,-9.837888717651367
1745737785.1109753,-0.037900328636169434,-0.021212078630924225,-0.35213327407836914,0.6006994843482971,-0.6915899515151978,-9.903009414672852
1745737785.14504,-0.03051421046257019,-0.01592583768069744,-0.352562814950943,0.5344396829605103,-0.7399827837944031,-9.732422828674316
1745737785.150819,-0.05368172004818916,-0.026303768157958984,-0.35196584463119507,0.630237340927124,-0.793282151222229,-9.680195808410645
1745737785.1548808,-0.021926304325461388,-0.018629852682352066,-0.35392946004867554,0.4986254572868347,-0.7098110318183899,-9.853330612182617
1745737785.1585512,-0.053988825529813766,-0.025454049929976463,-0.35025468468666077,0.6267320513725281,-0.9544207453727722,-9.819175720214844
1745737785.1928568,-0.0318257100880146,-0.02061198279261589,-0.3502129316329956,0.49176710844039917,-0.7141144871711731,-9.61247730255127
1745737785.1945364,-0.052369337528944016,-0.021962419152259827,-0.3488793969154358,0.6423761248588562,-0.9712409973144531,-9.714519500732422
1745737785.194596,-0.043446123600006104,-0.026562318205833435,-0.3470417857170105,0.5555851459503174,-0.5758012533187866,-9.868854522705078
1745737785.1979287,-0.04174993187189102,-0.0193515345454216,-0.350578635931015,0.6009443998336792,-0.7438443899154663,-9.927180290222168
1745737785.2026086,-0.049679242074489594,-0.025012260302901268,-0.35016655921936035,0.555152177810669,-0.6946818232536316,-9.683721542358398
1745737785.2291534,-0.02412652038037777,-0.023527251556515694,-0.3495236337184906,0.45895910263061523,-0.6466253399848938,-9.615200996398926
1745737785.2324264,-0.05901443958282471,-0.0289283636957407,-0.3497549891471863,0.6853615641593933,-0.7628769278526306,-9.792703628540039
1745737785.2358692,-0.02002352848649025,-0.01982572115957737,-0.3472139239311218,0.4694950580596924,-0.6620610356330872,-9.880303382873535
1745737785.2394917,-0.0477086640894413,-0.023069987073540688,-0.34835144877433777,0.621953010559082,-0.7580171823501587,-9.713468551635742
1745737785.273415,-0.029847249388694763,-0.027391407638788223,-0.34917333722114563,0.5741323232650757,-0.6281863451004028,-9.680091857910156
1745737785.2769501,-0.03107891045510769,-0.0259273461997509,-0.3445470333099365,0.5140715837478638,-0.5640032887458801,-9.820764541625977
1745737785.2798126,-0.04445599019527435,-0.02787734568119049,-0.34545615315437317,0.6026626825332642,-0.7023859024047852,-9.636591911315918
1745737785.2830443,-0.04583986476063728,-0.03306682035326958,-0.34631839394569397,0.5400890111923218,-0.6675575971603394,-9.744810104370117
1745737785.313517,-0.02478601224720478,-0.022328678518533707,-0.3426615595817566,0.5139889717102051,-0.7041761875152588,-9.891814231872559
1745737785.3175852,-0.05135343223810196,-0.02929113805294037,-0.3447924256324768,0.6147326231002808,-0.7340970635414124,-9.706830024719238
1745737785.3189847,-0.024125998839735985,-0.025562364608049393,-0.3400498330593109,0.4903717637062073,-0.6480897665023804,-9.612822532653809
1745737785.3200345,-0.05096279829740524,-0.029202690348029137,-0.34184569120407104,0.6343187093734741,-0.7844685912132263,-9.841044425964355
1745737785.3233013,-0.02673317864537239,-0.030207138508558273,-0.3417223393917084,0.4684728980064392,-0.5170341730117798,-9.931326866149902
1745737785.3606653,-0.04412486404180527,-0.023008354008197784,-0.34297576546669006,0.6086386442184448,-0.7140508890151978,-9.735334396362305
1745737785.3642063,-0.02888626977801323,-0.03408821299672127,-0.3425427973270416,0.48541268706321716,-0.6119285821914673,-9.614364624023438
1745737785.3650029,-0.025542432442307472,-0.025524575263261795,-0.34132757782936096,0.4730773866176605,-0.6643202900886536,-9.698822975158691
1745737785.3677852,-0.04312324896454811,-0.029199237003922462,-0.33969059586524963,0.5864189267158508,-0.6888024806976318,-9.852818489074707
1745737785.4015074,-0.007066437043249607,-0.021756339818239212,-0.340386301279068,0.5131138563156128,-0.6596325039863586,-9.729793548583984
1745737785.4057822,-0.039920929819345474,-0.02867545187473297,-0.3400611877441406,0.6448940634727478,-0.6211321353912354,-9.673486709594727
1745737785.409028,0.017075473442673683,-0.020103080198168755,-0.33300042152404785,0.4404726028442383,-0.5425876379013062,-9.759486198425293
1745737785.4130504,-0.013226109556853771,-0.030550509691238403,-0.33413785696029663,0.5750986933708191,-0.5273669362068176,-9.724345207214355
1745737785.445138,0.02290547639131546,-0.02236202545464039,-0.33601588010787964,0.44414496421813965,-0.6179155111312866,-9.775311470031738
1745737785.4484715,-0.0009371220949105918,-0.024642225354909897,-0.3329700529575348,0.5766903162002563,-0.6440314650535583,-9.690753936767578
1745737785.4610221,0.01160801388323307,-0.027246981859207153,-0.3326880931854248,0.5225145220756531,-0.6550368070602417,-9.748196601867676
1745737785.461157,0.008885560557246208,-0.020848074927926064,-0.3294922411441803,0.5986563563346863,-0.7440499067306519,-9.789236068725586
1745737785.4612617,0.0024737443309277296,-0.030003618448972702,-0.32887178659439087,0.5481791496276855,-0.6359637975692749,-9.828804016113281
1745737785.4904065,0.011550812982022762,-0.022811830043792725,-0.3273739218711853,0.4804016053676605,-0.7621922492980957,-9.808758735656738
1745737785.4929225,-0.00942973606288433,-0.02855781279504299,-0.3287504315376282,0.5148548483848572,-0.5647725462913513,-9.64616584777832
1745737785.495487,0.02012636326253414,-0.022108236327767372,-0.3279377222061157,0.3846304416656494,-0.6124683618545532,-9.617716789245605
1745737785.4978118,-0.010662255808711052,-0.024002188816666603,-0.3301919102668762,0.5766680836677551,-0.5384504795074463,-9.671684265136719
1745737785.5306134,0.009160646237432957,-0.026516666635870934,-0.33122503757476807,0.498007595539093,-0.5622934699058533,-9.882623672485352
1745737785.5317552,0.011591590009629726,-0.020264822989702225,-0.3309686779975891,0.5494063496589661,-0.6781589984893799,-9.823942184448242
1745737785.5418458,0.0010953624732792377,-0.02828805521130562,-0.32755938172340393,0.48759907484054565,-0.5304336547851562,-9.740224838256836
1745737785.548821,0.02217003144323826,-0.021186107769608498,-0.3278864622116089,0.5860756635665894,-0.7511683702468872,-9.752023696899414
1745737785.57397,-0.0023990622721612453,-0.030271757394075394,-0.3263525664806366,0.5751497745513916,-0.5908370614051819,-9.759821891784668
1745737785.5772004,0.02621442638337612,-0.02362464740872383,-0.3243638277053833,0.48001042008399963,-0.6063074469566345,-9.782477378845215
1745737785.581252,-0.004360557999461889,-0.02691730298101902,-0.32517457008361816,0.5839787721633911,-0.6576141715049744,-9.733619689941406
1745737785.584358,0.019968369975686073,-0.027203822508454323,-0.3266911208629608,0.4063141942024231,-0.5615726113319397,-9.737104415893555
1745737785.587851,0.002445011865347624,-0.02701241336762905,-0.3268168866634369,0.6093701124191284,-0.6494798064231873,-9.744682312011719
1745737785.6180117,0.004132693633437157,-0.029238933697342873,-0.3256205916404724,0.4083620607852936,-0.56364905834198,-9.8473539352417
1745737785.6209717,0.007697178982198238,-0.027559489011764526,-0.3235163688659668,0.4817925989627838,-0.505370020866394,-9.70983600616455
1745737785.6253507,0.03178146854043007,-0.024190537631511688,-0.3240295946598053,0.4965267777442932,-0.7197491526603699,-9.643488883972168
1745737785.626719,-0.0015928230714052916,-0.026921262964606285,-0.32389020919799805,0.5150619149208069,-0.4959353804588318,-9.690519332885742
1745737785.661238,0.029677128419280052,-0.022162707522511482,-0.3213259279727936,0.48154765367507935,-0.7178861498832703,-9.916769981384277
1745737785.6629887,0.020187366753816605,-0.023176323622465134,-0.32109954953193665,0.5262192487716675,-0.49810975790023804,-9.694045066833496
1745737785.665732,0.028274202719330788,-0.025580909103155136,-0.3217339515686035,0.3999065160751343,-0.4844875931739807,-9.680667877197266
1745737785.6658165,0.03905089944601059,-0.02042170986533165,-0.32029908895492554,0.5351924896240234,-0.6063757538795471,-9.77492618560791
1745737785.7092748,0.028752703219652176,-0.028716271743178368,-0.32271045446395874,0.4128398895263672,-0.4863807260990143,-9.819162368774414
1745737785.709336,0.04238349571824074,-0.019310183823108673,-0.32019686698913574,0.49658626317977905,-0.7494835257530212,-9.716301918029785
1745737785.7093837,0.01924487017095089,-0.02579996921122074,-0.32220274209976196,0.5246076583862305,-0.6153932809829712,-9.667031288146973
1745737785.70943,0.03622256591916084,-0.022012945264577866,-0.32115811109542847,0.44092512130737305,-0.7542077898979187,-9.817337989807129
1745737785.7445536,0.010787846520543098,-0.024495897814631462,-0.32056742906570435,0.5897426605224609,-0.6460909843444824,-9.780374526977539
1745737785.7470202,0.023946039378643036,-0.024191584438085556,-0.31995829939842224,0.3670439124107361,-0.7374736666679382,-9.792913436889648
1745737785.749624,0.024025121703743935,-0.02178547903895378,-0.32078778743743896,0.5080354809761047,-0.6419217586517334,-9.656827926635742
1745737785.7496884,0.011743742041289806,-0.02640429511666298,-0.32025137543678284,0.4346984028816223,-0.42868098616600037,-9.747100830078125
1745737785.75278,0.033248018473386765,-0.016541222110390663,-0.31775254011154175,0.35583391785621643,-0.6508058309555054,-9.817190170288086
1745737785.7902591,0.0270950086414814,-0.01686222478747368,-0.31597837805747986,0.5497444272041321,-0.7121433019638062,-9.614680290222168
1745737785.7921038,0.017654258757829666,-0.019173895940184593,-0.32118457555770874,0.38290083408355713,-0.4518504738807678,-9.693742752075195
1745737785.793868,0.0273194070905447,-0.014057843014597893,-0.3192651867866516,0.5823371410369873,-0.8813956379890442,-9.957239151000977
1745737785.7971108,0.023387745022773743,-0.02323143370449543,-0.32004934549331665,0.4333396852016449,-0.39246609807014465,-9.811409950256348
1745737785.831355,0.027326548472046852,-0.014061960391700268,-0.31712788343429565,0.409524530172348,-0.8911868929862976,-9.72993278503418
1745737785.8329124,0.02504313364624977,-0.018472518771886826,-0.3195788562297821,0.4877961277961731,-0.4942942261695862,-9.615791320800781
1745737785.8358662,0.02834055759012699,-0.0175935048609972,-0.3171539902687073,0.35761430859565735,-0.6850820779800415,-9.797994613647461
1745737785.837974,0.024772891774773598,-0.015545671805739403,-0.3155079782009125,0.5781257152557373,-0.643950343132019,-9.734922409057617
1745737785.840721,0.03423964977264404,-0.019096657633781433,-0.317256897687912,0.365206778049469,-0.5296444892883301,-9.832489967346191
1745737785.8840883,0.030707180500030518,-0.015209932811558247,-0.31779035925865173,0.48038214445114136,-0.8031026721000671,-9.83204460144043
1745737785.884165,0.024398386478424072,-0.018426332622766495,-0.3170554041862488,0.3792385458946228,-0.4405164122581482,-9.698168754577637
1745737785.884209,0.03152098134160042,-0.013181978836655617,-0.318197637796402,0.45812171697616577,-0.9461116790771484,-9.790360450744629
1745737785.885397,0.027173807844519615,-0.020245088264346123,-0.31912192702293396,0.4529987871646881,-0.4385029375553131,-9.60358715057373
1745737785.9163458,0.023103732615709305,-0.015796629711985588,-0.3207876980304718,0.4805520474910736,-0.7784048914909363,-9.846780776977539
1745737785.9173608,0.028114354237914085,-0.015038304030895233,-0.31748777627944946,0.5604130029678345,-0.7226454019546509,-9.79197883605957
1745737785.9250042,0.02617717906832695,-0.016829166561365128,-0.3176615834236145,0.33412399888038635,-0.5020390748977661,-9.72529411315918
1745737785.925408,0.027250170707702637,-0.014464017935097218,-0.317716509103775,0.5335458517074585,-0.8714045286178589,-9.782905578613281
1745737785.9264266,0.028804868459701538,-0.016399875283241272,-0.3147946298122406,0.313419908285141,-0.366327702999115,-9.727831840515137
1745737785.9615185,0.03330496698617935,-0.013846069574356079,-0.3179817795753479,0.47273802757263184,-0.8095923662185669,-9.792617797851562
1745737785.9641895,0.022520676255226135,-0.017490936443209648,-0.3172784149646759,0.47361841797828674,-0.5041815042495728,-9.697426795959473
1745737785.9687495,0.03373587876558304,-0.01504397951066494,-0.3173082768917084,0.4922303557395935,-0.5912259221076965,-9.721322059631348
1745737785.9722672,0.033861108124256134,-0.015431624837219715,-0.31537842750549316,0.3651520311832428,-0.8472003936767578,-9.892877578735352
1745737786.0038745,0.022957418113946915,-0.015316085889935493,-0.31315934658050537,0.5527563691139221,-0.8262044787406921,-9.753828048706055
1745737786.005239,0.02273925021290779,-0.014768360182642937,-0.31434839963912964,0.3843311369419098,-0.5090845823287964,-9.654516220092773
1745737786.0080614,0.025792445987462997,-0.016690488904714584,-0.31436866521835327,0.5388661623001099,-0.9148467779159546,-9.787834167480469
1745737786.0183034,0.028793375939130783,-0.014976327307522297,-0.3152087330818176,0.365193635225296,-0.27449363470077515,-9.68071174621582
1745737786.0477867,0.024240484461188316,-0.009647157974541187,-0.3158222734928131,0.4825831949710846,-0.891373336315155,-9.864091873168945
1745737786.0488465,0.03312725946307182,-0.014989292249083519,-0.31458768248558044,0.4068089425563812,-0.45732298493385315,-9.692502975463867
1745737786.0511909,0.03085348568856716,-0.012596922926604748,-0.31571871042251587,0.3169868290424347,-0.7119733095169067,-9.807296752929688
1745737786.0522459,0.03142785280942917,-0.013644780032336712,-0.313378244638443,0.5212019681930542,-0.7381061315536499,-9.74183177947998
1745737786.0538008,0.0335632748901844,-0.014478573575615883,-0.3158985376358032,0.35340455174446106,-0.5154918432235718,-9.742483139038086
1745737786.0936887,0.032742273062467575,-0.014830823056399822,-0.3145190179347992,0.6403716206550598,-0.8669093251228333,-9.829402923583984
1745737786.0959013,0.027131643146276474,-0.016265925019979477,-0.31408023834228516,0.4108043313026428,-0.5714672207832336,-9.803655624389648
1745737786.0980184,0.026953015476465225,-0.011297889053821564,-0.3140846788883209,0.4949626922607422,-1.0063203573226929,-9.799842834472656
1745737786.1001976,0.026117995381355286,-0.01749495230615139,-0.31271252036094666,0.4203522205352783,-0.4655228555202484,-9.551918983459473
1745737786.134186,0.04157368093729019,-0.012043443508446217,-0.31032586097717285,0.26668602228164673,-0.4109261631965637,-9.724893569946289
1745737786.1375983,0.032842569053173065,-0.013707068748772144,-0.30818137526512146,0.4578900933265686,-0.9555565118789673,-9.75739860534668
1745737786.1401591,0.03155355155467987,-0.016615187749266624,-0.3083294928073883,0.39421695470809937,-0.5181902647018433,-9.735883712768555
1745737786.1434739,0.029197245836257935,-0.01188576314598322,-0.3095574378967285,0.46203890442848206,-0.8271206617355347,-9.857671737670898
1745737786.1745625,0.033679038286209106,-0.01707458309829235,-0.31140297651290894,0.5436414480209351,-0.6613030433654785,-9.704275131225586
1745737786.1841779,0.02878267504274845,-0.012044395320117474,-0.3096415102481842,0.3763887584209442,-0.6675998568534851,-9.638737678527832
1745737786.1846957,0.016734879463911057,-0.016509931534528732,-0.3089863657951355,0.6375899314880371,-0.9222652316093445,-9.73858642578125
1745737786.1847718,0.03677688166499138,-0.014209846034646034,-0.3093499541282654,0.30790820717811584,-0.4920128881931305,-9.826610565185547
1745737786.1848114,0.018560413271188736,-0.014092897064983845,-0.31023451685905457,0.511906087398529,-0.9011282920837402,-9.853911399841309
1745737786.220744,0.040399838238954544,-0.01597507856786251,-0.3069702982902527,0.3702012896537781,-0.38071781396865845,-9.654991149902344
1745737786.2242007,0.033408112823963165,-0.012585948221385479,-0.30954405665397644,0.42336949706077576,-0.8052762746810913,-9.713539123535156
1745737786.2282495,0.03995747119188309,-0.020584408193826675,-0.3073614239692688,0.5306929349899292,-0.5408313870429993,-9.724825859069824
1745737786.231706,0.043839141726493835,-0.012195499613881111,-0.3081494867801666,0.38697460293769836,-0.8386295437812805,-9.894099235534668
1745737786.2624705,0.03712994605302811,-0.014382061548531055,-0.3077976107597351,0.5032191872596741,-0.7849089503288269,-9.696126937866211
1745737786.2644362,0.04300623759627342,-0.01527861226350069,-0.30806711316108704,0.36130309104919434,-0.5938652753829956,-9.594297409057617
1745737786.266797,0.017795857042074203,-0.01418205164372921,-0.306800901889801,0.5213792324066162,-0.9937818646430969,-9.842222213745117
1745737786.2684677,0.04478015378117561,-0.014523367397487164,-0.3085375726222992,0.45218831300735474,-0.4934144914150238,-9.814414024353027
1745737786.2696981,0.021600671112537384,-0.01451827585697174,-0.3090062737464905,0.48373812437057495,-0.8792791366577148,-9.775729179382324
1745737786.3114655,0.03300187736749649,-0.018626300618052483,-0.30874893069267273,0.43305477499961853,-0.662110447883606,-9.644350051879883
1745737786.3148985,0.031566791236400604,-0.010833116248250008,-0.3083662986755371,0.35390505194664,-0.7464305758476257,-9.7467041015625
1745737786.319128,0.02433880791068077,-0.018907176330685616,-0.3089943528175354,0.5523481369018555,-0.8027049899101257,-9.789015769958496
1745737786.3243358,0.014767743647098541,-0.018804406747221947,-0.3064981698989868,0.5693360567092896,-0.8538653254508972,-9.78512954711914
1745737786.3493514,0.045714013278484344,-0.016123618930578232,-0.3073880672454834,0.37619489431381226,-0.5656024813652039,-9.815655708312988
1745737786.3504245,0.023049246519804,-0.015667622908949852,-0.30563098192214966,0.4709160327911377,-0.8950589895248413,-9.816780090332031
1745737786.3537745,0.043997518718242645,-0.018181324005126953,-0.3041152358055115,0.4014202952384949,-0.5293512940406799,-9.588541030883789
1745737786.3565168,0.03225135803222656,-0.013311105780303478,-0.30496326088905334,0.39985132217407227,-0.9256294965744019,-9.722990036010742
1745737786.3917966,0.03597746044397354,-0.019557137042284012,-0.30298858880996704,0.4358351230621338,-0.6179515719413757,-9.767102241516113
1745737786.3947234,0.048261791467666626,-0.009443982504308224,-0.3058851659297943,0.3845362961292267,-0.6897587776184082,-9.725767135620117
1745737786.3965964,0.02146127261221409,-0.017727836966514587,-0.30353298783302307,0.5369578003883362,-0.8248030543327332,-9.794987678527832
1745737786.3985808,0.054624855518341064,-0.015170054510235786,-0.30483588576316833,0.39036795496940613,-0.6365631818771362,-9.826369285583496
1745737786.3996968,0.02528049610555172,-0.0179447028785944,-0.3058560788631439,0.4886290431022644,-0.8558176159858704,-9.792779922485352
1745737786.4344115,0.04195767641067505,-0.01741579733788967,-0.30703309178352356,0.36071687936782837,-0.6748696565628052,-9.618463516235352
1745737786.436697,0.03077053651213646,-0.01330932043492794,-0.30424728989601135,0.48639124631881714,-0.853491485118866,-9.641932487487793
1745737786.4383454,0.02164597436785698,-0.023748379200696945,-0.30579042434692383,0.5093744397163391,-0.7704117894172668,-9.802038192749023
1745737786.4400983,0.03639848902821541,-0.01116656418889761,-0.302346408367157,0.3992291986942291,-0.8305230140686035,-9.936046600341797
1745737786.4801948,0.012256949208676815,-0.02058408595621586,-0.30315107107162476,0.4857022166252136,-0.8587045669555664,-9.802009582519531
1745737786.4854023,0.01756955310702324,-0.011953093111515045,-0.2978506088256836,0.4524044096469879,-0.7897183299064636,-9.937128067016602
1745737786.4869533,0.009893720038235188,-0.021452516317367554,-0.2979564666748047,0.35131725668907166,-0.47884291410446167,-9.530085563659668
1745737786.48877,0.02452779933810234,-0.01761494390666485,-0.2983611524105072,0.4404551386833191,-0.8743613362312317,-9.66366958618164
1745737786.521495,0.0038371533155441284,-0.0233022291213274,-0.30137622356414795,0.46743831038475037,-0.6710296869277954,-9.967184066772461
1745737786.5262852,0.025169098749756813,-0.015896392986178398,-0.29721829295158386,0.3900528848171234,-0.8442525863647461,-9.919485092163086
1745737786.5305438,-0.006154743023216724,-0.019461022689938545,-0.2981817126274109,0.5191491842269897,-0.9498578310012817,-9.51131534576416
1745737786.5342164,0.008093511685729027,-0.01979377493262291,-0.29899877309799194,0.3534383773803711,-0.7429192066192627,-9.544845581054688
1745737786.561273,-0.004495009779930115,-0.018845591694116592,-0.29791969060897827,0.563368022441864,-0.7824752926826477,-9.896112442016602
1745737786.564678,-0.004420444369316101,-0.01889771968126297,-0.2985670864582062,0.353414922952652,-0.5107325315475464,-9.973421096801758
1745737786.5687401,0.017121953889727592,-0.01196691207587719,-0.2997714877128601,0.4215999245643616,-0.7708665132522583,-9.656892776489258
1745737786.5713327,0.0032024357933551073,-0.024539751932024956,-0.30124780535697937,0.4156900942325592,-0.4840320646762848,-9.506925582885742
1745737786.5736678,0.020769432187080383,-0.020066294819116592,-0.2999601364135742,0.34131643176078796,-0.8966860771179199,-9.902960777282715
1745737786.6058137,0.016842160373926163,-0.01641668565571308,-0.3010076582431793,0.4689566493034363,-0.6200100779533386,-9.921963691711426
1745737786.614929,0.025696266442537308,-0.017343584448099136,-0.29701268672943115,0.3514893651008606,-0.7778298854827881,-9.61962604522705
1745737786.6149883,0.01379831600934267,-0.012877223081886768,-0.29601913690567017,0.5342981815338135,-0.8319455981254578,-9.459671020507812
1745737786.6150355,0.018947387114167213,-0.023619331419467926,-0.29793986678123474,0.4458659291267395,-0.6707111597061157,-9.883979797363281
1745737786.6485662,0.014837692491710186,-0.013842841610312462,-0.29706794023513794,0.508056640625,-0.9406841993331909,-10.158082962036133
1745737786.6522002,0.0038693342357873917,-0.020285528153181076,-0.2984136939048767,0.3692411780357361,-0.5953457355499268,-9.687803268432617
1745737786.6561248,0.019189149141311646,-0.013251724652945995,-0.2971166670322418,0.34258466958999634,-0.9770466685295105,-9.513755798339844
1745737786.6610086,-7.188916060840711e-05,-0.02104753628373146,-0.2980791926383972,0.4179076552391052,-0.5397748947143555,-9.548612594604492
1745737786.6635275,0.011724846437573433,-0.014657869935035706,-0.29743748903274536,0.4300568103790283,-0.7808281183242798,-9.992873191833496
1745737786.700096,0.015643127262592316,-0.013237589970231056,-0.2959532141685486,0.4768996834754944,-0.8606992959976196,-9.69365119934082
1745737786.7031822,0.005947430152446032,-0.019486380741000175,-0.2945605218410492,0.322013258934021,-0.49252304434776306,-9.528833389282227
1745737786.7079194,0.02329249307513237,-0.0129025187343359,-0.2932903468608856,0.4639638066291809,-0.9532108306884766,-9.781193733215332
1745737786.7123384,0.021212149411439896,-0.0172269307076931,-0.2929777204990387,0.423485666513443,-0.42785996198654175,-9.831999778747559
1745737786.7333221,0.03243890777230263,-0.013018731959164143,-0.29369300603866577,0.42440176010131836,-0.8995819091796875,-9.839266777038574
1745737786.7372465,0.024831686168909073,-0.01695852167904377,-0.2903195023536682,0.4458963871002197,-0.6301038861274719,-9.605040550231934
1745737786.741533,0.034121282398700714,-0.01444728672504425,-0.2916482090950012,0.32631057500839233,-0.7750170826911926,-9.788856506347656
1745737786.7456093,0.020490067079663277,-0.014862604439258575,-0.2919526994228363,0.5125452280044556,-0.8287588357925415,-9.806619644165039
1745737786.7504284,0.016350334510207176,-0.0161374993622303,-0.2940133512020111,0.3523154854774475,-0.6158028841018677,-9.725824356079102
1745737786.7862763,0.02236868627369404,-0.013167071156203747,-0.29458585381507874,0.4877654016017914,-1.021156907081604,-9.705556869506836
1745737786.7908075,0.003643026575446129,-0.01807485893368721,-0.2942532002925873,0.40797725319862366,-0.5952469110488892,-9.653145790100098
1745737786.7929516,0.007820403203368187,-0.01176224835216999,-0.2955899238586426,0.5320294499397278,-1.0548391342163086,-9.880395889282227
1745737786.7958095,0.004350610077381134,-0.014544611796736717,-0.29368188977241516,0.4751405715942383,-0.6274948716163635,-9.802047729492188
1745737786.8221953,0.010232535190880299,-0.012862293049693108,-0.29183265566825867,0.3576134443283081,-0.7534529566764832,-9.7664213180542
1745737786.8265197,0.01236721407622099,-0.014982154592871666,-0.292799174785614,0.5338299870491028,-0.7451585531234741,-9.667367935180664
1745737786.8362744,0.01560839731246233,-0.014602127484977245,-0.2898603677749634,0.5267079472541809,-1.146596908569336,-9.920594215393066
1745737786.8363147,0.01760382577776909,-0.02191396802663803,-0.2888116240501404,0.5234383344650269,-0.7194687128067017,-9.680516242980957
1745737786.865744,0.012193722650408745,-0.019574327394366264,-0.28642240166664124,0.38192081451416016,-0.8217085003852844,-9.727628707885742
1745737786.866777,0.005688884761184454,-0.019547276198863983,-0.2898346781730652,0.4798181653022766,-0.8212567567825317,-9.714056015014648
1745737786.8677819,0.02069379948079586,-0.014752909541130066,-0.2888185679912567,0.28880739212036133,-0.47333621978759766,-9.626428604125977
1745737786.8698132,0.008100388571619987,-0.020508810877799988,-0.2887972295284271,0.5291569828987122,-0.9343941807746887,-9.714113235473633
1745737786.9085994,0.02294922061264515,-0.021926388144493103,-0.2879827618598938,0.3012024462223053,-0.44476503133773804,-9.77962875366211
1745737786.9117346,0.01947764679789543,-0.017079871147871017,-0.28766217827796936,0.47284969687461853,-1.0260854959487915,-9.927591323852539
1745737786.9137034,0.018934806808829308,-0.02529185079038143,-0.28623563051223755,0.4238179326057434,-0.5697265863418579,-9.678563117980957
1745737786.9169064,0.02265710011124611,-0.018624115735292435,-0.2863919138908386,0.45530256628990173,-0.8836332559585571,-9.68983268737793
1745737786.9194846,0.020541207864880562,-0.026307348161935806,-0.28574931621551514,0.5599861145019531,-0.7773968577384949,-9.703862190246582
1745737786.951896,0.024738594889640808,-0.01917320117354393,-0.28642594814300537,0.3404028117656708,-0.6636088490486145,-9.768412590026855
1745737786.9546967,0.004752646666020155,-0.01871846243739128,-0.28843826055526733,0.5745059251785278,-0.9470185041427612,-9.708208084106445
1745737786.9580815,0.025822874158620834,-0.022267315536737442,-0.28686046600341797,0.3136489689350128,-0.5623604655265808,-9.690423965454102
1745737786.961281,0.008093645796179771,-0.02168615162372589,-0.28864914178848267,0.4776515066623688,-0.9090067744255066,-9.868324279785156
1745737786.9919815,0.020467484369874,-0.02378106862306595,-0.2863956391811371,0.39643773436546326,-0.5438746809959412,-9.813535690307617
1745737786.9972513,0.01751268096268177,-0.02013387903571129,-0.2875630855560303,0.3901577591896057,-0.9045110940933228,-9.725260734558105
1745737787.0016744,0.013627392239868641,-0.028104621917009354,-0.28716278076171875,0.5410822629928589,-0.6858943104743958,-9.562323570251465
1745737787.0061684,0.021534303203225136,-0.02286382205784321,-0.2858828008174896,0.3934365212917328,-0.899436354637146,-9.830350875854492
1745737787.0091708,0.008306832052767277,-0.025515783578157425,-0.28297433257102966,0.5292586088180542,-0.9092262983322144,-9.835824966430664
1745737787.0386016,0.0115234749391675,-0.02202693372964859,-0.2854456305503845,0.4544734060764313,-0.9326471090316772,-9.801040649414062
1745737787.039985,0.02238168939948082,-0.030389759689569473,-0.2852446138858795,0.3764456510543823,-0.6757346391677856,-9.690309524536133
1745737787.0455086,0.015211580321192741,-0.02165265567600727,-0.2854480743408203,0.3219083547592163,-0.7976771593093872,-9.679899215698242
1745737787.0800412,0.00019430923566687852,-0.025218557566404343,-0.28527140617370605,0.5253615379333496,-0.9121484756469727,-9.73432731628418
1745737787.0919738,0.021955762058496475,-0.018597764894366264,-0.2850080132484436,0.32060274481773376,-0.6860515475273132,-9.77747917175293
1745737787.09431,-0.010569249279797077,-0.027018943801522255,-0.28672897815704346,0.5704460144042969,-0.9931577444076538,-9.770906448364258
1745737787.0963736,0.01634121499955654,-0.02617238089442253,-0.28204256296157837,0.3934524953365326,-0.6556030511856079,-9.770471572875977
1745737787.0995119,-0.007428385317325592,-0.02502894029021263,-0.28274714946746826,0.4937051236629486,-1.0253770351409912,-9.82568359375
1745737787.1236293,0.00889596063643694,-0.028377801179885864,-0.28191596269607544,0.4095551371574402,-0.5621465444564819,-9.666116714477539
1745737787.1271634,0.0028249528259038925,-0.020919226109981537,-0.281653493642807,0.3551393151283264,-0.9110628366470337,-9.74988842010498
1745737787.1300266,0.004150069318711758,-0.027301546186208725,-0.2814301550388336,0.37582165002822876,-0.6015363335609436,-9.650708198547363
1745737787.1310818,0.015869662165641785,-0.021456118673086166,-0.2806628346443176,0.2938198447227478,-0.6260184049606323,-9.698321342468262
1745737787.1670196,-0.003746206406503916,-0.02449374459683895,-0.28443828225135803,0.4853326678276062,-0.7984151840209961,-9.847643852233887
1745737787.1671531,0.029017124325037003,-0.022120390087366104,-0.2856973111629486,0.35224539041519165,-0.5789374709129333,-9.806126594543457
1745737787.168879,-3.0719093047082424e-05,-0.0248456709086895,-0.28496700525283813,0.5272519588470459,-0.941672682762146,-9.778182983398438
1745737787.1713455,0.01575421169400215,-0.023021286353468895,-0.2854735851287842,0.39290401339530945,-0.7399946451187134,-9.669781684875488
1745737787.176198,0.01686999201774597,-0.021774897351861,-0.2862405776977539,0.38880807161331177,-0.6855586171150208,-9.799051284790039
1745737787.2148674,0.019089585170149803,-0.016479436308145523,-0.287583589553833,0.3695918619632721,-0.8415837287902832,-9.761259078979492
1745737787.2186763,0.002656456083059311,-0.022614216431975365,-0.28594642877578735,0.5126664042472839,-0.777999222278595,-9.707178115844727
1745737787.220386,0.034533075988292694,-0.017524125054478645,-0.2829318940639496,0.38051122426986694,-0.6693280339241028,-9.759263038635254
1745737787.2232804,0.0029723576735705137,-0.014894652180373669,-0.28410863876342773,0.4542979300022125,-0.7613992094993591,-9.73322868347168
1745737787.2539556,0.02887057326734066,-0.015878476202487946,-0.28646916151046753,0.36330780386924744,-0.591170608997345,-9.764750480651855
1745737787.2579334,0.025632601231336594,-0.015261532738804817,-0.28410762548446655,0.39431869983673096,-0.731920063495636,-9.800371170043945
1745737787.2623937,0.02358335070312023,-0.022032074630260468,-0.2850099503993988,0.35577860474586487,-0.5937522649765015,-9.837860107421875
1745737787.2669506,0.04229695722460747,-0.01019469927996397,-0.28453007340431213,0.3840441107749939,-0.762578010559082,-9.861632347106934
1745737787.2717035,0.019543617963790894,-0.01753160171210766,-0.28521957993507385,0.3822963833808899,-0.7280223369598389,-9.614320755004883
1745737787.3086758,0.039527520537376404,-0.015816830098628998,-0.2857373356819153,0.41380953788757324,-0.796103835105896,-9.583852767944336
1745737787.308824,0.013300411403179169,-0.01718241348862648,-0.28358471393585205,0.5677198171615601,-0.8979154825210571,-9.878904342651367
1745737787.3089097,0.03564712777733803,-0.015501463785767555,-0.2830352783203125,0.32604527473449707,-0.6675667762756348,-9.96197509765625
1745737787.3089857,0.01296154223382473,-0.012925895862281322,-0.28423577547073364,0.49717551469802856,-0.8143842816352844,-9.667413711547852
1745737787.3395047,0.01997634395956993,-0.01885199174284935,-0.28288549184799194,0.3464643061161041,-0.7016487717628479,-9.661828994750977
1745737787.3437111,0.034302596002817154,-0.014792343601584435,-0.2839648127555847,0.36466410756111145,-0.7668458819389343,-9.876108169555664
1745737787.3458784,0.016432974487543106,-0.017466725781559944,-0.28424471616744995,0.3913496732711792,-0.5344903469085693,-9.82828140258789
1745737787.348316,0.04360564798116684,-0.008785088546574116,-0.28427648544311523,0.34288325905799866,-0.7769894599914551,-9.619608879089355
1745737787.3806148,0.02225087210536003,-0.01810556650161743,-0.285588800907135,0.4505940079689026,-0.5687248706817627,-9.565973281860352
1745737787.383942,0.04433824494481087,-0.016742799431085587,-0.2879435420036316,0.44765838980674744,-0.7770641446113586,-9.988598823547363
1745737787.390284,0.00630846107378602,-0.018408382311463356,-0.28315597772598267,0.45032382011413574,-0.7278279066085815,-9.738194465637207
1745737787.3946688,0.022526109591126442,-0.013282900676131248,-0.28334394097328186,0.3616686463356018,-0.8681108355522156,-9.679766654968262
1745737787.4240847,-0.0033271380234509706,-0.02038741484284401,-0.28554767370224,0.48464474081993103,-0.7174524068832397,-9.75163459777832
1745737787.4280002,0.009898995980620384,-0.017934640869498253,-0.2836461663246155,0.2454991638660431,-0.799595832824707,-9.935961723327637
1745737787.4314182,0.010990258306264877,-0.013037672266364098,-0.2854421138763428,0.47488588094711304,-0.83209228515625,-9.656482696533203
1745737787.4352202,0.0002822682145051658,-0.024662230163812637,-0.286936491727829,0.3667142391204834,-0.5826142430305481,-9.576784133911133
1745737787.4368632,0.011650134809315205,-0.01503569446504116,-0.2833709120750427,0.49081698060035706,-0.9650077819824219,-9.869752883911133
1745737787.4681194,0.003614205401390791,-0.019342953339219093,-0.2843131124973297,0.4199109971523285,-0.5088185667991638,-9.818811416625977
1745737787.4704323,0.018815873190760612,-0.014142876490950584,-0.2828420102596283,0.4528213441371918,-0.9520047903060913,-9.778260231018066
1745737787.473749,0.0017433523898944259,-0.022607337683439255,-0.2826380133628845,0.48011714220046997,-0.6420038342475891,-9.625429153442383
1745737787.4757605,0.020915955305099487,-0.020242944359779358,-0.2822428345680237,0.33217912912368774,-0.8429762721061707,-9.88656234741211
1745737787.5099843,0.0002253945858683437,-0.018502268940210342,-0.28030097484588623,0.47018688917160034,-0.8364865183830261,-9.815423011779785
1745737787.5119443,0.010747349821031094,-0.019157741218805313,-0.2845766842365265,0.3244017958641052,-0.5717942118644714,-9.591145515441895
1745737787.5144033,0.01206892542541027,-0.017483333125710487,-0.2840140759944916,0.5046859979629517,-0.8776230812072754,-9.62359619140625
1745737787.5160384,0.003913779277354479,-0.021980267018079758,-0.2864493727684021,0.3908824324607849,-0.4885524809360504,-9.800924301147461
1745737787.552889,0.015860188752412796,-0.01830618642270565,-0.28189143538475037,0.38486647605895996,-0.5468754768371582,-9.619608879089355
1745737787.5554094,0.0202518031001091,-0.02050119824707508,-0.28331729769706726,0.33914339542388916,-0.8003720045089722,-9.595273971557617
1745737787.557172,0.013916830532252789,-0.02436302974820137,-0.28295108675956726,0.5679652094841003,-0.7097645401954651,-9.744889259338379
1745737787.5585728,0.01566259376704693,-0.0202654916793108,-0.28301873803138733,0.33670753240585327,-0.7322613596916199,-10.009801864624023
1745737787.5971591,0.012555709108710289,-0.01560517679899931,-0.2840403616428375,0.5065365433692932,-1.0058337450027466,-9.66712760925293
1745737787.6000273,0.011210588738322258,-0.021871937438845634,-0.28258559107780457,0.37524765729904175,-0.5812274217605591,-9.39201545715332
1745737787.603736,-0.002119829412549734,-0.021728448569774628,-0.28243890404701233,0.49279770255088806,-1.1213992834091187,-9.892053604125977
1745737787.6070151,0.013425854966044426,-0.019350551068782806,-0.28065547347068787,0.4050787091255188,-0.5211869478225708,-9.980018615722656
1745737787.6107237,0.009159034118056297,-0.01612010784447193,-0.2813592553138733,0.3082764446735382,-0.8011338114738464,-9.724527359008789
1745737787.6416423,0.007251335773617029,-0.02445189282298088,-0.28348180651664734,0.4392646849155426,-0.7338823676109314,-9.402280807495117
1745737787.6447852,0.021191595122218132,-0.018492164090275764,-0.28375306725502014,0.30476152896881104,-0.5422180891036987,-9.746627807617188
1745737787.6479106,0.010408202186226845,-0.021276379004120827,-0.28250735998153687,0.5470675826072693,-0.9462696313858032,-10.018617630004883
1745737787.6508315,0.029007595032453537,-0.0162983201444149,-0.28072625398635864,0.27325740456581116,-0.5809816718101501,-9.656407356262207
1745737787.6837714,0.009731427766382694,-0.018174435943365097,-0.2793579697608948,0.5083073973655701,-1.1332279443740845,-9.577275276184082
1745737787.685162,0.010794607922434807,-0.025916337966918945,-0.2787005305290222,0.3526787757873535,-0.6152322292327881,-9.773799896240234
1745737787.6858068,0.008559994399547577,-0.013618933036923409,-0.28103524446487427,0.38431257009506226,-0.8762044906616211,-9.98532485961914
1745737787.6880941,0.01120033673942089,-0.020282451063394547,-0.28116726875305176,0.4730149209499359,-0.6803575158119202,-9.600809097290039
1745737787.7291121,0.015089908614754677,-0.01950635388493538,-0.2828735113143921,0.3125990033149719,-0.6703030467033386,-9.482048988342285
1745737787.7349539,-0.005703154020011425,-0.022692879661917686,-0.2844025492668152,0.5785318613052368,-0.9311200380325317,-9.833444595336914
1745737787.7352087,0.02350807934999466,-0.013797879219055176,-0.2813538908958435,0.282437264919281,-0.5991559028625488,-9.98211669921875
1745737787.742025,0.006419707089662552,-0.01181979663670063,-0.28042444586753845,0.3610725402832031,-0.7715258598327637,-9.949019432067871
1745737787.7683566,0.0018754657357931137,-0.016288384795188904,-0.2813846468925476,0.46972236037254333,-0.6894659996032715,-9.694704055786133
1745737787.771782,0.017102569341659546,-0.011571096256375313,-0.27730128169059753,0.29871097207069397,-0.6551408767700195,-9.577926635742188
1745737787.7752805,0.0013010341208428144,-0.019145136699080467,-0.27960312366485596,0.47032132744789124,-0.9069277048110962,-9.825113296508789
1745737787.7786663,0.01705470308661461,-0.014424478635191917,-0.2788451910018921,0.26197823882102966,-0.5321353673934937,-9.894208908081055
1745737787.7819476,-0.005297685042023659,-0.010488169267773628,-0.2813233733177185,0.4863350987434387,-0.9109994173049927,-9.774755477905273
1745737787.8165512,0.010483327321708202,-0.019970934838056564,-0.2815260887145996,0.3964070677757263,-0.6611301898956299,-9.598318099975586
1745737787.8166804,0.0005790805444121361,-0.0126336719840765,-0.2826661169528961,0.4269042909145355,-0.8398928642272949,-9.728123664855957
1745737787.8205106,-0.013433529064059258,-0.016185054555535316,-0.28210169076919556,0.5284371972084045,-0.8222220540046692,-9.86799430847168
1745737787.8261774,0.011186905205249786,-0.008306476287543774,-0.2788220942020416,0.3228920102119446,-0.7708213925361633,-9.77966594696045
1745737787.8549564,-0.018595445901155472,-0.017032114788889885,-0.2804822325706482,0.49237924814224243,-0.7385483980178833,-9.667710304260254
1745737787.8581269,0.014658716507256031,-0.014451985247433186,-0.27942609786987305,0.2941679358482361,-0.6167608499526978,-9.868943214416504
1745737787.8607898,-0.004523696377873421,-0.014168490655720234,-0.27664726972579956,0.43776649236679077,-0.7697110176086426,-9.889392852783203
1745737787.863927,0.017806371673941612,-0.01772240176796913,-0.2804641127586365,0.3542894721031189,-0.4771184027194977,-9.647720336914062
1745737787.865968,0.0046448796056210995,-0.012999233789741993,-0.28019705414772034,0.4217175543308258,-0.8950099945068359,-9.692614555358887
1745737787.8988183,0.004712034948170185,-0.019783105701208115,-0.28066933155059814,0.4333015978336334,-0.6910384297370911,-9.780171394348145
1745737787.9024837,0.009271956980228424,-0.013097231276333332,-0.27888670563697815,0.5402771234512329,-0.7409813404083252,-9.642145156860352
1745737787.9046915,0.01599106751382351,-0.017090942710638046,-0.2764480710029602,0.3766586184501648,-0.7161926031112671,-9.750258445739746
1745737787.9082131,0.011198526248335838,-0.012115990743041039,-0.2770349681377411,0.47267764806747437,-0.8797276616096497,-9.857932090759277
1745737787.9381866,0.012016698718070984,-0.012950962409377098,-0.2738657295703888,0.309130996465683,-0.6106107831001282,-9.793488502502441
1745737787.9402106,0.01916135661303997,-0.01012572180479765,-0.27512431144714355,0.378667950630188,-0.8291338086128235,-9.66006851196289
1745737787.9443684,0.005064535886049271,-0.01621430739760399,-0.27614277601242065,0.4254220426082611,-0.48998451232910156,-9.663590431213379
1745737787.9488437,0.02260008081793785,-0.012940327636897564,-0.27876928448677063,0.30334872007369995,-0.8556659817695618,-9.971678733825684
1745737787.9488876,0.014821680262684822,-0.01512010209262371,-0.2772846817970276,0.44645434617996216,-0.6497290730476379,-9.73266315460205
1745737787.9865873,0.013821974396705627,-0.015662478283047676,-0.2800690233707428,0.4030676782131195,-0.7054972648620605,-9.632660865783691
1745737787.9893818,0.011686600744724274,-0.012363928370177746,-0.27893760800361633,0.5623756647109985,-0.9514662623405457,-9.740214347839355
1745737787.9916606,0.009664020501077175,-0.01897551119327545,-0.27577415108680725,0.33801931142807007,-0.599983811378479,-9.802362442016602
1745737787.9946716,0.013079526834189892,-0.010419408790767193,-0.2764614522457123,0.48102253675460815,-1.012990117073059,-9.863717079162598
1745737788.030184,0.007027869112789631,-0.01610315777361393,-0.27410873770713806,0.33641892671585083,-0.5136299133300781,-9.601419448852539
1745737788.0333326,0.023404087871313095,-0.01605302281677723,-0.2747231423854828,0.3435334265232086,-0.7692089080810547,-9.716257095336914
1745737788.0355654,0.006506313569843769,-0.018512267619371414,-0.2769375145435333,0.41694268584251404,-0.554964005947113,-9.827474594116211
1745737788.0397916,0.025507494807243347,-0.013074847869575024,-0.2819180190563202,0.31985336542129517,-0.6743755340576172,-9.79362678527832
1745737788.0689595,0.01748541183769703,-0.01328255981206894,-0.27705100178718567,0.5250645875930786,-0.7993192076683044,-9.568888664245605
1745737788.0719101,0.014274713583290577,-0.017291080206632614,-0.2781175971031189,0.31085291504859924,-0.6835829615592957,-9.669164657592773
1745737788.074168,0.013608096167445183,-0.009897175244987011,-0.27676326036453247,0.5058106184005737,-1.0631084442138672,-9.898614883422852
1745737788.0768993,0.012445417232811451,-0.016388753429055214,-0.2743002772331238,0.328697144985199,-0.4697372317314148,-9.735475540161133
1745737788.0790167,0.014766596257686615,-0.008526192046701908,-0.27576562762260437,0.44489574432373047,-0.9516767263412476,-9.710555076599121
1745737788.1151829,0.006485914345830679,-0.014832216314971447,-0.27612605690956116,0.4055568277835846,-0.8368397951126099,-9.68860912322998
1745737788.1268346,0.009817376732826233,-0.018708134070038795,-0.27408939599990845,0.4903290867805481,-0.681154727935791,-9.76888370513916
1745737788.1282628,0.015148055739700794,-0.014092002995312214,-0.27550995349884033,0.2847645878791809,-0.5606132745742798,-9.826993942260742
1745737788.1282964,0.009878057055175304,-0.013033056631684303,-0.2727165222167969,0.5213671326637268,-0.9483925104141235,-9.737405776977539
1745737788.1578605,0.015303726308047771,-0.02050745114684105,-0.2738468050956726,0.3014281690120697,-0.5404976606369019,-9.648263931274414
1745737788.1625361,0.015051563270390034,-0.015271934680640697,-0.2737944722175598,0.5051358938217163,-1.0199742317199707,-9.825311660766602
1745737788.1655545,0.008633998222649097,-0.02030893787741661,-0.27312788367271423,0.4177030622959137,-0.5422611236572266,-9.76502799987793
1745737788.1681154,0.01598340831696987,-0.014157583005726337,-0.2746295928955078,0.4243115782737732,-0.9352089762687683,-9.708473205566406
1745737788.204231,0.012457117438316345,-0.019205503165721893,-0.27100861072540283,0.49697408080101013,-0.6493278741836548,-9.563582420349121
1745737788.2043154,0.00949137844145298,-0.01647971197962761,-0.2734339237213135,0.3054424226284027,-0.7704035043716431,-9.787489891052246
1745737788.204373,0.0031189818400889635,-0.013731501996517181,-0.2724473476409912,0.5066132545471191,-0.8562636375427246,-9.834240913391113
1745737788.2044683,0.016972821205854416,-0.017826193943619728,-0.27251186966896057,0.23697295784950256,-0.4754865765571594,-9.72224235534668
1745737788.2068143,0.009124641306698322,-0.015793826431035995,-0.27382591366767883,0.48434925079345703,-0.9074029922485352,-9.696296691894531
1745737788.2423162,0.019772512838244438,-0.01940237544476986,-0.27456024289131165,0.4117959439754486,-0.4440039098262787,-9.71484661102295
1745737788.2464807,0.014965752139687538,-0.01856163516640663,-0.27363061904907227,0.4836181104183197,-1.023026704788208,-9.856744766235352
1745737788.251327,-0.005293997935950756,-0.01825782097876072,-0.2736999988555908,0.39559680223464966,-0.8226339221000671,-9.676630973815918
1745737788.2542484,0.005594057030975819,-0.02671564742922783,-0.2756817936897278,0.4400537610054016,-0.6032403111457825,-9.622400283813477
1745737788.2875712,0.008930731564760208,-0.02069440484046936,-0.2759355902671814,0.3678593337535858,-0.7625925540924072,-9.89276123046875
1745737788.295779,-0.0008157016709446907,-0.027854476124048233,-0.2769814729690552,0.4907553195953369,-0.7337301969528198,-9.920243263244629
1745737788.2958891,0.01227487251162529,-0.02172103151679039,-0.27594950795173645,0.30288249254226685,-0.7418048977851868,-9.735640525817871
1745737788.297348,-0.010871189646422863,-0.02531271241605282,-0.2759087383747101,0.48014456033706665,-0.8933932185173035,-9.579550743103027
1745737788.3282237,0.011976414360105991,-0.0244741328060627,-0.2777785658836365,0.3455007076263428,-0.5242806077003479,-9.67186164855957
1745737788.331749,-0.01539815403521061,-0.019706517457962036,-0.27682170271873474,0.4947443902492523,-0.8808714151382446,-9.9140625
1745737788.3368711,0.005598713643848896,-0.026502585038542747,-0.2778443396091461,0.40170663595199585,-0.5772998929023743,-9.799041748046875
1745737788.338162,0.0049943700432777405,-0.020354995504021645,-0.2775525748729706,0.3323825001716614,-0.706041693687439,-9.732818603515625
1745737788.3419218,-0.003934400621801615,-0.0271131694316864,-0.2800666391849518,0.41664332151412964,-0.6822162866592407,-9.727041244506836
1745737788.3729575,0.02158578298985958,-0.017789937555789948,-0.2796782851219177,0.34045177698135376,-0.6101086735725403,-9.807730674743652
1745737788.3762186,-0.008051125332713127,-0.024199098348617554,-0.2784847915172577,0.48225751519203186,-0.8412089347839355,-9.795194625854492
1745737788.379555,0.02229231595993042,-0.02075711265206337,-0.27872827649116516,0.32861950993537903,-0.5806535482406616,-9.676968574523926
1745737788.3824658,-0.007045794278383255,-0.0202181339263916,-0.27969080209732056,0.5315338373184204,-0.9748737215995789,-9.804800033569336
1745737788.4148452,0.01247488148510456,-0.024077177047729492,-0.2781907916069031,0.3510996699333191,-0.553327202796936,-9.825201034545898
1745737788.4173846,-0.0014190295478329062,-0.019045816734433174,-0.27864474058151245,0.4620322287082672,-0.8388234376907349,-9.852161407470703
1745737788.4195454,-0.0007230223855003715,-0.024310791864991188,-0.28016433119773865,0.37329354882240295,-0.6797273755073547,-9.734477996826172
1745737788.422982,0.016426365822553635,-0.01641230098903179,-0.27924013137817383,0.3175169825553894,-0.6292524337768555,-9.658174514770508
1745737788.4605074,-0.009444929659366608,-0.02409493550658226,-0.281461238861084,0.539352297782898,-0.7306098341941833,-9.784825325012207
1745737788.4606214,0.022753190249204636,-0.01712210103869438,-0.2802116274833679,0.31885480880737305,-0.6002780199050903,-9.854978561401367
1745737788.4610384,-0.0036852930206805468,-0.019074048846960068,-0.2810617983341217,0.4439345896244049,-0.7494209408760071,-9.755620956420898
1745737788.4621484,-0.002834560815244913,-0.021308522671461105,-0.279714971780777,0.4869653582572937,-0.7220042943954468,-9.806963920593262
1745737788.4662027,0.027205457910895348,-0.01580590382218361,-0.2814421057701111,0.31658390164375305,-0.5749943256378174,-9.86706256866455
1745737788.500758,0.013726510107517242,-0.017469195649027824,-0.2827562689781189,0.4335564076900482,-0.7193080186843872,-9.727445602416992
1745737788.5016835,0.017144663259387016,-0.024091670289635658,-0.28462621569633484,0.3896300196647644,-0.6178354620933533,-9.725483894348145
1745737788.5043633,0.028140593320131302,-0.015835825353860855,-0.2825942933559418,0.44885721802711487,-0.8102561831474304,-9.940530776977539
1745737788.5059438,0.010389192029833794,-0.02220766618847847,-0.2816345989704132,0.4222221374511719,-0.7137480974197388,-9.81633472442627
1745737788.5439856,0.031247982755303383,-0.013109033927321434,-0.2804567217826843,0.3524302542209625,-0.7698955535888672,-9.617157936096191
1745737788.54563,0.004811552353203297,-0.022143248468637466,-0.2808208763599396,0.5086866617202759,-0.7933222651481628,-9.696969985961914
1745737788.5478997,0.030936863273382187,-0.019949620589613914,-0.28138113021850586,0.35701704025268555,-0.6118859052658081,-9.938591003417969
1745737788.5592294,0.0035765706561505795,-0.01719512604176998,-0.2817651629447937,0.5049483180046082,-0.7421430945396423,-9.913934707641602
1745737788.5592897,0.023646894842386246,-0.020790593698620796,-0.2836149036884308,0.2807391285896301,-0.6914116740226746,-9.690075874328613
1745737788.5883038,0.021355774253606796,-0.016545869410037994,-0.28315672278404236,0.4114234447479248,-0.7678437232971191,-9.622048377990723
1745737788.594267,0.00558088906109333,-0.023936515673995018,-0.2816663086414337,0.4469253122806549,-0.6294593811035156,-9.851335525512695
1745737788.5953739,0.030443469062447548,-0.013015535660088062,-0.28156983852386475,0.37544137239456177,-0.8241898417472839,-9.875814437866211
1745737788.6001186,0.018892142921686172,-0.016084866598248482,-0.2832998037338257,0.3902510702610016,-0.4964830279350281,-9.738039016723633
1745737788.6311936,0.03373866155743599,-0.011461501009762287,-0.28310853242874146,0.4712371826171875,-0.9856346845626831,-9.821844100952148
1745737788.6362672,0.024329978972673416,-0.019738677889108658,-0.28257840871810913,0.3885604739189148,-0.5267480611801147,-9.704286575317383
1745737788.6385512,0.03178113326430321,-0.014170179143548012,-0.28257668018341064,0.3565961718559265,-0.9360958337783813,-9.795491218566895
1745737788.642474,0.025104809552431107,-0.016383813694119453,-0.28091591596603394,0.4570038318634033,-0.6299324631690979,-9.717193603515625
1745737788.6754344,0.03690468519926071,-0.014562888070940971,-0.2802584767341614,0.3019280433654785,-0.6674535870552063,-9.714025497436523
1745737788.6775815,0.028122344985604286,-0.01448859553784132,-0.2800981104373932,0.5249651670455933,-0.7628763914108276,-9.673330307006836
1745737788.6801424,0.03381534665822983,-0.019077911972999573,-0.2812120020389557,0.34816938638687134,-0.6572333574295044,-9.807656288146973
1745737788.681186,0.03447337821125984,-0.01424513477832079,-0.2811013460159302,0.44876694679260254,-0.9455770254135132,-9.807892799377441
1745737788.7145216,0.022099804133176804,-0.017358243465423584,-0.2795812487602234,0.35569649934768677,-0.5782277584075928,-9.70042610168457
1745737788.7238014,0.032016266137361526,-0.015088951215147972,-0.27923306822776794,0.33859896659851074,-1.0228804349899292,-9.702088356018066
1745737788.7238595,0.026450181379914284,-0.016241664066910744,-0.277871698141098,0.46684011816978455,-0.5633015632629395,-9.584684371948242
1745737788.726206,0.024779725819826126,-0.015707841143012047,-0.2828651964664459,0.42944321036338806,-0.773113489151001,-9.865357398986816
1745737788.729813,0.027561655268073082,-0.01144311111420393,-0.28110766410827637,0.5024164915084839,-0.8281997442245483,-9.802229881286621
1745737788.75836,0.028489764779806137,-0.01562657579779625,-0.2812429964542389,0.2636442184448242,-0.5887994766235352,-9.620208740234375
1745737788.760508,0.020626910030841827,-0.012678006663918495,-0.2783258557319641,0.48983854055404663,-1.072407841682434,-9.711801528930664
1745737788.762923,0.021835502237081528,-0.018168481066823006,-0.277993381023407,0.31522229313850403,-0.5313794612884521,-9.751753807067871
1745737788.7660172,0.028623437508940697,-0.01078240480273962,-0.2793792188167572,0.41848915815353394,-0.9158138036727905,-9.810351371765137
1745737788.8014424,0.012555438093841076,-0.01946776546537876,-0.280589759349823,0.47912415862083435,-0.618756890296936,-9.648327827453613
1745737788.8050277,0.02599548175930977,-0.016073348000645638,-0.2792072892189026,0.38603049516677856,-0.9045187830924988,-9.763565063476562
1745737788.808231,0.016972225159406662,-0.018087564036250114,-0.2802763283252716,0.5365311503410339,-0.7605639696121216,-9.753772735595703
1745737788.816572,0.016417911276221275,-0.010445061139762402,-0.2754797339439392,0.45145440101623535,-0.9194849729537964,-9.810785293579102
1745737788.8439593,0.021258972585201263,-0.01454987097531557,-0.27409473061561584,0.276395320892334,-0.504231333732605,-9.487561225891113
1745737788.84709,0.015674835070967674,-0.013938425108790398,-0.27711111307144165,0.4712318778038025,-0.9896626472473145,-9.680493354797363
1745737788.84879,0.025885865092277527,-0.01914706453680992,-0.27724137902259827,0.3429015278816223,-0.3776547908782959,-9.86832332611084
1745737788.8602371,0.021354572847485542,-0.009412376210093498,-0.28130683302879333,0.47526854276657104,-0.9273892641067505,-9.924349784851074
1745737788.8602843,0.023172838613390923,-0.013612553477287292,-0.2790093719959259,0.4416508674621582,-0.7301125526428223,-9.505401611328125
1745737788.891207,0.020354408770799637,-0.015222743153572083,-0.27772027254104614,0.3291530907154083,-0.8482087850570679,-9.613581657409668
1745737788.8926208,0.01403798721730709,-0.016010506078600883,-0.27579501271247864,0.5361871719360352,-0.9238929748535156,-9.92668342590332
1745737788.8956566,0.022339098155498505,-0.010995684191584587,-0.27533018589019775,0.29997754096984863,-0.5883274078369141,-9.87653923034668
1745737788.8995006,0.01593841053545475,-0.01658937707543373,-0.27711617946624756,0.5400922298431396,-0.9570989608764648,-9.619345664978027
1745737788.9308531,0.015799127519130707,-0.02227521874010563,-0.2762109637260437,0.3569907546043396,-0.5037980079650879,-9.608200073242188
1745737788.9326215,0.012490421533584595,-0.017071571201086044,-0.27745628356933594,0.45201635360717773,-1.0326498746871948,-9.964529037475586
1745737788.9351535,0.018869375810027122,-0.01875569298863411,-0.27784600853919983,0.39575156569480896,-0.6124097108840942,-9.759058952331543
1745737788.9402156,0.008539048954844475,-0.012466192245483398,-0.2780608534812927,0.2919042110443115,-0.9000112414360046,-9.51523208618164
1745737788.97128,0.004700710531324148,-0.021057313308119774,-0.27503350377082825,0.5160642862319946,-0.8810375332832336,-9.600334167480469
1745737788.9768655,0.0013344453182071447,-0.021857038140296936,-0.2685096859931946,0.35061219334602356,-0.6041946411132812,-9.526443481445312
1745737788.9806888,0.000158270078827627,-0.018069282174110413,-0.26720893383026123,0.40008097887039185,-0.9750989079475403,-9.716952323913574
1745737788.9856021,-0.0009797990787774324,-0.022177521139383316,-0.26865342259407043,0.43252602219581604,-0.5529245734214783,-9.829957962036133
1745737788.9907982,-0.00581319211050868,-0.01523750089108944,-0.26880019903182983,0.27449658513069153,-0.8116111755371094,-9.896652221679688
1745737789.0192351,0.005426728166639805,-0.020983507856726646,-0.2676061987876892,0.4702606201171875,-0.7458549737930298,-9.623059272766113
1745737789.0213764,0.002376881893724203,-0.023442015051841736,-0.2694207727909088,0.3079923391342163,-0.5149758458137512,-9.661519050598145
1745737789.0259228,0.0005838669603690505,-0.017532041296362877,-0.26818856596946716,0.4658620357513428,-1.0400729179382324,-9.942057609558105
1745737789.0290897,0.011597822420299053,-0.01729651167988777,-0.26855507493019104,0.2758598327636719,-0.40719670057296753,-9.700368881225586
1745737789.0614145,0.00497586652636528,-0.013896348886191845,-0.2670150399208069,0.4438948631286621,-0.9945643544197083,-9.683967590332031
1745737789.0629647,0.006708674132823944,-0.022859636694192886,-0.2666042149066925,0.39217790961265564,-0.48422831296920776,-9.698792457580566
1745737789.0653422,0.01542775146663189,-0.01674872450530529,-0.266665518283844,0.3720927834510803,-0.8833280801773071,-9.992727279663086
1745737789.0677152,-0.00022759567946195602,-0.021334540098905563,-0.268638551235199,0.45533615350723267,-0.7531760334968567,-9.832265853881836
1745737789.070571,0.008591854944825172,-0.01759369857609272,-0.26736029982566833,0.3054797351360321,-0.7303106188774109,-9.624068260192871
1745737789.1097453,0.003479608101770282,-0.01915602758526802,-0.26693451404571533,0.5531235933303833,-0.8428796529769897,-9.56308650970459
1745737789.1098754,0.0017460137605667114,-0.01606997288763523,-0.26706209778785706,0.3362833261489868,-0.49694162607192993,-9.865287780761719
1745737789.111961,0.016902269795536995,-0.011889373883605003,-0.26889628171920776,0.5103060007095337,-0.9900988340377808,-9.98316764831543
1745737789.1172237,0.013118145987391472,-0.02021665871143341,-0.2677733898162842,0.32113999128341675,-0.3240179419517517,-9.579950332641602
1745737789.1607304,0.018013888970017433,-0.0118344621732831,-0.26952940225601196,0.34212738275527954,-0.9656999707221985,-9.725946426391602
1745737789.160839,0.022009452804923058,-0.015439728274941444,-0.2678115665912628,0.3793111741542816,-0.4904536306858063,-9.711455345153809
1745737789.1609046,0.021943017840385437,-0.013694288209080696,-0.2720354497432709,0.39073991775512695,-0.8344026803970337,-9.830842971801758
1745737789.1609619,0.013704860582947731,-0.013471056707203388,-0.2702255845069885,0.5177920460700989,-0.8283997774124146,-9.747787475585938
1745737789.1883636,0.022953489795327187,-0.011580513790249825,-0.2696565091609955,0.5061130523681641,-0.846889853477478,-9.7424898147583
1745737789.1922095,0.018161902204155922,-0.017565447837114334,-0.27036628127098083,0.3066316246986389,-0.6022319793701172,-9.704099655151367
1745737789.1966102,0.01777968928217888,-0.011505876667797565,-0.2680354118347168,0.5298166275024414,-0.9506765604019165,-9.79084300994873
1745737789.1995935,0.007731263525784016,-0.015224160626530647,-0.2704847753047943,0.45442914962768555,-0.644892692565918,-9.732526779174805
1745737789.2037375,0.016475871205329895,-0.00976654514670372,-0.2698978781700134,0.4078093469142914,-0.9906390309333801,-9.835408210754395
1745737789.2307694,-0.0038525026757270098,-0.01794060319662094,-0.2691430449485779,0.49391207098960876,-0.6051193475723267,-9.69399642944336
1745737789.2337685,0.0032448242418468,-0.011803824454545975,-0.2700332999229431,0.28119343519210815,-0.902751088142395,-9.885902404785156
1745737789.2348876,0.00865991972386837,-0.013343097642064095,-0.2698153853416443,0.4214548170566559,-0.7328640818595886,-9.740468978881836
1745737789.2359245,0.004703999496996403,-0.014961588196456432,-0.270230233669281,0.32786792516708374,-0.5222216844558716,-9.6535062789917
1745737789.2758338,0.010953468270599842,-0.009186889044940472,-0.26865118741989136,0.5016442537307739,-0.9486016035079956,-9.756184577941895
1745737789.2769015,0.011912642046809196,-0.014603395946323872,-0.2694503366947174,0.3156585395336151,-0.416475385427475,-9.74356746673584
1745737789.2790594,0.019118594005703926,-0.0091189444065094,-0.2716340124607086,0.46809911727905273,-1.0250673294067383,-9.900800704956055
1745737789.2827916,0.008715124800801277,-0.014518181793391705,-0.2678758203983307,0.41607174277305603,-0.5405930280685425,-9.697600364685059
1745737789.318084,0.019770916551351547,-0.012609106488525867,-0.2675608992576599,0.3798965513706207,-0.9149776697158813,-9.801714897155762
1745737789.320787,-0.0032941356766968966,-0.014665121212601662,-0.2692497670650482,0.49810582399368286,-0.7599309682846069,-9.769644737243652
1745737789.3222368,-0.005261295475065708,-0.024366697296500206,-0.2543754577636719,0.3222590684890747,-0.7638909220695496,-10.011774063110352
1745737789.32482,-0.018354052677750587,-0.021004507318139076,-0.2545102834701538,0.28158172965049744,-0.4645867943763733,-9.555184364318848
1745737789.3331833,-0.0017292939592152834,-0.02387142926454544,-0.25268712639808655,0.2975476384162903,-0.7560790181159973,-9.546453475952148
1745737789.3619258,-0.004868221934884787,-0.031241819262504578,-0.25459855794906616,0.3748776316642761,-0.5097801685333252,-9.791364669799805
1745737789.3659751,0.008645747788250446,-0.01979675143957138,-0.25166642665863037,0.20319430530071259,-0.7269274592399597,-10.025162696838379
1745737789.368958,-0.00044106002314947546,-0.0220965389162302,-0.25255879759788513,0.419527143239975,-0.8137438893318176,-9.614585876464844
1745737789.3711202,-0.0013414809945970774,-0.02564668282866478,-0.2508389949798584,0.32542917132377625,-0.6127420663833618,-9.494595527648926
1745737789.4046822,-0.014639029279351234,-0.02785438671708107,-0.2512338161468506,0.49330759048461914,-0.8765153884887695,-9.99167537689209
1745737789.4123669,-0.0011618033749982715,-0.02749764546751976,-0.2518567442893982,0.3433580994606018,-0.6047588586807251,-10.011590003967285
1745737789.4127433,-0.006211819127202034,-0.018521955236792564,-0.2501840889453888,0.3105025589466095,-0.8644407987594604,-9.565683364868164
1745737789.4128003,-0.014412714168429375,-0.03232206031680107,-0.2503175437450409,0.3764227330684662,-0.5817756056785583,-9.397150039672852
1745737789.4128594,-0.00784965418279171,-0.027186069637537003,-0.24931851029396057,0.2804318964481354,-0.6940074563026428,-9.963815689086914
1745737789.4489322,-0.011715440079569817,-0.0228879451751709,-0.25038135051727295,0.31746619939804077,-0.6366835832595825,-10.078611373901367
1745737789.4505763,0.009949810802936554,-0.024841584265232086,-0.24878482520580292,0.267086923122406,-0.5602813363075256,-9.566164016723633
1745737789.4544284,-0.004197097849100828,-0.028152521699666977,-0.24889545142650604,0.43938979506492615,-0.7216004133224487,-9.478487968444824
1745737789.4552479,0.001283510704524815,-0.03025973215699196,-0.25022417306900024,0.27887457609176636,-0.6385688185691833,-9.970047950744629
1745737789.492978,0.00482817180454731,-0.022372791543602943,-0.24805454909801483,0.39322105050086975,-0.8617057800292969,-10.006391525268555
1745737789.497409,-0.010750300250947475,-0.025395631790161133,-0.24709546566009521,0.32099559903144836,-0.7003134489059448,-9.571798324584961
1745737789.5004544,-0.0021985331550240517,-0.027834361419081688,-0.2456974983215332,0.33048152923583984,-0.8281137347221375,-9.555329322814941
1745737789.5028584,-0.020927980542182922,-0.03238736465573311,-0.2483239471912384,0.4396737515926361,-0.5669392943382263,-9.91884708404541
1745737789.532583,-0.014013630338013172,-0.0301058329641819,-0.2394305169582367,0.3951815366744995,-0.9563296437263489,-9.639497756958008
1745737789.5355895,-0.0033214055001735687,-0.02780459262430668,-0.24039742350578308,0.3034811317920685,-0.450350821018219,-9.862897872924805
1745737789.5374837,-0.0191851444542408,-0.023424364626407623,-0.23991148173809052,0.35092756152153015,-0.9138190150260925,-9.946691513061523
1745737789.5387144,-0.012798065319657326,-0.029617274180054665,-0.2396232783794403,0.3509482741355896,-0.5581925511360168,-9.62937068939209
1745737789.5776174,-0.0016799394506961107,-0.024833623319864273,-0.23525695502758026,0.20083069801330566,-0.6939944624900818,-9.714051246643066
1745737789.5803723,-0.017743941396474838,-0.028193607926368713,-0.23570945858955383,0.3472709357738495,-0.6518846750259399,-9.859525680541992
1745737789.5825076,0.011305770836770535,-0.0213153138756752,-0.2334168404340744,0.1354084610939026,-0.4836995005607605,-9.79002571105957
1745737789.5856907,-0.0076712691225111485,-0.026196390390396118,-0.23602361977100372,0.3246052861213684,-0.7310899496078491,-9.622193336486816
1745737789.6173365,0.01273064874112606,-0.027308374643325806,-0.2355806827545166,0.23953095078468323,-0.41312962770462036,-9.719156265258789
1745737789.620575,-0.002094937488436699,-0.023571670055389404,-0.23452754318714142,0.3485690951347351,-0.9132376909255981,-10.004549980163574
1745737789.6233976,0.001017858972772956,-0.027610361576080322,-0.2350071221590042,0.3261460065841675,-0.5903018712997437,-9.791139602661133
1745737789.6245277,-0.007512284908443689,-0.023437682539224625,-0.23136723041534424,0.2986903190612793,-0.9467675089836121,-9.693124771118164
1745737789.6278133,-0.019669342786073685,-0.02976742759346962,-0.2312958985567093,0.3937409818172455,-0.7232386469841003,-9.674084663391113
1745737789.6649559,-0.006733895745128393,-0.02164299227297306,-0.23162293434143066,0.22985418140888214,-0.5794442892074585,-9.837053298950195
1745737789.6650107,-0.03159709274768829,-0.02651052549481392,-0.22994288802146912,0.3540915548801422,-0.7908220291137695,-9.818513870239258
1745737789.6690009,-0.007241298444569111,-0.009041905403137207,-0.2219819575548172,0.3686681389808655,-0.6464515924453735,-9.918405532836914
1745737789.6766286,0.00046021584421396255,-0.013386105187237263,-0.22189882397651672,0.3349458873271942,-0.5645774602890015,-9.878839492797852
1745737789.7060862,0.02203153818845749,-0.009831385686993599,-0.2254725694656372,0.216169074177742,-0.44092947244644165,-9.599342346191406
1745737789.7094355,-0.009924455545842648,-0.014843804761767387,-0.2277134358882904,0.4239477217197418,-0.7378038763999939,-9.668783187866211
1745737789.7143867,0.019200939685106277,-0.010129640810191631,-0.2257806360721588,0.2727988660335541,-0.4720936715602875,-9.860997200012207
1745737789.718108,-0.009974227286875248,-0.010243942961096764,-0.22911886870861053,0.467991441488266,-0.9616103172302246,-9.899681091308594
1745737789.7501934,0.006940012332051992,-0.008682074956595898,-0.2246423214673996,0.24930164217948914,-0.4664956033229828,-9.640759468078613
1745737789.7536898,-0.0066619799472391605,-0.006711458321660757,-0.22586794197559357,0.40857046842575073,-0.8962664604187012,-9.722757339477539
1745737789.756991,-0.003654432948678732,-0.013134444132447243,-0.22308489680290222,0.3823588490486145,-0.4804306924343109,-9.805281639099121
1745737789.75874,-0.003611533436924219,-0.004774127155542374,-0.22667694091796875,0.2907814681529999,-0.577951192855835,-9.931032180786133
1745737789.7911522,-0.0010028723627328873,-0.00975673459470272,-0.22597484290599823,0.3675309717655182,-0.5995422005653381,-9.685054779052734
1745737789.7943225,0.014392444863915443,-0.003823597449809313,-0.22817258536815643,0.17071494460105896,-0.42378178238868713,-9.577423095703125
1745737789.7971828,-0.007948162034153938,-0.007713262923061848,-0.2273620069026947,0.47362518310546875,-0.7256518602371216,-9.799904823303223
1745737789.7985,0.020995069295167923,-0.007085768040269613,-0.22536340355873108,0.24372133612632751,-0.5186298489570618,-9.886693954467773
1745737789.8018398,0.008170071989297867,-0.001398290740326047,-0.2248227298259735,0.2635120153427124,-0.7459211349487305,-9.768659591674805
1745737789.8415914,0.015313876792788506,-0.0060149310156702995,-0.222883939743042,0.311079204082489,-0.5631739497184753,-9.535196304321289
1745737789.8416493,0.00992175005376339,-0.00453555304557085,-0.2226584255695343,0.2511875033378601,-0.6990261077880859,-9.834531784057617
1745737789.841724,-0.003929416183382273,-0.010349650867283344,-0.22096499800682068,0.292376846075058,-0.6801964044570923,-9.943780899047852
1745737789.8441937,0.01284746639430523,-0.002294525969773531,-0.22177109122276306,0.1387113779783249,-0.6136649250984192,-9.70659065246582
1745737789.87902,-0.014309016987681389,-0.008656970225274563,-0.22293493151664734,0.32620543241500854,-0.7261720299720764,-9.573583602905273
1745737789.8817904,-0.008913597092032433,-0.004510761238634586,-0.21256494522094727,0.3266880214214325,-0.8305482864379883,-9.83092975616455
1745737789.8854842,-0.008291822858154774,-0.010902496054768562,-0.21233102679252625,0.3316827714443207,-0.5488836765289307,-9.42879581451416
1745737789.8883684,-0.004505257122218609,-0.009431140497326851,-0.2105797827243805,0.3492927551269531,-0.7308374643325806,-9.70634651184082
1745737789.9224293,-0.019135715439915657,-0.01591947302222252,-0.20918230712413788,0.35503751039505005,-0.6396582722663879,-10.058357238769531
1745737789.9344816,0.008278094232082367,-0.004656886216253042,-0.21136963367462158,0.1930239200592041,-0.42400074005126953,-9.84232234954834
1745737789.934525,-0.02090773731470108,-0.010067442432045937,-0.2093123495578766,0.35087984800338745,-0.6875737905502319,-9.483039855957031
1745737789.9345613,0.019292589277029037,-0.012140437960624695,-0.21287468075752258,0.2607444226741791,-0.28460225462913513,-9.545595169067383
1745737789.9351017,-0.0067633213475346565,-0.008882513269782066,-0.21268793940544128,0.5023243427276611,-0.7563000917434692,-10.029479026794434
1745737789.9654467,0.018875282257795334,-0.01096220500767231,-0.21324527263641357,0.3141029477119446,-0.46605825424194336,-9.89819622039795
1745737789.967354,-0.00020575811504386365,-0.0025225926656275988,-0.21230781078338623,0.38406795263290405,-0.759053111076355,-9.555471420288086
1745737789.9674802,0.0003842180594801903,-0.012502074241638184,-0.2132275104522705,0.35613569617271423,-0.6376511454582214,-9.589960098266602
1745737789.9688625,0.009290846064686775,-0.006634657736867666,-0.2126895934343338,0.3391931653022766,-0.5646167397499084,-9.90645980834961
1745737790.0078192,-0.010208208113908768,-0.007263862527906895,-0.21257391571998596,0.48469987511634827,-0.6022927761077881,-9.960733413696289
1745737790.0102422,0.01581566035747528,-0.005553722847253084,-0.2151452749967575,0.17334918677806854,-0.39133158326148987,-9.640559196472168
1745737790.0130222,-0.0056225210428237915,-0.008692254312336445,-0.21690168976783752,0.3854984641075134,-0.7023230791091919,-9.509900093078613
1745737790.0152683,0.012452338822185993,-0.01001784112304449,-0.21708150207996368,0.2841213345527649,-0.4610346853733063,-9.781932830810547
1745737790.0473337,0.00553957000374794,-0.011163090355694294,-0.2082972526550293,0.16824188828468323,-0.34720444679260254,-9.531509399414062
1745737790.0493753,0.007622524164617062,-0.009639592841267586,-0.2092462033033371,0.294184148311615,-0.7490159273147583,-10.023818969726562
1745737790.0505142,0.006907437928020954,-0.0108614731580019,-0.21029511094093323,0.3806214928627014,-0.38044023513793945,-9.965002059936523
1745737790.0524826,0.009983187541365623,-0.011803209781646729,-0.2088409960269928,0.15859857201576233,-0.7408342957496643,-9.748250007629395
1745737790.054138,0.007123610470443964,-0.011178126558661461,-0.20474684238433838,0.34391623735427856,-0.7352044582366943,-9.481128692626953
1745737790.1001277,0.0002941343991551548,-0.014763899147510529,-0.19934840500354767,0.24738168716430664,-0.65004962682724,-9.79931354522705
1745737790.1002378,0.007668524980545044,-0.009762169793248177,-0.19910892844200134,0.35093075037002563,-0.7374093532562256,-9.970296859741211
1745737790.1044939,0.002112905029207468,-0.013460032641887665,-0.19898685812950134,0.2576487064361572,-0.27812615036964417,-9.693446159362793
1745737790.107119,0.019938651472330093,-0.00946754403412342,-0.19844619929790497,0.2060510665178299,-0.747002899646759,-9.68351936340332
1745737790.1340797,0.0044911946170032024,-0.01798899844288826,-0.2021181881427765,0.3134323060512543,-0.28545159101486206,-9.748867988586426
1745737790.136125,0.009832935407757759,-0.0104723135009408,-0.20083563029766083,0.1823684275150299,-0.78639817237854,-10.068037033081055
1745737790.138331,0.005342300049960613,-0.0130221052095294,-0.20066606998443604,0.28148791193962097,-0.6318408250808716,-9.627562522888184
1745737790.1397622,0.0027560326270759106,-0.011279692873358727,-0.19871050119400024,0.21735267341136932,-0.6765792369842529,-9.4630765914917
1745737790.141896,-0.004422563593834639,-0.015176731161773205,-0.1940956860780716,0.4114479422569275,-0.8491891622543335,-9.812623977661133
1745737790.1829321,-0.0029624400194734335,-0.017110101878643036,-0.19338533282279968,0.25338757038116455,-0.47834864258766174,-10.088409423828125
1745737790.1869617,-0.0018693689489737153,-0.009505162946879864,-0.19296658039093018,0.30717653036117554,-0.7008787393569946,-9.881868362426758
1745737790.1893282,-0.006870778743177652,-0.01872270181775093,-0.19316470623016357,0.25051820278167725,-0.4444213807582855,-9.460728645324707
1745737790.1920056,0.009154881350696087,-0.01598874107003212,-0.19333551824092865,0.2279789000749588,-0.523310661315918,-9.65833854675293
1745737790.2234676,-0.010406087152659893,-0.017116546630859375,-0.19518956542015076,0.3326804041862488,-0.5925230979919434,-9.97536849975586
1745737790.225771,0.017918534576892853,-0.013721141032874584,-0.19242918491363525,0.19785064458847046,-0.6311599612236023,-9.853130340576172
1745737790.2369287,-0.004896035883575678,-0.009019529446959496,-0.18503504991531372,0.3754803538322449,-0.6530061960220337,-9.900884628295898
1745737790.2370052,-0.01607188954949379,-0.015019766986370087,-0.18454287946224213,0.3568432033061981,-0.40537482500076294,-9.663703918457031
1745737790.2652621,0.011376774869859219,-0.0198535043746233,-0.18601246178150177,0.24850547313690186,-0.47723817825317383,-9.715484619140625
1745737790.269094,-0.012958206236362457,-0.020304471254348755,-0.18699271976947784,0.4225217401981354,-0.3379243314266205,-9.887208938598633
1745737790.2721047,0.014031524769961834,-0.01143987849354744,-0.1906060427427292,0.17951883375644684,-0.4769386649131775,-9.974221229553223
1745737790.273997,0.006984957959502935,-0.01770809479057789,-0.18935953080654144,0.24000167846679688,-0.5131492614746094,-9.568467140197754
1745737790.276217,0.010830951854586601,-0.018505701795220375,-0.19010695815086365,0.288277804851532,-0.5254424810409546,-9.552047729492188
1745737790.308453,0.014584885910153389,-0.014198173768818378,-0.18797385692596436,0.4175354838371277,-0.7436288595199585,-9.986412048339844
1745737790.3105483,0.000856553204357624,-0.020189154893159866,-0.18509694933891296,0.31369009613990784,-0.6437084674835205,-10.02825927734375
1745737790.312827,0.015432177111506462,-0.010177360847592354,-0.1818852722644806,0.1609523594379425,-0.7925492525100708,-9.650168418884277
1745737790.314325,-0.014272471889853477,-0.015786003321409225,-0.17732331156730652,0.271182119846344,-0.8174627423286438,-9.431325912475586
1745737790.3516934,-0.00802207924425602,-0.022458571940660477,-0.17442582547664642,0.07437257468700409,-0.7565901875495911,-9.93054485321045
1745737790.3546531,-0.04226962476968765,-0.012275336310267448,-0.1743468940258026,0.16504569351673126,-0.7765361666679382,-10.139726638793945
1745737790.3571527,-0.01932147517800331,-0.014064538292586803,-0.17425484955310822,0.03098185732960701,-0.42768269777297974,-9.528074264526367
1745737790.359011,-0.049563366919755936,-0.018736576661467552,-0.17508983612060547,0.2906772196292877,-0.6072315573692322,-9.393658638000488
1745737790.405477,-0.0354318842291832,-0.024627039209008217,-0.17316292226314545,0.3230006694793701,-0.3766424059867859,-10.022462844848633
1745737790.4056292,-0.03055218979716301,-0.020824873819947243,-0.1351671665906906,0.1804303377866745,-0.42796507477760315,-9.935917854309082
1745737790.4057415,-0.01274220459163189,-0.021383050829172134,-0.13311496376991272,0.1501828134059906,-0.6074800491333008,-9.832220077514648
1745737790.4059913,-0.02680535987019539,-0.024500418454408646,-0.1355745941400528,0.3701699376106262,-0.5033395290374756,-9.604734420776367
1745737790.4083478,-0.020143426954746246,-0.02100890874862671,-0.13200166821479797,0.14337430894374847,-0.6146136522293091,-9.850373268127441
1745737790.4401133,-0.031233996152877808,-0.022769929841160774,-0.1289616972208023,0.317200630903244,-0.6356108784675598,-9.902255058288574
1745737790.4433162,-0.03185172751545906,-0.02340739034116268,-0.12877658009529114,0.153398796916008,-0.5345204472541809,-9.757791519165039
1745737790.4463127,-0.028729597106575966,-0.013924790546298027,-0.12452016025781631,0.2215689718723297,-0.6568365097045898,-9.590167045593262
1745737790.4494317,-0.04273397475481033,-0.021383915096521378,-0.12660212814807892,0.1757826805114746,-0.2480911761522293,-9.687423706054688
1745737790.4801447,-0.02730628289282322,-0.019696112722158432,-0.12781193852424622,0.15667057037353516,-0.5362229943275452,-9.971281051635742
1745737790.4817069,-0.03839011862874031,-0.01912427879869938,-0.125827819108963,0.30464211106300354,-0.2972470223903656,-9.758672714233398
1745737790.4838233,-0.024777427315711975,-0.015385948121547699,-0.1307593137025833,0.11885981261730194,-0.4471600651741028,-9.737975120544434
1745737790.486777,-0.04104016721248627,-0.024324338883161545,-0.12508085370063782,0.2554646134376526,-0.6714283227920532,-9.773538589477539
1745737790.5237305,-0.023053240031003952,-0.01594548113644123,-0.12342753261327744,0.18475213646888733,-0.3742249011993408,-9.747859001159668
1745737790.528383,-0.036912959069013596,-0.012087935581803322,-0.11992517858743668,0.28583040833473206,-0.680106520652771,-9.850577354431152
1745737790.530676,-0.028735142201185226,-0.023953156545758247,-0.11976244300603867,0.14570972323417664,-0.2912115454673767,-9.758798599243164
1745737790.532788,-0.0268673337996006,-0.015124055556952953,-0.11897015571594238,0.28442031145095825,-0.566656768321991,-9.768119812011719
1745737790.5350633,-0.028491396456956863,-0.01614570990204811,-0.12061496078968048,0.26232582330703735,-0.3377954065799713,-9.812677383422852
1745737790.5684621,-0.02426910772919655,-0.013110004365444183,-0.11998023837804794,0.06611764430999756,-0.5101550817489624,-9.878384590148926
1745737790.5705202,-0.04581507667899132,-0.01978212594985962,-0.11833305656909943,0.35821956396102905,-0.6198379397392273,-9.713923454284668
1745737790.5749173,-0.032444119453430176,-0.0008092972566373646,-0.10532841831445694,0.19322757422924042,-0.6661624312400818,-9.812381744384766
1745737790.6093037,-0.04629456624388695,-0.010363643988966942,-0.10642559826374054,0.2784993350505829,-0.4147513806819916,-9.742111206054688
1745737790.61302,-0.035853393375873566,-0.00576425576582551,-0.10450705140829086,0.1320175677537918,-0.5308115482330322,-9.828117370605469
1745737790.6165903,-0.04792630299925804,-0.00334896775893867,-0.103764608502388,0.3148476779460907,-0.40842103958129883,-9.700244903564453
1745737790.6217828,-0.03831668943166733,-0.005680386908352375,-0.10554443299770355,0.09489116817712784,-0.27544277906417847,-9.771042823791504
1745737790.6240745,-0.04373741149902344,-0.00845357310026884,-0.10366648435592651,0.3189348578453064,-0.5409024953842163,-9.836631774902344
1745737790.6536298,-0.039933376014232635,-0.003742960747331381,-0.10618291050195694,0.20307227969169617,-0.2586984932422638,-9.745783805847168
1745737790.6574025,-0.0418228954076767,-0.001077145105227828,-0.10298682749271393,0.25560688972473145,-0.6127444505691528,-9.822012901306152
1745737790.665485,-0.04298527538776398,-0.006219064351171255,-0.10242573916912079,0.22389337420463562,-0.3609488606452942,-9.690878868103027
1745737790.6666877,-0.030119454488158226,0.0005067716119810939,-0.09957565367221832,0.1923326700925827,-0.4797742962837219,-9.756736755371094
1745737790.6988618,-0.05005763843655586,-0.002121738623827696,-0.10023057460784912,0.29596853256225586,-0.3188677430152893,-9.74856948852539
1745737790.7002277,-0.028690064325928688,-1.6104615497170016e-05,-0.10165196657180786,0.17873871326446533,-0.3250402510166168,-9.789637565612793
1745737790.703509,-0.04864328354597092,-0.0004184809513390064,-0.10030585527420044,0.2969866096973419,-0.4679906964302063,-9.779850959777832
1745737790.7068288,-0.026734715327620506,-0.0013823510380461812,-0.1025499552488327,0.16778318583965302,-0.21044811606407166,-9.78532886505127
1745737790.7091503,-0.039618439972400665,0.005045149940997362,-0.09947517514228821,0.20391353964805603,-0.6110551953315735,-9.82888412475586
1745737790.7416434,-0.039894212037324905,-0.0011970937484875321,-0.09912111610174179,0.1750653237104416,-0.25912410020828247,-9.651180267333984
1745737790.7459474,-0.041102465242147446,0.0068038045428693295,-0.09991612285375595,0.26179200410842896,-0.4843561053276062,-9.996138572692871
1745737790.7480452,-0.054818324744701385,0.00849185697734356,-0.10212638229131699,0.27241554856300354,-0.1258721798658371,-9.576281547546387
1745737790.749115,-0.03307334706187248,0.004968782886862755,-0.10176338255405426,0.2617979347705841,-0.2098686397075653,-9.607297897338867
1745737790.7845,-0.042535774409770966,0.002132181543856859,-0.10377174615859985,0.41304534673690796,-0.24805781245231628,-9.949745178222656
1745737790.7878768,-0.015842262655496597,0.008625760674476624,-0.10465367883443832,0.12404513359069824,-0.023382967337965965,-9.95561695098877
1745737790.7920027,-0.031931038945913315,0.010676002129912376,-0.10620000213384628,0.4010208249092102,-0.3724246025085449,-9.619755744934082
1745737790.7935958,-0.01122288592159748,0.002492661355063319,-0.10526834428310394,0.20620043575763702,-0.10164040327072144,-9.544934272766113
1745737790.8288274,-0.02038004621863365,0.003995636478066444,-0.1055392175912857,0.3551386892795563,-0.5128757357597351,-9.945962905883789
1745737790.8324373,-0.02155907452106476,0.00804357510060072,-0.10559739172458649,0.29283303022384644,-0.25656744837760925,-9.917387962341309
1745737790.8325036,-0.017158720642328262,0.012198238633573055,-0.10739358514547348,0.23829345405101776,-0.3756726384162903,-9.576192855834961
1745737790.8359458,-0.03877151757478714,0.0034491196274757385,-0.10631970316171646,0.3665328621864319,-0.4532844126224518,-9.567214012145996
1745737790.8388114,-0.02105540595948696,0.005636168178170919,-0.10536527633666992,0.23468787968158722,-0.19718624651432037,-9.983362197875977
1745737790.8687465,-0.034824468195438385,0.012542538344860077,-0.10704571008682251,0.30280572175979614,-0.5973238348960876,-10.069520950317383
1745737790.8720012,-0.025549015030264854,0.007117502391338348,-0.10606630891561508,0.12143013626337051,-0.01129873376339674,-9.452780723571777
1745737790.874564,-0.038148608058691025,0.004868848714977503,-0.10726960003376007,0.38571256399154663,-0.6183604001998901,-9.557794570922852
1745737790.8802235,-0.027767961844801903,0.002623169682919979,-0.10525280237197876,0.2915531098842621,-0.0765119343996048,-9.9655122756958
1745737790.9122949,-0.02887619100511074,0.013765489682555199,-0.1035824865102768,0.2570168375968933,-0.4217258095741272,-10.10838508605957
1745737790.915839,-0.027299299836158752,0.0038868829142302275,-0.1091572493314743,0.321427583694458,-0.2172403335571289,-9.516090393066406
1745737790.924894,-0.027366364374756813,0.005549374036490917,-0.10650106519460678,0.2877557873725891,-0.17086775600910187,-9.481130599975586
1745737790.9249372,-0.027947325259447098,0.0025730805937200785,-0.10775641351938248,0.5120139718055725,-0.3523538112640381,-10.035426139831543
1745737790.952152,-0.018887575715780258,0.0090813422575593,-0.12371110916137695,0.30267632007598877,-0.4282701015472412,-10.257561683654785
1745737790.954477,-0.03293604031205177,0.00640857731923461,-0.12195207178592682,0.40775996446609497,-0.11659262329339981,-9.580760955810547
1745737790.9561648,-0.012999305501580238,0.0036500520072877407,-0.12264087051153183,0.2699553370475769,-0.2241641730070114,-9.394159317016602
1745737790.967227,-0.022190392017364502,-0.0019541573710739613,-0.12488945573568344,0.43456682562828064,-0.1231478676199913,-9.918505668640137
1745737790.9677901,0.004324931185692549,0.005092989653348923,-0.1275271475315094,0.23316869139671326,0.006650659255683422,-10.218732833862305
1745737790.9966052,0.0032545551657676697,0.010277451016008854,-0.1284705549478531,0.3312200903892517,-0.21855366230010986,-9.64240550994873
1745737790.9992244,0.004061677493155003,0.0002533029764890671,-0.1283654272556305,0.2655269503593445,-0.12618885934352875,-9.319803237915039
1745737791.003503,0.013776959851384163,0.0001277961564483121,-0.1284767985343933,0.35037025809288025,-0.40352314710617065,-9.898344039916992
1745737791.0047123,0.002353739459067583,0.004578112158924341,-0.128846675157547,0.3760969638824463,-0.34150686860084534,-10.22955322265625
1745737791.0379138,0.012406694702804089,0.00716314185410738,-0.12687262892723083,0.15793845057487488,-0.39497339725494385,-9.761795997619629
1745737791.040348,-0.016435954719781876,0.0032957778312265873,-0.128043532371521,0.4053819179534912,-0.4172495901584625,-9.29959774017334
1745737791.0426126,-0.009796691127121449,-0.004746881313621998,-0.12762035429477692,0.2350742518901825,-0.2789151668548584,-9.798182487487793
1745737791.0453923,-0.02564803883433342,0.0013669306645169854,-0.12853612005710602,0.3713482618331909,-0.5198309421539307,-10.214685440063477
1745737791.046862,-0.0147391427308321,0.0008647390641272068,-0.1284414678812027,0.25691255927085876,-0.10525283962488174,-9.794876098632812
1745737791.08959,-0.024237144738435745,-0.00044491561129689217,-0.12754300236701965,0.25698167085647583,-0.4871954321861267,-9.468335151672363
1745737791.089673,-0.01523501891642809,-0.0079360231757164,-0.1282239705324173,0.30209264159202576,-0.12089981883764267,-9.619325637817383
1745737791.0897286,0.0012100704479962587,-0.007987416349351406,-0.10792656987905502,0.1067776083946228,-0.25000062584877014,-9.574633598327637
1745737791.0935404,-0.0023032003082334995,-0.030441472306847572,-0.10440456867218018,0.3723675608634949,0.01492238324135542,-9.509103775024414
1745737791.1343353,0.004447565414011478,-0.027075182646512985,-0.1084846705198288,0.13801918923854828,-0.23523643612861633,-10.2882080078125
1745737791.1344147,0.010777033865451813,-0.014892120845615864,-0.11024471372365952,0.22051997482776642,-0.2266048938035965,-10.062211990356445
1745737791.1344633,-0.008680778555572033,-0.022589927539229393,-0.11492586135864258,0.01917441189289093,-0.2746165692806244,-9.354557037353516
1745737791.1366649,-0.021877584978938103,-0.03226303309202194,-0.11166797578334808,0.24643440544605255,-0.6674952507019043,-9.433586120605469
1745737791.1692584,-0.04114874079823494,-0.018738800659775734,-0.10467896610498428,0.09325260668992996,-0.6749262809753418,-10.12004280090332
1745737791.1724741,-0.04192892462015152,-0.012491270899772644,-0.09762562811374664,0.38276398181915283,-0.6572177410125732,-9.846498489379883
1745737791.1762342,-0.0511564239859581,-0.018159691244363785,-0.09178446233272552,0.44209203124046326,-0.2581028342247009,-9.511685371398926
1745737791.1791298,-0.04415909945964813,-0.01850685104727745,-0.0924648717045784,0.2098512351512909,-0.0626043975353241,-9.784712791442871
1745737791.2120562,-0.04345858842134476,-0.028690356761217117,-0.09049723297357559,0.5610333681106567,-0.044310592114925385,-10.079843521118164
1745737791.214323,-0.0070841023698449135,-0.01573074236512184,-0.09184249490499496,0.22648978233337402,0.33333343267440796,-10.005912780761719
1745737791.2166126,-0.026224296540021896,-0.018275726586580276,-0.09114418923854828,0.12305250018835068,-0.31832361221313477,-9.68497371673584
1745737791.220794,-0.010938795283436775,-0.02956453524529934,-0.0887288749217987,0.2645800709724426,0.08636446297168732,-9.33305835723877
1745737791.2244413,-0.008306567557156086,-0.010344212874770164,-0.0834348052740097,0.41326960921287537,-0.3275984227657318,-9.927027702331543
1745737791.2560644,-0.008730029687285423,-0.023134388029575348,-0.08135401457548141,0.45681658387184143,0.11894998699426651,-10.095376968383789
1745737791.2570996,0.001711203483864665,-0.018696319311857224,-0.07910199463367462,0.5102591514587402,-0.2857482135295868,-9.901591300964355
1745737791.2589037,0.006608034484088421,-0.019948959350585938,-0.075450100004673,0.5206285715103149,-0.14644446969032288,-9.623312950134277
