timestamp,angular_vel_x,angular_vel_y,angular_vel_z,linear_acc_x,linear_acc_y,linear_acc_z
1745732521.1975763,-0.0007098176283761859,-0.006618824787437916,-0.010141512379050255,0.3219160735607147,0.21723458170890808,-9.75511360168457
1745732521.1976018,0.017174597829580307,-0.0019278693944215775,-0.009652158245444298,0.18707804381847382,0.21337804198265076,-9.77888298034668
1745732521.2,-0.003286212682723999,-0.0062723830342292786,-0.009315671399235725,0.3547617197036743,0.043959107249975204,-9.792004585266113
1745732521.203397,0.01393844187259674,-0.0065437257289886475,-0.01190322358161211,0.19182254374027252,0.31751012802124023,-9.764469146728516
1745732521.2377195,-0.00043929199455305934,-0.004675702657550573,-0.00986606813967228,0.29557913541793823,0.30674514174461365,-9.751180648803711
1745732521.246293,0.012163052335381508,-0.0009089095401577652,-0.010054799728095531,0.23278000950813293,0.09612561762332916,-9.800125122070312
1745732521.2463784,-0.005517947021871805,-0.004928062669932842,-0.009828539565205574,0.33198922872543335,0.1468774378299713,-9.754192352294922
1745732521.2464292,0.014739720150828362,-0.004841330461204052,-0.011541387066245079,0.1828906089067459,0.22915109992027283,-9.795204162597656
1745732521.2789543,-0.004726889543235302,-0.004244801122695208,-0.012068505398929119,0.3443114161491394,0.03406430780887604,-9.807741165161133
1745732521.2827568,0.010187542997300625,-0.0030758578795939684,-0.009824482724070549,0.2020513117313385,0.33473214507102966,-9.752120018005371
1745732521.28389,0.001498471712693572,-0.0023903404362499714,-0.009599166922271252,0.3056468069553375,-0.0015982761979103088,-9.818136215209961
1745732521.2867239,0.002718582982197404,-0.004850257188081741,-0.009684043936431408,0.24607738852500916,0.31119292974472046,-9.748207092285156
1745732521.2903852,0.007314200047403574,-0.0007483623921871185,-0.010983911342918873,0.23918402194976807,0.027884960174560547,-9.832579612731934
1745732521.3213904,-0.0022472862619906664,-0.004621639847755432,-0.011682294309139252,0.30640798807144165,0.24519777297973633,-9.752758979797363
1745732521.3232172,0.010906961746513844,8.705900836503133e-05,-0.010744558647274971,0.1945064663887024,0.17231228947639465,-9.772140502929688
1745732521.3252347,-0.006229010410606861,-0.0029847067780792713,-0.00895475409924984,0.3521416485309601,0.07814884185791016,-9.776793479919434
1745732521.3287094,0.01029664184898138,-0.0031357661355286837,-0.01153198815882206,0.18047472834587097,0.3019431531429291,-9.770545959472656
1745732521.3667758,-0.0017259379383176565,-0.00048374367179349065,-0.009265934117138386,0.32898780703544617,-0.003225821303203702,-9.808935165405273
1745732521.3689537,0.005815434735268354,-0.003492094576358795,-0.009665700607001781,0.21736624836921692,0.3540632426738739,-9.75474739074707
1745732521.3705902,0.0026237880811095238,-0.0011145598255097866,-0.01009210292249918,0.25672903656959534,-0.011656783521175385,-9.830122947692871
1745732521.3739963,0.005935627967119217,0.005829186178743839,-0.008602448739111423,0.22320637106895447,0.1265995055437088,-9.81622314453125
1745732521.4113295,-0.00990285538136959,0.0024575579445809126,-0.006972154136747122,0.3407661020755768,0.1502363681793213,-9.769577980041504
1745732521.4113944,0.007794054690748453,0.003882973687723279,-0.01118544302880764,0.18182425200939178,0.2648355960845947,-9.799775123596191
1745732521.4165766,-0.00679499888792634,0.005298440344631672,-0.006942480802536011,0.33988863229751587,0.028932292014360428,-9.826094627380371
1745732521.420418,0.0022468629758805037,0.0026619997806847095,-0.010682443156838417,0.20264610648155212,0.37178394198417664,-9.756138801574707
1745732521.423099,0.000677726580761373,0.005120976362377405,-0.009348524734377861,0.3043785095214844,0.003524103667587042,-9.816597938537598
1745732521.4517827,-0.0050498442724347115,0.0008892856421880424,-0.007737797684967518,0.26940515637397766,0.34299203753471375,-9.762097358703613
1745732521.453919,0.005235597956925631,0.006257939152419567,-0.008139082230627537,0.228287011384964,0.10376551002264023,-9.82597541809082
1745732521.4561994,-0.010409094393253326,0.002015350852161646,-0.008099699392914772,0.3448936939239502,0.17614790797233582,-9.74438190460205
1745732521.457366,0.007405309472233057,0.005742143839597702,-0.008683613501489162,0.18597719073295593,0.25710004568099976,-9.777870178222656
1745732521.4943855,-0.007853256538510323,0.0031421564053744078,-0.009527573361992836,0.3584304749965668,0.07314389944076538,-9.797887802124023
1745732521.4961083,0.0057904524728655815,0.0034969612024724483,-0.008774304762482643,0.2055295705795288,0.35054832696914673,-9.75984001159668
1745732521.4990668,-0.004085321445018053,0.004606966860592365,-0.010766786523163319,0.318040132522583,0.029271233826875687,-9.80674934387207
1745732521.5030668,0.0001668744662310928,0.0011699383612722158,-0.008449440822005272,0.28440430760383606,0.3378376364707947,-9.759615898132324
1745732521.513055,0.0038420013152062893,0.006579866167157888,-0.00916115939617157,0.27088525891304016,0.07478030025959015,-9.821880340576172
1745732521.5399382,-0.0062714614905416965,0.0006294429185800254,-0.010580673813819885,0.322693794965744,0.2531994879245758,-9.747472763061523
1745732521.5425935,0.0070753032341599464,0.004882349632680416,-0.008849924430251122,0.20574407279491425,0.19693981111049652,-9.778685569763184
1745732521.5453186,-0.00740815931931138,0.003004839178174734,-0.009114925749599934,0.3555636405944824,0.09560488164424896,-9.791921615600586
1745732521.549597,0.007977443747222424,0.005094696767628193,-0.008426912128925323,0.19607964158058167,0.33688631653785706,-9.792987823486328
1745732521.583356,-0.0054144966416060925,0.0003379991394467652,-0.011565661057829857,0.37035369873046875,0.21233204007148743,-9.764215469360352
1745732521.584877,0.010707618668675423,0.0025890595279634,-0.009447569958865643,0.2051665484905243,0.2598636746406555,-9.769170761108398
1745732521.5880163,-0.003747078822925687,0.0009234176832251251,-0.010253245942294598,0.3569222390651703,0.06149471551179886,-9.797636032104492
1745732521.62409,0.006933205761015415,-0.00017641569138504565,-0.011162471026182175,0.2277383804321289,0.3578946590423584,-9.746556282043457
1745732521.628391,0.0008205001940950751,0.002762316260486841,-0.010225239209830761,0.3246000409126282,-0.006268467754125595,-9.809938430786133
1745732521.631338,0.002886989153921604,-0.0013646415900439024,-0.012452488765120506,0.28563496470451355,0.3468511700630188,-9.755610466003418
1745732521.6364384,0.008789333514869213,0.0031601511873304844,-0.01059012021869421,0.2574535310268402,0.08709651231765747,-9.80455207824707
1745732521.6365793,-0.003251517191529274,-0.0012516940478235483,-0.01013033278286457,0.34660565853118896,0.22744913399219513,-9.725069999694824
1745732521.6680777,0.012438659556210041,0.002460915595293045,-0.01259168703109026,0.20640552043914795,0.22297978401184082,-9.783384323120117
1745732521.669199,-0.004080801270902157,0.0001663635775912553,-0.010307347401976585,0.35992416739463806,0.07895368337631226,-9.77907943725586
1745732521.6770854,0.010490244254469872,-0.0005936491070315242,-0.010385517962276936,0.209918811917305,0.35619550943374634,-9.760147094726562
1745732521.6771588,-0.0010357281425967813,0.0022546793334186077,-0.011996200308203697,0.3346271812915802,0.025500690564513206,-9.786405563354492
1745732521.7096965,0.004458077251911163,-0.004654014017432928,-0.012004969641566277,0.26554855704307556,0.34324905276298523,-9.738890647888184
1745732521.7117999,0.007542798761278391,0.002184501150622964,-0.012382442131638527,0.27903345227241516,0.0428553968667984,-9.810953140258789
1745732521.7175667,-0.0015021057333797216,-0.0018029076745733619,-0.010385711677372456,0.3118305206298828,0.2901884615421295,-9.74313735961914
1745732521.7193105,0.011767851188778877,0.0016852060798555613,-0.012329662218689919,0.23133127391338348,0.1527080088853836,-9.761484146118164
1745732521.7510462,0.010961136780679226,-0.003209539456292987,-0.01062468159943819,0.1917140781879425,0.2893798351287842,-9.798839569091797
1745732521.7551966,-0.00585590023547411,-0.0019593029282987118,-0.011084477417171001,0.3578437268733978,0.019457608461380005,-9.783097267150879
1745732521.7583098,0.0051556662656366825,-0.0027224579825997353,-0.011202072724699974,0.21497173607349396,0.3428621292114258,-9.726030349731445
1745732521.761778,0.0011872837785631418,-0.001762071275152266,-0.012114111334085464,0.3002623915672302,-0.006771069020032883,-9.818260192871094
1745732521.7640593,-0.0028013342525810003,-0.005045241676270962,-0.009852235205471516,0.30523961782455444,0.2911568284034729,-9.773077011108398
1745732521.7974663,0.007483803667128086,-0.0005796276964247227,-0.012180788442492485,0.23887233436107635,0.08245085179805756,-9.802655220031738
1745732521.8006325,-0.00816249568015337,-0.004513042978942394,-0.01138163823634386,0.3550625443458557,0.1664513647556305,-9.730705261230469
1745732521.804338,0.008124236017465591,-0.0018838576506823301,-0.012615777552127838,0.1865004003047943,0.2406085729598999,-9.78495979309082
1745732521.8076289,-0.009073230437934399,-0.0020567530300468206,-0.011692008934915066,0.3535039722919464,0.039618365466594696,-9.810384750366211
1745732521.8415077,0.006137575022876263,-0.0027265972457826138,-0.01089445035904646,0.2117699682712555,0.3371122479438782,-9.73864459991455
1745732521.84362,-0.003602416720241308,-0.0004087093402631581,-0.012951655313372612,0.3250560760498047,-0.021272994577884674,-9.787858963012695
1745732521.8439212,-0.00342518649995327,-0.0050028846599161625,-0.012325884774327278,0.262546181678772,0.3238231837749481,-9.737014770507812
1745732521.8444974,0.0038521115202456713,-7.657028618268669e-05,-0.012034999206662178,0.2357879877090454,0.06076643615961075,-9.824331283569336
1745732521.8469067,-0.008860811591148376,-0.005136621650308371,-0.011720559559762478,0.33319738507270813,0.17793549597263336,-9.759218215942383
1745732521.8809252,0.0068208687007427216,-0.0012052281526848674,-0.011774389073252678,0.19584254920482635,0.20037992298603058,-9.78200912475586
1745732521.8888867,-0.009736433625221252,-0.001192831783555448,-0.01107083261013031,0.34789496660232544,0.08292888104915619,-9.797109603881836
1745732521.8895702,0.00488879531621933,-0.002627952490001917,-0.011969106271862984,0.19493409991264343,0.3211119771003723,-9.768006324768066
1745732521.8896255,-0.006669078022241592,-0.0009121089242398739,-0.011838972568511963,0.33393996953964233,-0.0012837201356887817,-9.788426399230957
1745732521.9258668,-0.002350947353988886,-0.004147010389715433,-0.011428837664425373,0.2474430352449417,0.3472248613834381,-9.749419212341309
1745732521.9284563,0.0013764066388830543,-0.00012998357124160975,-0.011551916599273682,0.2749878168106079,0.015632905066013336,-9.842309951782227
1745732521.9285212,-0.0099569670855999,-0.00012634656741283834,-0.013114017434418201,0.34748154878616333,0.06753724813461304,-9.80305290222168
1745732521.9297688,0.0013343773316591978,-0.002465121913701296,-0.011939236894249916,0.21498696506023407,0.3556029796600342,-9.745855331420898
1745732521.9689481,-0.005230349488556385,-0.0012192841386422515,-0.012917670421302319,0.32238826155662537,0.006668758578598499,-9.806543350219727
1745732521.9711504,-0.004208087921142578,-0.0037199207581579685,-0.013070362620055676,0.26034659147262573,0.3569437861442566,-9.76331615447998
1745732521.972137,0.001485909684561193,0.0024716511834412813,-0.012258723378181458,0.2771833539009094,0.05245623737573624,-9.849419593811035
1745732521.9779267,-0.009931543841958046,-0.004881242755800486,-0.011171748861670494,0.38102883100509644,0.25497618317604065,-9.772686004638672
1745732521.9780138,0.0040520294569432735,-0.0007886954699642956,-0.010966760106384754,0.2836788296699524,0.20685920119285583,-9.812260627746582
1745732522.0100288,-0.008275946602225304,-0.002973992144688964,-0.008826428093016148,0.41054779291152954,0.1588902473449707,-9.851564407348633
1745732522.0115788,0.006351402495056391,-0.005729945842176676,-0.013370427303016186,0.2304869443178177,0.4156920313835144,-9.815966606140137
1745732522.0149152,-0.004118531942367554,-0.00045325086102820933,-0.013949433341622353,0.4026053547859192,0.06935804337263107,-9.800602912902832
1745732522.017451,0.005280652549117804,-0.0056245699524879456,-0.009828238748013973,0.2920208275318146,0.4465833306312561,-9.76098918914795
1745732522.0529118,0.008040118031203747,-0.0018223803490400314,-0.013098512776196003,0.3182237446308136,0.15045994520187378,-9.853570938110352
1745732522.0590703,0.0022766690235584974,-0.00615218048915267,-0.011522194370627403,0.3418716788291931,0.35893821716308594,-9.759464263916016
1745732522.0625944,0.018567509949207306,0.00046577854664064944,-0.011756072752177715,0.24068956077098846,0.23877842724323273,-9.78488540649414
1745732522.0633254,0.0033304267562925816,-0.00513074267655611,-0.011316360905766487,0.3914710581302643,0.21173496544361115,-9.786595344543457
1745732522.0662577,0.019653212279081345,-0.002800577087327838,-0.013147702440619469,0.21723289787769318,0.3475830852985382,-9.8230619430542
1745732522.0984523,0.0068969279527664185,0.0027797147631645203,-0.00911337323486805,0.29919153451919556,0.013736531138420105,-9.808404922485352
1745732522.1054585,0.00334121729247272,-0.0033452617935836315,-0.007723439484834671,0.2645806670188904,0.34288105368614197,-9.755508422851562
1745732522.1056979,0.010631455108523369,0.0026181694120168686,-0.007652913220226765,0.23115083575248718,0.11534126847982407,-9.8284330368042
1745732522.1391444,-0.0019852896220982075,-0.003028176026418805,-0.005953048821538687,0.31692013144493103,0.23137307167053223,-9.757501602172852
1745732522.1419904,0.016130506992340088,0.0021962830796837807,-0.00679630134254694,0.1830851286649704,0.22746868431568146,-9.797201156616211
1745732522.1433203,-0.0023643216118216515,-0.002180367009714246,-0.0061220526695251465,0.34984928369522095,0.08481298387050629,-9.802756309509277
1745732522.1457887,0.011148997582495213,0.0011014565825462341,-0.0050741881132125854,0.19541218876838684,0.3267442584037781,-9.753775596618652
1745732522.1486156,0.00276545318774879,0.0015036816475912929,-0.006967390421777964,0.3247651755809784,0.019056763499975204,-9.805996894836426
1745732522.1850705,0.00452447822317481,-0.0023465461563318968,-0.005743739660829306,0.2308114469051361,0.3966669738292694,-9.768210411071777
1745732522.1865687,0.006969810929149389,0.0037173633463680744,-0.006155612878501415,0.2728509306907654,0.02181566134095192,-9.842733383178711
1745732522.1866603,-0.0015644803643226624,-0.0025253701023757458,-0.004196947440505028,0.3122202754020691,0.27298441529273987,-9.745027542114258
1745732522.1889877,0.012612074613571167,0.0014129665214568377,-0.004842750728130341,0.2175552397966385,0.17044302821159363,-9.799656867980957
1745732522.22791,-0.0043248021975159645,0.0008813909953460097,-0.0054623219184577465,0.36340874433517456,0.11845608800649643,-9.80691909790039
1745732522.2328663,0.013476401567459106,-0.0008200100855901837,-0.00503903953358531,0.19994421303272247,0.31816166639328003,-9.768960952758789
1745732522.2361195,-0.002552693709731102,0.0005212030373513699,-0.002580025000497699,0.3621447682380676,0.014329416677355766,-9.793886184692383
1745732522.2391808,0.0047540972009301186,-0.001259581302292645,-0.004002587404102087,0.23412542045116425,0.3732261657714844,-9.75767993927002
1745732522.2408018,0.005605353508144617,0.003751397132873535,-0.004976517520844936,0.2946264147758484,0.0575902946293354,-9.842428207397461
1745732522.2707047,-0.0007080128416419029,-0.001922651194036007,-0.00162452831864357,0.3071862459182739,0.33057159185409546,-9.7460298538208
1745732522.2717056,0.009921824559569359,0.0017728370148688555,-0.0006757524097338319,0.24208278954029083,0.13784313201904297,-9.793752670288086
1745732522.2748375,-0.00504979956895113,-0.000289534917101264,-0.00277510192245245,0.3604489266872406,0.212126225233078,-9.765012741088867
1745732522.2801454,0.004366565030068159,-0.001966479467228055,0.000746162433642894,0.23515376448631287,0.32728251814842224,-9.762903213500977
1745732522.3122857,0.00568320881575346,0.003669925034046173,0.002405384089797735,0.2672125995159149,0.04835221543908119,-9.82260799407959
1745732522.3168795,-0.0019206007709726691,-0.002782633528113365,0.0009027044288814068,0.30163827538490295,0.2879094183444977,-9.724637031555176
1745732522.3205452,0.009480142034590244,0.0020437247585505247,0.0007951671141199768,0.19533905386924744,0.13612285256385803,-9.797187805175781
1745732522.3223598,-0.005780220963060856,-4.6449411456706e-05,0.0019656766671687365,0.3504307270050049,0.1541549265384674,-9.794111251831055
1745732522.3553174,0.011265519075095654,0.0006273908074945211,0.0011269351234659553,0.18577370047569275,0.28001710772514343,-9.771276473999023
1745732522.3627253,-0.005424993112683296,0.0020648103673011065,0.0031654040794819593,0.35356733202934265,0.03843628987669945,-9.762266159057617
1745732522.3628275,0.006819914095103741,-0.001073953928425908,0.0032391571439802647,0.2063925564289093,0.3934667706489563,-9.740730285644531
1745732522.3628826,0.001703276066109538,0.0027861823327839375,0.0016751836519688368,0.2966999113559723,-0.011095287278294563,-9.84424877166748
1745732522.399139,-0.0028362064622342587,-0.0021278741769492626,0.0022497132886201143,0.2806629538536072,0.3420529365539551,-9.734230041503906
1745732522.4027314,0.010102972388267517,0.0030413728673011065,0.00364791601896286,0.2359742671251297,0.09279925376176834,-9.783989906311035
1745732522.4038334,-0.006069657858461142,-0.0019935290329158306,0.002937419805675745,0.3488255441188812,0.19184331595897675,-9.76907730102539
1745732522.4054375,0.011497905477881432,0.0025022104382514954,0.003061840310692787,0.1744721382856369,0.2760244309902191,-9.788599967956543
1745732522.4093435,-0.005073369946330786,0.0009910721564665437,0.003914565779268742,0.3585363030433655,0.0455181784927845,-9.767942428588867
1745732522.4438603,0.006756729446351528,-0.0012664084788411856,0.004364549182355404,0.21712248027324677,0.3476290702819824,-9.769071578979492
1745732522.4501076,0.0048779090866446495,2.9941485991002992e-05,0.0033873680513352156,0.27949103713035583,0.034990452229976654,-9.79301929473877
1745732522.451839,-0.0046855732798576355,-0.003345328150317073,0.001091523328796029,0.3273124098777771,0.25208649039268494,-9.75754451751709
1745732522.455609,0.011162880808115005,-0.0003826171741820872,0.001314732013270259,0.21213087439537048,0.1701122522354126,-9.806238174438477
1745732522.4863997,-0.008182595483958721,-0.001666142838075757,0.002893167082220316,0.34765997529029846,0.13027815520763397,-9.767054557800293
1745732522.4906726,0.010978734120726585,-0.002908183727413416,0.0007083116215653718,0.19181916117668152,0.2943413257598877,-9.760320663452148
1745732522.4930017,-0.004138276446610689,-0.0024772589094936848,0.0014662658795714378,0.36378324031829834,0.026545334607362747,-9.805705070495605
1745732522.495185,0.005426051560789347,-0.0019723125733435154,0.00198536878451705,0.23980219662189484,0.3464542031288147,-9.77970027923584
1745732522.5285757,0.0022381909657269716,-0.0005862540565431118,0.0016495001036673784,0.3063158392906189,0.01703742891550064,-9.804366111755371
1745732522.5310822,-0.0009081646567210555,-0.004169266205281019,0.002216046443209052,0.29307347536087036,0.32180577516555786,-9.71955394744873
1745732522.5361242,0.007745911832898855,0.0006150053814053535,0.0026948435697704554,0.230264812707901,0.08550550788640976,-9.84638786315918
1745732522.5385575,-0.0076180570758879185,-0.0039883689023554325,0.002179783768951893,0.3412788510322571,0.18022044003009796,-9.780606269836426
1745732522.572203,0.011069968342781067,-0.002820195397362113,0.0020325493533164263,0.1984938085079193,0.2541302442550659,-9.773942947387695
1745732522.5747886,-0.004724800121039152,-0.0018115477869287133,0.0019180129747837782,0.3512735068798065,0.05245078727602959,-9.780115127563477
1745732522.5770223,0.007883677259087563,-0.004773369990289211,0.00216910382732749,0.2004554718732834,0.37141889333724976,-9.773056983947754
1745732522.5805626,-0.0005418389919213951,0.0020788591355085373,0.0005073135253041983,0.32858818769454956,-0.02846365049481392,-9.826420783996582
1745732522.6133835,-0.00027554426924325526,-0.00465625012293458,0.0016603287076577544,0.26284685730934143,0.36041077971458435,-9.760960578918457
1745732522.618102,0.007261478342115879,-0.001043042866513133,0.0011426493292674422,0.2519385516643524,0.05217018723487854,-9.793169975280762
1745732522.6228461,-0.00603476632386446,-0.0061396206729114056,0.0011232106480747461,0.3252113461494446,0.24317312240600586,-9.761883735656738
1745732522.6293585,0.012209641747176647,0.00033603113843128085,0.0012363980058580637,0.19721491634845734,0.1858690083026886,-9.829227447509766
1745732522.629427,-0.007003998849540949,-0.003361297305673361,0.001697262516245246,0.3570389151573181,0.08423478901386261,-9.7715425491333
1745732522.6593604,0.0031014697160571814,-0.0005941284471191466,0.001588021987117827,0.3064940273761749,-0.016671588644385338,-9.8279447555542
1745732522.660771,-0.000533185142558068,-0.003381263930350542,0.001506674219854176,0.2723015546798706,0.3535367548465729,-9.741920471191406
1745732522.665629,0.00837317667901516,6.992524140514433e-05,0.0007034760783426464,0.22780117392539978,0.09228940308094025,-9.809150695800781
1745732522.6683264,-0.0046388222835958,-0.004836174659430981,0.000660725578200072,0.3424031138420105,0.20401239395141602,-9.770261764526367
1745732522.6978266,0.012179101817309856,4.103984610992484e-05,0.001264966675080359,0.18098001182079315,0.2279864102602005,-9.822428703308105
1745732522.6998641,-0.005076699890196323,-0.002492679748684168,0.0008413071627728641,0.344988077878952,0.077965646982193,-9.785554885864258
1745732522.7016835,0.010396101512014866,-0.003543573897331953,0.0012100234162062407,0.19039534032344818,0.3189145028591156,-9.753540992736816
1745732522.7029977,0.0012258692877367139,-0.0003007755149155855,0.0005865704151801765,0.3396366238594055,0.018825862556695938,-9.83263111114502
1745732522.7061796,0.003151261480525136,-0.0029868166893720627,0.0009005521424114704,0.22888760268688202,0.3704366385936737,-9.765275955200195
1745732522.7435403,0.00815398059785366,0.0013660718686878681,0.0023309921380132437,0.2663175165653229,0.023328272625803947,-9.804790496826172
1745732522.7450962,-0.0032807313837110996,-0.005241990555077791,0.0019628978334367275,0.3028433322906494,0.27792367339134216,-9.739553451538086
1745732522.7483687,0.013678587973117828,0.0006575292209163308,-0.0005745620583184063,0.21556417644023895,0.1687130481004715,-9.825459480285645
1745732522.751526,-0.004052719101309776,-0.0008802280644886196,0.0006728515145368874,0.3497838079929352,0.12204841524362564,-9.795615196228027
1745732522.7984233,0.014250139705836773,-0.0008937826496548951,0.0021898329723626375,0.1731143295764923,0.32324790954589844,-9.784533500671387
1745732522.7985132,-0.0007536401972174644,-0.00035147531889379025,-0.0007965836557559669,0.34408289194107056,0.0031319349072873592,-9.808349609375
1745732522.7985702,0.007905635051429272,-0.003249924164265394,0.0015828923787921667,0.21337266266345978,0.36570727825164795,-9.760444641113281
1745732522.7986166,-0.005375415086746216,-0.0025261968839913607,0.0019497366156429052,0.32313403487205505,0.1668410748243332,-9.763840675354004
1745732522.7986732,0.009304793551564217,0.002353016287088394,0.0009779020911082625,0.19484099745750427,0.21903014183044434,-9.77942943572998
1745732522.8314447,-0.009702407754957676,-0.00010854946594918147,-0.0005275271250866354,0.3586429953575134,0.025013307109475136,-9.769279479980469
1745732522.8348646,0.007724300026893616,-0.00015781275578774512,0.002686033956706524,0.19713030755519867,0.33566972613334656,-9.756561279296875
1745732522.8413098,-0.003345286473631859,0.0019005055073648691,0.0016028383979573846,0.3098911941051483,-0.037835411727428436,-9.827880859375
1745732522.8450608,-0.0040120515041053295,-0.002869353163987398,0.0023152853827923536,0.23929131031036377,0.31944820284843445,-9.743987083435059
1745732522.8733325,0.0034633614122867584,0.00385165773332119,0.001409021788276732,0.25976958870887756,0.0261689480394125,-9.79212474822998
1745732522.874513,-0.009190230630338192,-0.0013874154537916183,0.0018485324690118432,0.30489134788513184,0.24313731491565704,-9.748785018920898
1745732522.875676,0.004775944631546736,0.0034756523091346025,0.001788400113582611,0.21010024845600128,0.1579773873090744,-9.805264472961426
1745732522.8791168,-0.012061966583132744,-0.00039599835872650146,0.0014430679148063064,0.3516192138195038,0.0893227830529213,-9.764514923095703
1745732522.9148853,0.004975922405719757,-0.0008577980916015804,0.0016453489661216736,0.20531527698040009,0.26226669549942017,-9.756697654724121
1745732522.9175363,-0.011235145851969719,0.0021997480653226376,0.0006854470702819526,0.35277578234672546,-0.02545696124434471,-9.802002906799316
1745732522.9191413,-0.0007058718474581838,-0.0012992897536605597,0.0007302392041310668,0.21674497425556183,0.3278469741344452,-9.746795654296875
1745732522.9201808,-0.0043004280887544155,0.003423465881496668,0.002757083158940077,0.28983640670776367,-0.017672482877969742,-9.821418762207031
1745732522.9220433,-0.008834072388708591,-0.001995987491682172,0.0002065119770122692,0.28170517086982727,0.29812997579574585,-9.722570419311523
1745732522.964213,0.0013552152086049318,0.003549596993252635,0.0008209097431972623,0.24360883235931396,0.07649959623813629,-9.792821884155273
1745732522.9674447,-0.015338835306465626,-0.0016364209586754441,0.000678462500218302,0.3488638401031494,0.15835942327976227,-9.784293174743652
1745732522.9687207,0.003395112929865718,0.0001376633590552956,0.0015473341336473823,0.1794884353876114,0.2469083070755005,-9.776309967041016
1745732522.9712598,-0.014167256653308868,0.0017233839025720954,0.0011229555821046233,0.3718931972980499,0.008432408794760704,-9.755938529968262
1745732523.0001967,-0.0012460137950256467,-0.002001158194616437,0.0012025176547467709,0.21064475178718567,0.3404129445552826,-9.74720287322998
1745732523.0026827,-0.00954597257077694,0.0052025169134140015,0.00038249834324233234,0.32283857464790344,-0.009916750714182854,-9.823996543884277
1745732523.0232227,0.011327738873660564,-0.003390565514564514,-0.0026787319220602512,0.30413174629211426,0.07640733569860458,-9.828786849975586
1745732523.0233052,0.0036393068730831146,-0.0049381861463189125,-0.0011853205505758524,0.30469468235969543,0.32858386635780334,-9.727640151977539
1745732523.0443609,0.01803058758378029,-0.003934208303689957,-0.004915119614452124,0.23381944000720978,0.1680012196302414,-9.783166885375977
1745732523.0468686,-0.000557547144126147,-0.006222349591553211,-0.0029706303030252457,0.364501416683197,0.11293693631887436,-9.779723167419434
1745732523.0515885,0.016837377101182938,-0.0031991121359169483,-0.0036066833417862654,0.19803936779499054,0.2878977656364441,-9.78686237335205
1745732523.0533996,0.00044227484613657,-0.0017871866002678871,-0.002857531886547804,0.3537599742412567,-0.0010186017025262117,-9.766955375671387
1745732523.0552635,0.00877583958208561,-0.006686314940452576,-0.004137844778597355,0.21189317107200623,0.3384021520614624,-9.736808776855469
1745732523.0878375,0.003166918409988284,-0.0007306906627491117,-0.0033456594683229923,0.28551870584487915,-0.01867653988301754,-9.841209411621094
1745732523.0917077,-0.0014333867002278566,-0.006519040558487177,-0.0032193739898502827,0.26368439197540283,0.27963128685951233,-9.762537002563477
1745732523.095182,0.007635130081325769,-0.00012027291813865304,-0.0015921571757644415,0.21536163985729218,0.08538930863142014,-9.801942825317383
1745732523.0985556,-0.0066794767044484615,-0.005321222357451916,-0.0016936203464865685,0.3138529658317566,0.21434827148914337,-9.736943244934082
1745732523.1283228,0.008917255327105522,-0.0030790152959525585,-0.0019913341384381056,0.16623425483703613,0.2353932410478592,-9.801048278808594
1745732523.1315033,-0.008886175230145454,-0.0016066919779404998,-0.001523116952739656,0.3310930132865906,0.08073626458644867,-9.814988136291504
1745732523.1335814,0.0070339953526854515,-0.004849596414715052,-0.00010928304254775867,0.1703585386276245,0.3796517252922058,-9.742627143859863
1745732523.1354911,-0.0036256418097764254,-0.002846678253263235,-0.0016150418668985367,0.3059016764163971,0.017345106229186058,-9.768671035766602
1745732523.1725478,-0.005739118903875351,0.0008887358126230538,0.004210789687931538,0.32655763626098633,0.008551600389182568,-9.803903579711914
1745732523.1757557,0.004378602374345064,-0.0010681977728381753,0.002801287453621626,0.20078782737255096,0.38701575994491577,-9.725973129272461
1745732523.178152,0.0007516155019402504,0.002575791208073497,0.002425395417958498,0.3084557056427002,-0.016021013259887695,-9.822784423828125
1745732523.1881876,-0.0013304812600836158,-0.0027467492036521435,0.0018714738544076681,0.2587830126285553,0.3450356423854828,-9.756290435791016
1745732523.1883733,0.007740390952676535,0.004599504638463259,0.003321083728224039,0.2188657820224762,0.07786978781223297,-9.825749397277832
1745732523.2183275,-0.008332934230566025,-0.002134534530341625,0.0007467336836270988,0.3307684063911438,0.19843056797981262,-9.748177528381348
1745732523.2206237,0.010493957437574863,0.0029407241381704807,0.00123107701074332,0.1894935667514801,0.23181262612342834,-9.794953346252441
1745732523.223538,-0.008060235530138016,0.001683095470070839,0.002463607583194971,0.33786049485206604,0.05511750653386116,-9.81676959991455
1745732523.2263258,0.0070036957040429115,0.002267792820930481,0.0029833761509507895,0.198154017329216,0.3384045362472534,-9.76958179473877
1745732523.2617052,-0.0019489735132083297,0.001067027566023171,0.0016086663817986846,0.33774334192276,-0.012398531660437584,-9.786481857299805
1745732523.2618759,0.001746799098327756,0.00016393775877077132,0.0036909605842083693,0.2558591365814209,0.34561794996261597,-9.758031845092773
1745732523.2633407,0.004111434333026409,0.003469292540103197,0.001392850885167718,0.2668493390083313,0.027673840522766113,-9.828232765197754
1745732523.2644665,-0.004420803859829903,-0.00013464337098412216,0.00404204148799181,0.3000289499759674,0.27091464400291443,-9.763195991516113
1745732523.3019993,0.011290661990642548,0.004762547556310892,0.0013023043284192681,0.2129364013671875,0.1384734809398651,-9.798723220825195
1745732523.3035543,-0.009640880860388279,0.0011059966636821628,0.002549489727243781,0.35437315702438354,0.13562604784965515,-9.782684326171875
1745732523.3054245,0.010174974799156189,0.0013745256001129746,0.0019440982723608613,0.18316037952899933,0.3057710826396942,-9.787877082824707
1745732523.306963,-0.005783752538263798,0.001518330303952098,0.0033481954596936703,0.36548280715942383,0.0031154111493378878,-9.803237915039062
1745732523.3138921,0.006143826059997082,-0.0003817350952886045,0.0029422584921121597,0.22419968247413635,0.35983985662460327,-9.743353843688965
1745732523.361501,0.001727594994008541,0.004290801472961903,0.0013628898886963725,0.3079984188079834,-0.01004464365541935,-9.827468872070312
1745732523.361584,-0.0015308248111978173,0.0004548514261841774,0.003503271611407399,0.30683693289756775,0.32421499490737915,-9.750166893005371
1745732523.361672,0.009918035939335823,0.002818130888044834,0.001661514863371849,0.2318703830242157,0.09094379842281342,-9.810789108276367
1745732523.3617377,-0.006513107568025589,0.0008140054414980114,0.0029137663077563047,0.34969204664230347,0.1743750125169754,-9.767477035522461
1745732523.3872826,-0.0055123199708759785,-0.0017011752352118492,0.001062655239365995,0.30725932121276855,0.24870088696479797,-9.737749099731445
1745732523.3916035,0.010528439655900002,0.003625581506639719,0.000632424489594996,0.19547848403453827,0.17264674603939056,-9.81967830657959
1745732523.3940103,-0.008454347029328346,-0.00026407610857859254,0.0017819801578298211,0.3532751798629761,0.0882219523191452,-9.792813301086426
1745732523.3962688,0.008161182515323162,0.001397369778715074,0.0006866410840302706,0.19588005542755127,0.3114372789859772,-9.751032829284668
1745732523.3992238,-0.0046469965018332005,0.004107963759452105,0.001973141450434923,0.3443061411380768,-0.0023673176765441895,-9.774621963500977
1745732523.4335213,0.004878438077867031,-0.0017186524346470833,0.0012957858853042126,0.2247045487165451,0.3755172789096832,-9.755061149597168
1745732523.4370184,0.002463406650349498,0.004939108155667782,0.0010509362909942865,0.2678224444389343,0.023874223232269287,-9.839651107788086
1745732523.4388623,-0.0037632063031196594,-0.001317125977948308,0.0016065764939412475,0.27815258502960205,0.2986002564430237,-9.738285064697266
1745732523.4404318,0.008591546677052975,0.003597090719267726,0.0016878225142136216,0.22964641451835632,0.11791016161441803,-9.799098014831543
1745732523.4742308,-0.00737400958314538,-0.00010647834278643131,0.0016718769911676645,0.34451591968536377,0.15901049971580505,-9.762435913085938
1745732523.4796245,0.012342071160674095,0.001524869236163795,0.0012252742890268564,0.19634488224983215,0.25981980562210083,-9.781960487365723
1745732523.4817054,-0.004743731580674648,0.0031774467788636684,6.095785465731751e-06,0.365353524684906,0.04890960454940796,-9.78343677520752
1745732523.4843435,0.006689839065074921,0.001141563756391406,0.0007051730062812567,0.2237805873155594,0.3628990948200226,-9.743046760559082
1745732523.4897387,-0.00010028760880231857,0.0009456314146518707,0.0012638561893254519,0.3213843107223511,-0.011013505980372429,-9.823488235473633
1745732523.51975,0.010005427524447441,-0.0028283074498176575,0.0014895491767674685,0.18959924578666687,0.2824855446815491,-9.802021980285645
1745732523.5225818,-0.004495762288570404,-0.00014284563076216727,-0.00041337410220876336,0.3613591194152832,-0.001166141009889543,-9.79284954071045
1745732523.5226257,0.004366409033536911,-0.005260839592665434,-0.001433930010534823,0.23014168441295624,0.36143046617507935,-9.717976570129395
1745732523.559301,0.0028853353578597307,0.0004060537903569639,0.0007421660120598972,0.2935623824596405,0.004377993289381266,-9.815515518188477
1745732523.5619361,-0.002375675132498145,-0.0036403231788426638,0.00024903836310841143,0.2930836081504822,0.3417569696903229,-9.769538879394531
1745732523.5641754,0.009891525842249393,0.00028223416302353144,0.0006358780665323138,0.24718213081359863,0.08608581125736237,-9.798851013183594
1745732523.5662482,-0.008337629958987236,-0.003497676458209753,0.00032197157270275056,0.3561827540397644,0.18180236220359802,-9.743306159973145
1745732523.569669,0.012920510955154896,0.00024183405912481248,0.0014644777402281761,0.2091229408979416,0.28395676612854004,-9.788885116577148
1745732523.604512,-0.008333317004144192,-0.0038447945844382048,0.0007113836472854018,0.36494436860084534,0.04789672791957855,-9.796060562133789
1745732523.614821,0.007837684825062752,-0.003945194650441408,-2.9531027394114062e-05,0.2138633280992508,0.35572630167007446,-9.743060111999512
1745732523.6218352,0.0002124056190950796,-0.0004119092191103846,-0.0002013618650380522,0.33864742517471313,0.009663933888077736,-9.81513500213623
1745732523.6218972,2.1598487364826724e-05,-0.0039056658279150724,0.00013220692926552147,0.260372519493103,0.3536507487297058,-9.750221252441406
1745732523.647736,0.005031985230743885,-0.0003104530624113977,0.0005347468541003764,0.261974036693573,0.07227818667888641,-9.813937187194824
1745732523.6488562,-0.00526366475969553,-0.0051838550716638565,0.0015604922082275152,0.33362922072410583,0.2549937963485718,-9.74455451965332
1745732523.6522,0.012017576023936272,-0.0009083187323994935,-0.0012410373892635107,0.21220478415489197,0.16432945430278778,-9.789620399475098
1745732523.653231,-0.006411104463040829,-0.0023271492682397366,0.00013204319111537188,0.367170512676239,0.11044614017009735,-9.782865524291992
1745732523.6543036,0.009260253980755806,-0.004442331846803427,-0.0004726503393612802,0.19088518619537354,0.33963578939437866,-9.771868705749512
1745732523.6897173,-0.0016731589566916227,-0.0004018463077954948,0.001954449573531747,0.33842092752456665,0.010901173576712608,-9.818948745727539
1745732523.6912153,0.0023489720188081264,-0.003427291987463832,-6.264359399210662e-05,0.2204829901456833,0.37321916222572327,-9.73599624633789
1745732523.692973,0.006211462430655956,-0.0006145566585473716,-0.00016877558664418757,0.2881264388561249,0.014590729959309101,-9.819912910461426
1745732523.6945703,-0.003071454120799899,-0.005369359161704779,0.0007883100770413876,0.29978489875793457,0.3092459738254547,-9.756132125854492
1745732523.732477,-0.005257417447865009,-0.004757771268486977,0.000437169277574867,0.3269387483596802,0.2474088966846466,-9.76091194152832
1745732523.7356238,0.011303836479783058,-0.0009141720947809517,0.0028328211046755314,0.20003359019756317,0.2041633129119873,-9.779645919799805
1745732523.738006,-0.007262071128934622,-0.0019305379828438163,0.0021242278162389994,0.36491459608078003,0.08390135318040848,-9.79956340789795
1745732523.739529,0.008789489977061749,-0.0015716900816187263,-0.0007277560653164983,0.1764180213212967,0.34129515290260315,-9.773235321044922
1745732523.7751427,-0.0018235798925161362,-0.00030053587397560477,0.0024714660830795765,0.33028319478034973,-0.007415647618472576,-9.800508499145508
1745732523.7921278,0.0026195859536528587,-0.0036866453010588884,0.0016947798430919647,0.24290284514427185,0.3778935670852661,-9.75124454498291
1745732523.792223,0.005304551683366299,0.0013708771439269185,0.0004307177441660315,0.2611170709133148,0.044442277401685715,-9.844802856445312
1745732523.7922673,-0.0025087331887334585,-0.004080718848854303,0.00024752921308390796,0.32200345396995544,0.2694205343723297,-9.747644424438477
1745732523.8243198,0.008366641588509083,0.0013024810468778014,0.00010005412332247943,0.2091834992170334,0.16146428883075714,-9.7913179397583
1745732523.8243709,-0.006455188151448965,-0.0023456064518541098,0.0010911062126979232,0.35541969537734985,0.14562101662158966,-9.771615982055664
1745732523.8253677,0.009432326070964336,-0.0017428550636395812,0.0015419506235048175,0.18275690078735352,0.3002029061317444,-9.797800064086914
1745732523.8305168,-0.00336860422976315,0.0009015238028950989,0.0006981493206694722,0.34130677580833435,0.022896436974406242,-9.789826393127441
1745732523.8331842,0.0059943110682070255,-0.002951291622593999,0.0015544097404927015,0.2173670530319214,0.3606247901916504,-9.733833312988281
1745732523.86311,0.0009788566967472434,0.0004712716327048838,0.0014340166235342622,0.29011479020118713,0.008804735727608204,-9.8294095993042
1745732523.8650706,-0.0010530271101742983,-0.0028771008364856243,0.0005317183677107096,0.2752152681350708,0.3443688750267029,-9.788749694824219
1745732523.8655214,0.011772582307457924,-0.0023249578662216663,0.0009052337263710797,0.19639167189598083,0.31553277373313904,-9.756097793579102
1745732523.868327,-0.001218757824972272,0.0015144484350457788,0.0012051360681653023,0.3330923914909363,-0.010709032416343689,-9.813122749328613
1745732523.907878,0.002803137991577387,-0.0016689533367753029,0.0011773125734180212,0.21949534118175507,0.3508671522140503,-9.744536399841309
1745732523.9100943,0.00566502008587122,0.0015096075367182493,0.0009062060853466392,0.2974824905395508,0.0151104386895895,-9.8204927444458
1745732523.9136653,-0.003143420908600092,-0.002741378266364336,0.0007587439613416791,0.29905515909194946,0.2836373448371887,-9.751965522766113
1745732523.9290102,0.008831270039081573,0.0036514834500849247,0.0016973171150311828,0.22214064002037048,0.13791555166244507,-9.799382209777832
1745732523.9290688,-0.007693135645240545,-0.004211513325572014,-0.00047493522288277745,0.35551542043685913,0.12873098254203796,-9.754339218139648
1745732523.9495747,0.010436180047690868,-0.000697620096616447,0.0016199437668547034,0.18636353313922882,0.2909708321094513,-9.779409408569336
1745732523.9530182,-0.003306392580270767,0.0021114114206284285,-0.00028773327358067036,0.3621547222137451,0.007673216052353382,-9.796830177307129
1745732523.9564972,0.0050728037022054195,-0.0029029620345681906,0.002055743709206581,0.20748479664325714,0.3568527102470398,-9.748522758483887
1745732523.9597635,0.0017872921889647841,0.0019046347588300705,0.00033607936347834766,0.3150796890258789,-0.017240433022379875,-9.809289932250977
1745732523.9910505,-0.0025299307890236378,-0.004057611338794231,-3.265959821874276e-05,0.28423458337783813,0.3284229338169098,-9.748250961303711
1745732523.9925404,0.008404587395489216,0.001758675673045218,0.0002396657655481249,0.24267809092998505,0.07692839950323105,-9.815279006958008
1745732523.994387,-0.0064467801712453365,-0.0036357503850013018,0.0004773292748723179,0.3386933207511902,0.19833028316497803,-9.740406036376953
1745732523.9955177,0.010348768904805183,0.0004238237743265927,0.0007274651434272528,0.2022486925125122,0.21417982876300812,-9.775422096252441
1745732523.9969585,-0.005940706003457308,-0.0019675218500196934,-0.00029580877162516117,0.37082332372665405,0.0573195219039917,-9.78922176361084
1745732524.0353386,0.008703028783202171,-0.00178516935557127,-0.0001893263979582116,0.20956537127494812,0.34010380506515503,-9.763163566589355
1745732524.0368512,-0.0025510122068226337,0.0001707090123090893,0.0011415760964155197,0.3440954089164734,-0.007247515022754669,-9.800790786743164
1745732524.0392892,0.0022934209555387497,-0.003450284246355295,0.0009621616336517036,0.24303631484508514,0.3551294803619385,-9.742134094238281
1745732524.0422804,0.005826519336551428,0.0003623166121542454,-0.00019377167336642742,0.27754825353622437,0.013333873823285103,-9.834765434265137
1745732524.0785575,-0.006116853095591068,-0.004190091509371996,-0.0001464295928599313,0.33177828788757324,0.2858262062072754,-9.750091552734375
1745732524.0810413,-0.007482877466827631,-0.0036780876107513905,-0.00185194774530828,0.3568272590637207,0.174559086561203,-9.780625343322754
1745732524.083527,0.011010880582034588,-0.0015795622020959854,0.00043101655319333076,0.19072853028774261,0.2590617537498474,-9.77522087097168
1745732524.086358,-0.0056279487907886505,-0.0029837165493518114,-0.0006512467516586185,0.3695064187049866,0.05859361216425896,-9.762018203735352
1745732524.1214993,0.007177828345447779,-0.003873676061630249,-0.0009576608426868916,0.20705711841583252,0.37040287256240845,-9.763757705688477
1745732524.12505,0.002059252467006445,-0.00019950707792304456,-0.0006145754596218467,0.31967440247535706,-0.0220643263310194,-9.845406532287598
1745732524.128209,0.0001125577837228775,-0.006235224660485983,0.001651982543990016,0.2678241729736328,0.35304519534111023,-9.730441093444824
1745732524.1315553,0.007090771105140448,-0.0013891304843127728,-0.0018722389359027147,0.25548720359802246,0.07168930768966675,-9.794426918029785
1745732524.1661391,-0.004755882546305656,-0.004082501865923405,0.00020075780048500746,0.3221190869808197,0.2709025740623474,-9.755075454711914
1745732524.1701741,0.010448317043483257,-0.001202789950184524,0.0005256730364635587,0.1954270899295807,0.1868414431810379,-9.801301956176758
1745732524.1702669,-0.00910274125635624,-0.003671228187158704,-0.0006264223484322429,0.36876603960990906,0.09375301003456116,-9.763822555541992
1745732524.1703155,0.009706759825348854,-0.002379948738962412,-0.0010978500358760357,0.20025348663330078,0.3570064604282379,-9.7798433303833
1745732524.1703506,-0.002859164495021105,-0.0013115436304360628,-7.0263399720715825e-06,0.32869476079940796,-0.008566992357373238,-9.809060096740723
1745732524.2062879,0.005291101522743702,-0.0044783237390220165,-0.00019248342141509056,0.23337718844413757,0.35895848274230957,-9.738762855529785
1745732524.2088246,0.0032667084597051144,0.00029977085068821907,1.9589811927289702e-05,0.27525702118873596,0.04573965072631836,-9.810547828674316
1745732524.2105253,-0.00219797994941473,-0.0055399551056325436,0.0007769083604216576,0.30331605672836304,0.291055291891098,-9.745080947875977
1745732524.213864,-0.004029750823974609,-0.000953635317273438,0.0013160973321646452,0.34510183334350586,0.02470780536532402,-9.840581893920898
1745732524.2483928,0.0077914344146847725,-0.0010972858872264624,0.001204948639497161,0.19882766902446747,0.34892982244491577,-9.767248153686523
1745732524.2527459,-0.00028795842081308365,0.0015658201882615685,0.0009980148170143366,0.3010716140270233,0.005304855294525623,-9.786727905273438
1745732524.2554293,0.002174154156818986,-0.0026507133152335882,0.0029969874303787947,0.2606590986251831,0.32079029083251953,-9.762304306030273
1745732524.2582922,0.00753365084528923,0.0030317758210003376,0.0004067080153618008,0.25244253873825073,0.052172303199768066,-9.846219062805176
1745732524.2606313,-0.007228993810713291,-0.0014168324414640665,0.0011068573221564293,0.31072744727134705,0.2447296679019928,-9.746053695678711
1745732524.2925417,0.011798204854130745,0.0010622573317959905,0.0010193188209086657,0.19045540690422058,0.20145878195762634,-9.788763999938965
1745732524.29409,-0.0068718246184289455,0.0009378527174703777,0.0014112131902948022,0.36763447523117065,0.07673247903585434,-9.794998168945312
1745732524.2953985,0.010384071618318558,-0.0003545543004292995,0.0029061702080070972,0.18305936455726624,0.3049687445163727,-9.782308578491211
1745732524.3065596,-0.0016681188717484474,0.0022878039162606,0.000630090304184705,0.3515443205833435,-0.009135216474533081,-9.783121109008789
1745732524.3354616,0.0032912432216107845,-0.0031523671932518482,0.0030438178218901157,0.22390082478523254,0.38295575976371765,-9.75486946105957
1745732524.3355074,0.005793554242700338,0.003238354343920946,-9.391221828991547e-05,0.26601672172546387,0.03383192792534828,-9.85920524597168
1745732524.336468,-0.003507683053612709,-0.0005177182029001415,0.0024882066063582897,0.3226431608200073,0.2702794373035431,-9.758719444274902
1745732524.3383975,0.010586956515908241,0.0016318820416927338,0.00069924455601722,0.21775653958320618,0.12953567504882812,-9.786582946777344
1745732524.339937,-0.008233364671468735,-0.0006221860530786216,0.0006349969189614058,0.35184425115585327,0.14322027564048767,-9.782112121582031
1745732524.379473,0.010830138809978962,0.0020028429571539164,0.0013361338060349226,0.1836419552564621,0.2785104811191559,-9.81704330444336
1745732524.3821137,-0.004855123348534107,0.002181291813030839,0.0022266388405114412,0.35767409205436707,0.026627738028764725,-9.810571670532227
1745732524.3846211,0.005191040225327015,-0.0018038473790511489,0.001221147016622126,0.21986787021160126,0.34475627541542053,-9.729719161987305
1745732524.3855226,0.0017826681723818183,0.0032052143942564726,0.0018151011317968369,0.3051128387451172,0.016656195744872093,-9.811968803405762
1745732524.4226112,-0.0012374867219477892,-0.0017145093297585845,0.0016469269758090377,0.28682655096054077,0.32888147234916687,-9.767091751098633
1745732524.4265447,0.008885574527084827,0.0035540678072720766,0.0010834537679329515,0.2286398857831955,0.09312473237514496,-9.82248592376709
1745732524.430658,-0.008708512410521507,-0.0008919026586227119,0.0006027782801538706,0.3637780547142029,0.09184752404689789,-9.768549919128418
1745732524.4347878,0.010139049962162971,0.00028507510432973504,0.0015265010297298431,0.21898499131202698,0.31910470128059387,-9.766057968139648
1745732524.4718108,-0.004179609473794699,0.0029038821812719107,0.002337660640478134,0.3511516749858856,0.009523406624794006,-9.818107604980469
1745732524.471869,0.0037975951563566923,-0.0014540782431140542,0.0026423309464007616,0.23032143712043762,0.36941176652908325,-9.742731094360352
1745732524.4719212,0.0051154508255422115,0.0030115183908492327,0.001633706851862371,0.2942579388618469,0.016286684200167656,-9.79985237121582
1745732524.4719691,-0.003435359103605151,-0.0025259226094931364,0.0025104160886257887,0.29516392946243286,0.2876614034175873,-9.767545700073242
1745732524.5055623,0.009521043859422207,0.001995998900383711,0.0016634960193186998,0.22593314945697784,0.1066070944070816,-9.817092895507812
1745732524.5088224,-0.007871152833104134,0.000600139144808054,0.002518271328881383,0.3475945293903351,0.1782388985157013,-9.75637149810791
1745732524.5114923,0.009756751358509064,0.0006666762055829167,0.0018294710898771882,0.1983029544353485,0.25427117943763733,-9.756288528442383
1745732524.5137413,-0.004683900624513626,0.00175461545586586,0.002075261203572154,0.3704054355621338,0.02102542482316494,-9.789398193359375
1745732524.517211,0.0055619035847485065,-0.0012521499302238226,0.0011171272490173578,0.20405471324920654,0.36794236302375793,-9.739435195922852
1745732524.55038,0.0020606392063200474,0.0030902083963155746,0.0023602850269526243,0.33560341596603394,-0.007378537207841873,-9.825626373291016
1745732524.5526826,-0.0008971178904175758,-0.002411139663308859,0.0007724814349785447,0.2699354887008667,0.338983952999115,-9.744431495666504
1745732524.5550568,0.007625672034919262,0.003554678987711668,0.0010530527215451002,0.24972955882549286,0.08264891058206558,-9.824223518371582
1745732524.5562403,-0.006212037988007069,-0.0029213312081992626,0.0017661023885011673,0.3404542803764343,0.19149544835090637,-9.760625839233398
1745732524.5936522,-0.003547854721546173,-0.00026075117057189345,0.0005531387869268656,0.34322047233581543,-0.008108898997306824,-9.818750381469727
1745732524.5948024,0.0032794505823403597,-0.003816187847405672,-0.00045811463496647775,0.26308366656303406,0.357027143239975,-9.741350173950195
1745732524.5961213,0.004297747276723385,0.0002942822757177055,-0.0011179493740200996,0.26968908309936523,0.026819223538041115,-9.805481910705566
1745732524.5983129,-0.004636700265109539,-0.003943963907659054,0.0009929393418133259,0.3008827567100525,0.2795165181159973,-9.754990577697754
1745732524.6357598,0.011263779364526272,0.001015528105199337,-0.0009617534233257174,0.21612302958965302,0.15299735963344574,-9.829939842224121
1745732524.6386075,-0.006496272049844265,-0.003529366571456194,-0.0003175876918248832,0.3661961555480957,0.1378168910741806,-9.742840766906738
1745732524.641219,0.010830005630850792,-0.0013675892259925604,0.0012122215703129768,0.1978679597377777,0.30344918370246887,-9.751193046569824
1745732524.6446257,-0.004220576025545597,-0.001665629679337144,-0.001494040829129517,0.34789666533470154,0.030990183353424072,-9.805232048034668
1745732524.6482973,0.005941468290984631,-0.002866386203095317,-0.0010638546664267778,0.22319912910461426,0.35685938596725464,-9.76335620880127
1745732524.678403,0.0018318451475352049,5.6362758186878636e-05,0.0007510437862947583,0.2950257956981659,0.011959636583924294,-9.821928024291992
1745732524.6817105,-0.0014773362781852484,-0.002937877783551812,-0.0009485746850259602,0.2913321554660797,0.32423844933509827,-9.730026245117188
1745732524.6818316,0.009194723330438137,-0.0013953478774055839,0.0006219923379831016,0.24311614036560059,0.09471910446882248,-9.802653312683105
1745732524.6834967,-0.007989447563886642,-0.003993653692305088,-0.0017014925833791494,0.3375380039215088,0.19764840602874756,-9.778704643249512
1745732524.7225442,0.01111903227865696,-9.550945833325386e-05,0.00021564755297731608,0.19640019536018372,0.2247706949710846,-9.789210319519043
1745732524.7256637,-0.006569862365722656,-0.003245291067287326,0.0006402783328667283,0.3706633448600769,0.05227058008313179,-9.791285514831543
1745732524.7260163,0.008298035711050034,-0.0025943112559616566,0.0003817882970906794,0.2162613868713379,0.36211341619491577,-9.765233993530273
1745732524.7272432,-0.001305576297454536,-0.0017971759662032127,-0.00017841425142250955,0.3363582491874695,0.00012193769362056628,-9.815134048461914
1745732524.7292948,0.0010120340157300234,-0.004241684917360544,0.0006465237820520997,0.26765385270118713,0.35852986574172974,-9.740884780883789
1745732524.7664607,0.005834919400513172,-0.0014259947929531336,-0.0015705249970778823,0.2553817331790924,0.05052868649363518,-9.829647064208984
1745732524.7680316,-0.0036406121216714382,-0.00396061921492219,0.000353105686372146,0.3227068781852722,0.25130099058151245,-9.75394058227539
1745732524.770507,0.009797703474760056,-0.0012357148807495832,0.0016581618692725897,0.20877346396446228,0.1951824277639389,-9.798782348632812
1745732524.7733173,-0.0038491631858050823,-0.0016223691636696458,0.0012919914443045855,0.3540549874305725,0.030357971787452698,-9.783658981323242
1745732524.8112094,0.006161472760140896,-0.0036205791402608156,-0.0015604083891957998,0.2052299678325653,0.35767239332199097,-9.753003120422363
1745732524.8113182,0.001407031319104135,-0.00037155175232328475,0.0015171841951087117,0.31950387358665466,0.012280702590942383,-9.835786819458008
1745732524.8132942,-0.0016499065095558763,-0.005268602631986141,0.0005742443026974797,0.28508347272872925,0.3387902081012726,-9.755338668823242
1745732524.8156013,0.008844234980642796,0.001433016499504447,0.0008448295993730426,0.24111180007457733,0.0963192880153656,-9.801946640014648
1745732524.8183298,-0.005029457621276379,-0.005022448021918535,0.0004393249691929668,0.3305439352989197,0.2151697427034378,-9.772195816040039
1745732524.8526144,0.010207967832684517,-0.00023440159566234797,-2.7879712433787063e-05,0.1915856897830963,0.20936472713947296,-9.815865516662598
1745732524.8552866,-0.006895551923662424,-0.0018747973954305053,0.002367276232689619,0.35388097167015076,0.08602903038263321,-9.797004699707031
1745732524.8569746,0.008291255682706833,-0.002601370681077242,0.0011910961475223303,0.18475404381752014,0.3379201889038086,-9.741320610046387
1745732524.859515,-0.00024057793780229986,8.916300430428237e-05,0.0020804698579013348,0.3229139447212219,0.00023941248946357518,-9.809893608093262
1745732524.9082851,0.001281636068597436,-0.005047336686402559,0.0015184544026851654,0.2461024969816208,0.3718741536140442,-9.777429580688477
1745732524.9083478,0.005632747896015644,0.0022125733084976673,0.002120076911523938,0.25656047463417053,0.02740267477929592,-9.839652061462402
1745732524.908396,-0.004738169256597757,-0.002896761056035757,0.00030445941956713796,0.3088749051094055,0.29206472635269165,-9.730152130126953
1745732524.9084332,0.009558847174048424,0.0012918192660436034,0.0015490567311644554,0.20249278843402863,0.17442522943019867,-9.782702445983887
1745732524.9373624,-0.007815229706466198,-0.003085946664214134,0.0014025268610566854,0.3539750277996063,0.10181145370006561,-9.80421257019043
1745732524.9411774,0.0026001003570854664,0.0007047805120237172,0.0007396444561891258,0.31357327103614807,-0.005549929570406675,-9.816679000854492
1745732524.9452555,-0.001031355350278318,-0.0011993700172752142,0.0009856700198724866,0.2841992974281311,0.3098211884498596,-9.759431838989258
1745732524.9479773,0.00826285034418106,0.002086476655676961,0.002342844847589731,0.2250211238861084,0.09105806052684784,-9.79609203338623
1745732524.9809,-0.008164207451045513,-0.0022792937234044075,0.00021201674826443195,0.3407280147075653,0.20354938507080078,-9.753320693969727
1745732524.9828706,0.012753697112202644,-0.0001682212168816477,0.0008204791811294854,0.19137687981128693,0.23597121238708496,-9.802383422851562
1745732524.9858809,-0.0063491761684417725,-0.00012917499407194555,0.00030371369211934507,0.3594832420349121,0.05705441161990166,-9.781721115112305
1745732524.9947298,0.009305013343691826,-0.0008420507656410336,0.0008887643925845623,0.21497395634651184,0.32731345295906067,-9.72517204284668
1745732524.994789,-0.001627378398552537,0.0007556797354482114,0.0005505142617039382,0.3399713635444641,0.015258923172950745,-9.809144973754883
1745732525.024698,0.0023385677486658096,-0.0030959206633269787,-0.000697661773301661,0.24322068691253662,0.35102373361587524,-9.779924392700195
1745732525.0261478,0.006652806885540485,0.003260203870013356,0.000280797656159848,0.27003368735313416,0.035337187349796295,-9.806028366088867
1745732525.026237,-0.005076299421489239,-0.0030953066889196634,-4.701488796854392e-05,0.3167031705379486,0.2751949429512024,-9.733202934265137
1745732525.0277178,0.011474641971290112,0.0013904690276831388,0.0012363395653665066,0.21045641601085663,0.15722186863422394,-9.81442928314209
1745732525.069598,-0.006258103996515274,-0.00017699995078146458,0.000632248935289681,0.3475559651851654,0.14218685030937195,-9.780964851379395
1745732525.073232,0.009983457624912262,-0.0020621498115360737,7.686484605073929e-05,0.20695097744464874,0.2998792827129364,-9.757806777954102
1745732525.0744922,-0.002468421123921871,0.000768454628996551,0.0004990143934264779,0.3521985113620758,0.011571517214179039,-9.786890029907227
1745732525.0800865,0.004683957435190678,-0.0018508242210373282,0.0009734045597724617,0.21974508464336395,0.3747759461402893,-9.758013725280762
1745732525.1087215,0.0015952432295307517,0.001379279070533812,-0.0004892011638730764,0.28843948245048523,0.015822846442461014,-9.839117050170898
1745732525.1124418,-0.0016183959087356925,-0.00339939771220088,0.00024497718550264835,0.2789452075958252,0.32086703181266785,-9.75338077545166
1745732525.1171176,0.009014634415507317,0.0014383638044819236,0.003119122004136443,0.2295335829257965,0.11329537630081177,-9.779577255249023
1745732525.1196141,-0.00888026226311922,-0.0015972042456269264,-0.0005991541547700763,0.3390498757362366,0.18082848191261292,-9.75783920288086
1745732525.1549556,-0.003573130816221237,0.00029959817766211927,0.0007779489969834685,0.34222304821014404,0.0069004250690341,-9.822774887084961
1745732525.1600804,0.004882868379354477,-0.004104993771761656,0.0019639821257442236,0.21891126036643982,0.38364288210868835,-9.737988471984863
1745732525.1601722,0.003157293889671564,0.0016561109805479646,0.0014990813797339797,0.28745120763778687,0.011534019373357296,-9.805931091308594
1745732525.160221,-0.003068438498303294,-0.003039573784917593,0.001841812627390027,0.30862388014793396,0.3032878041267395,-9.753307342529297
1745732525.160257,0.01201210543513298,0.0013235206715762615,-1.5937112038955092e-05,0.21250374615192413,0.14183789491653442,-9.811788558959961
1745732525.1970973,-0.007891828194260597,-0.0026943779084831476,0.0019291655626147985,0.34704795479774475,0.16394922137260437,-9.778416633605957
1745732525.1992555,0.011030439287424088,-0.0008759006741456687,0.0003694472252391279,0.18580812215805054,0.2679644227027893,-9.783480644226074
1745732525.2015352,-0.004887712188065052,0.0005238315789029002,0.0025259251706302166,0.3528934717178345,0.04207907244563103,-9.800036430358887
1745732525.2032719,0.005439250264316797,-0.0027366450522094965,0.0004685331950895488,0.20752575993537903,0.36163046956062317,-9.738870620727539
1745732525.2390559,0.0019406253704801202,0.0012506329221650958,0.0025747620966285467,0.30530208349227905,0.008299033157527447,-9.814374923706055
1745732525.2428374,-0.001468914793804288,-0.0017066104337573051,0.001324653858318925,0.2582879662513733,0.3220239281654358,-9.7484769821167
1745732525.2451408,0.007859337143599987,0.0025876243598759174,0.0017648469656705856,0.24098923802375793,0.06692580878734589,-9.825441360473633
1745732525.2462358,-0.0035290122032165527,-0.0017813991289585829,-0.00016484232037328184,0.3305814862251282,0.24479055404663086,-9.741461753845215
1745732525.2500124,0.01124495081603527,0.0003151542623527348,0.0033682279754430056,0.194867804646492,0.21518568694591522,-9.796244621276855
1745732525.3126776,-0.00857914425432682,-0.0009447449701838195,0.0001372166007058695,0.34089183807373047,0.09233148396015167,-9.792513847351074
1745732525.312799,0.004573161713778973,-0.0018539007287472486,0.00110094272531569,0.22622041404247284,0.36092883348464966,-9.737722396850586
1745732525.3129041,0.004563783761113882,0.0024142612237483263,0.0008774272864684463,0.3094782829284668,0.011283300817012787,-9.81144905090332
1745732525.3262112,-0.003370871301740408,-0.0021298895590007305,0.00022705151059199125,0.2965468168258667,0.2994089126586914,-9.75929069519043
1745732525.3284512,0.010238947346806526,0.0015024555614218116,0.0002636157732922584,0.22505012154579163,0.10845503956079483,-9.828508377075195
1745732525.3311763,-0.006635063793510199,-0.0031427834182977676,0.00031796644907444715,0.3532456159591675,0.17617928981781006,-9.76318645477295
1745732525.3321168,0.011567072942852974,0.00145534030161798,0.0011536796810105443,0.18646351993083954,0.27710583806037903,-9.757612228393555
1745732525.3359983,-0.005355781875550747,0.0009316504001617432,0.0012161266058683395,0.3754148781299591,0.02980963885784149,-9.78852653503418
1745732525.3688302,0.006221695337444544,-0.0009887281339615583,0.0007196061196736991,0.2032109498977661,0.35418063402175903,-9.772215843200684
1745732525.3715692,0.0016624644631519914,0.0024008750915527344,4.842991620535031e-05,0.3161708116531372,0.01234402321279049,-9.819689750671387
1745732525.3747768,0.00012375488586258143,-0.003644656389951706,0.0005802515079267323,0.2688101828098297,0.34625107049942017,-9.741597175598145
1745732525.378487,0.007095377892255783,0.0038422078359872103,0.0018945818301290274,0.25975966453552246,0.0742698535323143,-9.829036712646484
1745732525.4111755,-0.006194626446813345,-0.0025607526767998934,0.00047979698865674436,0.31976810097694397,0.2092413604259491,-9.758028030395508
1745732525.4148977,0.013222439214587212,0.0022083953954279423,0.0016637283843010664,0.20045816898345947,0.21872536838054657,-9.775293350219727
1745732525.4185731,-0.006519719958305359,-0.001290849526412785,-0.00046177860349416733,0.3526584506034851,0.1055915579199791,-9.779542922973633
1745732525.422018,0.006892496254295111,0.0002174716501031071,0.0012001704890280962,0.20501351356506348,0.31289783120155334,-9.784345626831055
1745732525.424802,-0.0021241954527795315,-0.0008407734567299485,0.00017241414752788842,0.3431973457336426,0.016918841749429703,-9.792252540588379
1745732525.4545343,0.002393705304712057,-0.001469803974032402,0.0016836042050272226,0.2584126591682434,0.3543911576271057,-9.727121353149414
1745732525.461821,0.005510538350790739,0.002128865569829941,0.0017631929367780685,0.30039963126182556,0.011995116248726845,-9.814129829406738
1745732525.461904,-0.002559403423219919,-0.004542761482298374,-9.183822839986533e-05,0.3146628439426422,0.3089783191680908,-9.751829147338867
1745732525.4619522,0.010851808823645115,0.0020480079110711813,0.0010141282109543681,0.21249186992645264,0.14098414778709412,-9.801651000976562
1745732525.4975793,-3.876239134115167e-05,-0.0004722942248918116,0.000842900772113353,0.3316423296928406,-0.01814674399793148,-9.803954124450684
1745732525.501706,0.0026411612052470446,-0.004030005540698767,0.0022056547459214926,0.25766605138778687,0.37904492020606995,-9.745728492736816
1745732525.5054395,0.005253463052213192,0.0003759835963137448,0.00024935166584327817,0.26846832036972046,0.016460394486784935,-9.84006118774414
1745732525.508766,-0.005298980511724949,-0.0019216574728488922,0.00034270380274392664,0.3195456266403198,0.2711654305458069,-9.752317428588867
1745732525.541952,0.012494158931076527,-0.0004643932916224003,0.0008869561133906245,0.1856110543012619,0.1808936595916748,-9.770700454711914
1745732525.546456,-0.006142277270555496,-0.0016808779910206795,0.0006575686275027692,0.36230331659317017,0.12491613626480103,-9.783469200134277
1745732525.5488098,0.009845620021224022,-0.0024907798506319523,0.0019317325204610825,0.18079257011413574,0.3267132639884949,-9.795636177062988
1745732525.553275,-0.0036716300528496504,-5.3961666708346456e-05,-0.0004460627678781748,0.33860182762145996,0.00031631291494704783,-9.780342102050781
1745732525.584895,0.005735429935157299,-0.003205765737220645,0.000996879767626524,0.22804108262062073,0.36807981133461,-9.729608535766602
1745732525.5875692,0.003972124774008989,-0.0006796155357733369,0.0012637400068342686,0.2873500883579254,0.038388267159461975,-9.830469131469727
1745732525.5896938,-0.002968928776681423,-0.00340297631919384,-0.0011664240155369043,0.2879611849784851,0.30778583884239197,-9.768233299255371
1745732525.5913768,0.007786854170262814,0.0018245575483888388,0.0013732442166656256,0.23508897423744202,0.12675310671329498,-9.804423332214355
1745732525.626424,-0.007073022425174713,-0.0035035826731473207,0.0013474577572196722,0.33988896012306213,0.16972844302654266,-9.742971420288086
1745732525.6299155,0.013389606960117817,-0.0008124717278406024,0.00018575269496068358,0.18973605334758759,0.2660049796104431,-9.784021377563477
1745732525.6329365,-0.006694575306028128,0.0005784727400168777,-8.279560279333964e-05,0.34490513801574707,0.058510564267635345,-9.829927444458008
1745732525.6358142,0.0010982488747686148,-0.002154665533453226,0.0010222846176475286,0.245904803276062,0.35476621985435486,-9.736834526062012
1745732525.6712894,0.005814794450998306,0.0023314112331718206,0.0015074190450832248,0.28014832735061646,0.01488651055842638,-9.80920696258545
1745732525.6723993,-0.004244060721248388,-0.0033014058135449886,-0.0004070959403179586,0.3136705458164215,0.2836329936981201,-9.757018089294434
1745732525.6739748,0.009714582934975624,0.0013260304694995284,0.0015523791080340743,0.22253338992595673,0.13720130920410156,-9.815597534179688
1745732525.6764016,-0.005857391282916069,-0.000912977266125381,0.0024234179873019457,0.3741585612297058,0.13270871341228485,-9.75840950012207
1745732525.6779556,0.011693594977259636,-0.0014209693763405085,-0.0002512918144930154,0.2014237344264984,0.2986566126346588,-9.767931938171387
1745732525.7139807,-0.0028363391757011414,0.0018729768926277757,0.0033774678595364094,0.3499733805656433,0.012583889067173004,-9.819801330566406
1745732525.7168913,0.003955009859055281,-0.005731767974793911,0.00040351279312744737,0.22404888272285461,0.3639315962791443,-9.760917663574219
1745732525.7267225,0.004502224735915661,0.002135364804416895,0.0018009577179327607,0.32041218876838684,0.004527461249381304,-9.797548294067383
1745732525.7267942,-0.0017202303279191256,-0.002289345720782876,-0.0001487015251768753,0.28304433822631836,0.3266843259334564,-9.74435806274414
1745732525.7558181,0.008679661899805069,0.001431826502084732,0.001943394890986383,0.2272363007068634,0.10061321407556534,-9.829821586608887
1745732525.7598805,-0.007408273871988058,-0.0023301858454942703,0.0009764416026882827,0.3434976637363434,0.17356713116168976,-9.758428573608398
1745732525.7636993,0.013532047159969807,0.0008047028677538037,0.000631751783657819,0.20432618260383606,0.23384273052215576,-9.781393051147461
1745732525.765921,-0.007531564682722092,-0.001410262193530798,0.0025301403366029263,0.36347734928131104,0.07894563674926758,-9.785578727722168
1745732525.7977314,0.00937243364751339,-0.001683353097178042,-0.0002904365537688136,0.20137238502502441,0.34106844663619995,-9.768216133117676
1745732525.7999756,-0.0010414181742817163,0.004246908705681562,0.0025369708891958,0.3289889395236969,-0.015699051320552826,-9.817625999450684
1745732525.8024635,0.003327279817312956,-0.002928705420345068,0.001048161298967898,0.25149253010749817,0.3543742597103119,-9.739151000976562
1745732525.8038802,0.006116613745689392,0.001390255056321621,0.0013483369257301092,0.2619628608226776,0.01995108462870121,-9.80681037902832
1745732525.8048706,-0.006271661259233952,-0.0022787894122302532,0.002314890269190073,0.3335304260253906,0.2655021548271179,-9.763184547424316
1745732525.8425846,0.012456589378416538,0.002187164966017008,-0.0004637706442736089,0.209957093000412,0.1881967931985855,-9.811432838439941
1745732525.8449426,0.00011927373998332769,0.0004903529188595712,0.001054759486578405,0.33702436089515686,-0.011558559723198414,-9.816202163696289
1745732525.8475473,0.0009205242386087775,-0.0024551167152822018,0.0005150864599272609,0.2730026841163635,0.3635310232639313,-9.742830276489258
1745732525.849027,0.008286787196993828,0.0007758886204101145,0.001203845371492207,0.25622907280921936,0.04369819164276123,-9.828248977661133
1745732525.8835948,-0.006339579820632935,-0.0034475375432521105,0.0015525424387305975,0.3295944631099701,0.23231986165046692,-9.775708198547363
1745732525.8869762,0.012675337493419647,0.0003281210665591061,-0.0002795377222355455,0.20603609085083008,0.1997794657945633,-9.794865608215332
1745732525.8923326,-0.008038787171244621,-0.0028280008118599653,0.00014808170089963824,0.35279735922813416,0.08665192872285843,-9.783528327941895
1745732525.892469,0.009457006119191647,-0.0013758919667452574,0.001410306547768414,0.19096961617469788,0.35428935289382935,-9.768376350402832
1745732525.8925662,-0.002610492752864957,-0.00029087430448271334,0.0017096286173909903,0.34345757961273193,-0.01553524099290371,-9.809154510498047
1745732525.9301872,0.0027410625480115414,-0.0026152024511247873,0.0006043279427103698,0.2412291020154953,0.36407285928726196,-9.736116409301758
1745732525.9326854,0.006550551392138004,-0.001532120630145073,0.0002337539626751095,0.2709863781929016,0.037698257714509964,-9.817422866821289
1745732525.9358764,-0.0032479926012456417,-0.001672764541581273,0.002117019146680832,0.28396469354629517,0.2980284094810486,-9.769685745239258
1745732525.9377983,0.011201044544577599,0.0006370785413309932,5.321784919942729e-05,0.21750140190124512,0.13631175458431244,-9.80496597290039
1745732525.970382,-0.006333035416901112,-0.002817569300532341,0.001128190546296537,0.3553839325904846,0.14911536872386932,-9.76630973815918
1745732525.9759529,0.011501635424792767,-0.002294030273333192,0.001039629802107811,0.18996885418891907,0.27588289976119995,-9.778812408447266
1745732525.9854035,-0.004060289356857538,-0.0007361007737927139,0.0015948709333315492,0.3652026057243347,0.03439492732286453,-9.803925514221191
1745732525.9854805,0.007913162931799889,-0.00266001233831048,0.0027064529713243246,0.1904071569442749,0.3717924952507019,-9.753947257995605
1745732526.0136828,0.003452570643275976,0.004403247497975826,0.002229131292551756,0.24908661842346191,0.049259286373853683,-9.82652473449707
1745732526.0167253,-0.007552876137197018,-0.0015469101490452886,0.0016836735885590315,0.29980215430259705,0.25234904885292053,-9.764832496643066
1745732526.0267825,0.008658478036522865,0.001823734724894166,0.003346181707456708,0.20788955688476562,0.1567869484424591,-9.790204048156738
1745732526.029025,-0.010412055067718029,0.0014686435461044312,0.001958450535312295,0.3524892330169678,0.10044483840465546,-9.799689292907715
1745732526.0571246,0.00700357323512435,-0.0004575905913952738,0.0009420071728527546,0.1826488971710205,0.317748099565506,-9.766615867614746
1745732526.0601583,-0.008797645568847656,0.0008051572367548943,0.0004516585322562605,0.352783203125,-0.013895997777581215,-9.777273178100586
1745732526.0634646,0.0019676839001476765,-0.0015952885150909424,0.0027969807852059603,0.22645917534828186,0.3710896968841553,-9.739028930664062
1745732526.0688956,0.0007505997782573104,0.003153109923005104,0.0036654628347605467,0.28856685757637024,0.016375098377466202,-9.844200134277344
1745732526.0729454,-0.006928699556738138,-0.0024405820295214653,0.0026363953948020935,0.2928265929222107,0.29020291566848755,-9.765299797058105
1745732526.1006284,0.006201562471687794,0.0016851179534569383,0.0022852392867207527,0.22587959468364716,0.1480601727962494,-9.788263320922852
1745732526.1027355,-0.0071711912751197815,-0.0026378438342362642,-0.00011147977784276009,0.37585991621017456,0.1657894104719162,-9.779020309448242
1745732526.104973,0.011179044842720032,0.0020204216707497835,0.002274379599839449,0.2019115388393402,0.28604063391685486,-9.804649353027344
1745732526.1074274,-0.005433299578726292,-0.0007720495341345668,0.0008051838958635926,0.3644988536834717,0.0760727971792221,-9.814229965209961
1745732526.1504748,0.00900622271001339,-0.0028395741246640682,0.0032702782191336155,0.22810664772987366,0.37927812337875366,-9.752697944641113
1745732526.1506963,0.002273877616971731,0.0019921530038118362,-0.00013811378448735923,0.32675036787986755,0.011623266153037548,-9.803707122802734
1745732526.1508634,0.0031629125587642193,-0.004383356310427189,-0.0008082754793576896,0.2762046754360199,0.349334716796875,-9.751747131347656
1745732526.1544123,0.009855039417743683,0.0010507989209145308,0.0001343588373856619,0.25763124227523804,0.04929649084806442,-9.81464958190918
1745732526.1576138,-0.0025946747045964003,-0.0027319020591676235,0.0020679014269262552,0.3383426070213318,0.21977229416370392,-9.731366157531738
1745732526.1971467,0.013688432984054089,0.0008613219251856208,-0.003657335415482521,0.1955716609954834,0.20420894026756287,-9.777984619140625
1745732526.1972651,-0.0056837256997823715,-0.0005916642840020359,0.0010602500988170505,0.37087035179138184,0.07147964835166931,-9.80274772644043
1745732526.1973522,0.0016576271736994386,0.0022651569452136755,-0.0002566042821854353,0.3108656406402588,-0.002282863948494196,-9.828123092651367
1745732526.2282653,0.00036052073119208217,-0.005710798781365156,0.00044930027797818184,0.26823291182518005,0.3465062081813812,-9.741711616516113
1745732526.2311196,0.008317457512021065,0.0016187314176931977,-0.0004945531254634261,0.2438400238752365,0.09181267768144608,-9.801004409790039
1745732526.2314415,-0.006032421253621578,-0.0031341505236923695,0.0001282550219912082,0.3338460326194763,0.20972692966461182,-9.740551948547363
1745732526.2337313,0.012044149450957775,-0.0008369364077225327,0.0005728824762627482,0.1876552700996399,0.22884099185466766,-9.809717178344727
1745732526.2351265,-0.004930972121655941,-0.001538925338536501,-0.0001973071339307353,0.37370553612709045,0.060018740594387054,-9.790693283081055
1745732526.2720475,0.008350411430001259,-0.0008176303235813975,0.00121974921785295,0.18921998143196106,0.3533693850040436,-9.757303237915039
1745732526.2745848,-0.0012235267786309123,0.000687138584908098,-0.001805089763365686,0.33628714084625244,-0.01919000782072544,-9.809550285339355
1745732526.2775786,0.0008543340372852981,-0.005661897361278534,0.000841735047288239,0.26147717237472534,0.3500586748123169,-9.75738525390625
1745732526.280736,0.004525403026491404,0.000682856363710016,0.0012674627359956503,0.29349130392074585,0.025117134675383568,-9.790029525756836
1745732526.315967,-0.005851288791745901,-0.003516362514346838,0.0005631119711324573,0.3329401910305023,0.255188524723053,-9.736230850219727
1745732526.3181028,0.01067448128014803,7.191651093307883e-05,-0.0007257093675434589,0.20719261467456818,0.1881982982158661,-9.831128120422363
1745732526.3197184,-0.00807334017008543,-0.0014288261299952865,-0.0008125714957714081,0.36790114641189575,0.1271713674068451,-9.785795211791992
1745732526.3230941,0.00885641947388649,-0.0018399718683212996,0.0006732201436534524,0.20521792769432068,0.2907225489616394,-9.752174377441406
1745732526.3231988,-0.003972208593040705,-0.0020459238439798355,-0.0005738316685892642,0.3680684566497803,0.03026408888399601,-9.785679817199707
1745732526.360472,0.006288760341703892,-0.00405570724979043,-0.0009823332075029612,0.22217008471488953,0.3785201907157898,-9.746255874633789
1745732526.3640637,-0.006583780981600285,-0.0036715068854391575,0.001883725286461413,0.32860034704208374,0.22400379180908203,-9.759149551391602
1745732526.367847,0.011918310075998306,-0.00022658720263279974,0.001596054993569851,0.20460443198680878,0.2107812464237213,-9.820355415344238
1745732526.369716,-0.006366307847201824,-0.0018977634608745575,0.0008582902955822647,0.36474665999412537,0.07292954623699188,-9.768571853637695
1745732526.4012575,0.00921622384339571,-0.0010693719377741218,0.0012359556276351213,0.19617968797683716,0.3400880992412567,-9.735197067260742
1745732526.4040782,-0.0026701665483415127,0.00044217566028237343,0.0009806648595258594,0.35062769055366516,0.004067026078701019,-9.841150283813477
1745732526.4201097,0.0035207208711653948,-0.005267157685011625,0.001380235655233264,0.2290438860654831,0.3676201403141022,-9.769210815429688
1745732526.42025,0.005609193351119757,0.0036452740896493196,0.0017097804229706526,0.2805406451225281,0.03064311482012272,-9.79947280883789
1745732526.4203234,-0.0052376389503479,-0.003990615718066692,0.0009914879919961095,0.3131919503211975,0.28009241819381714,-9.730087280273438
1745732526.4450657,0.011543454602360725,0.002154102548956871,0.0020785329397767782,0.20452861487865448,0.18535718321800232,-9.82543659210205
1745732526.446953,-0.006196987349539995,-0.0012104049092158675,0.0012251291191205382,0.35810142755508423,0.12937793135643005,-9.794967651367188
1745732526.449139,0.01251259632408619,-0.0009306466090492904,0.0017783523071557283,0.19121357798576355,0.3026477098464966,-9.754197120666504
1745732526.449691,-0.003761952044442296,0.00015205265663098544,0.0019619951490312815,0.34332630038261414,0.020059773698449135,-9.802563667297363
1745732526.4880643,0.00485107209533453,-0.0007614996284246445,0.0013576162746176124,0.22407515347003937,0.35916805267333984,-9.756948471069336
1745732526.4893212,0.004811489023268223,0.0021695615723729134,0.0013636673102155328,0.30507799983024597,0.01429046131670475,-9.82713508605957
1745732526.4916165,-0.001843554899096489,-0.0037810704670846462,0.0011795416940003633,0.2839351296424866,0.3051212430000305,-9.737882614135742
1745732526.495936,0.009768693707883358,0.0009238208876922727,0.0026335257571190596,0.22323408722877502,0.09213845431804657,-9.827779769897461
1745732526.531155,-0.006242819596081972,-0.0019779368303716183,0.00045002164551988244,0.33592793345451355,0.1964329481124878,-9.81446647644043
1745732526.5338337,0.011701148934662342,0.0015743840485811234,0.0015659842174500227,0.17946621775627136,0.23942895233631134,-9.783149719238281
1745732526.5374377,-0.004123660735785961,0.0004707344342023134,0.0005447125877253711,0.34727662801742554,0.05314189940690994,-9.781373977661133
1745732526.5400677,0.007995438762009144,-0.0025475039146840572,0.0009470105287618935,0.18291601538658142,0.347847580909729,-9.763384819030762
1745732526.5411618,-6.845183816039935e-05,0.0007457627216354012,-0.0006439565913751721,0.31898340582847595,-0.015324965119361877,-9.828506469726562
1745732526.5726779,0.005846971180289984,0.0008412938332185149,0.0011201065499335527,0.29855412244796753,0.01120082102715969,-9.779894828796387
1745732526.5794275,-0.004689679481089115,-0.002294459380209446,0.0004487150290515274,0.3019210696220398,0.2903819978237152,-9.754325866699219
1745732526.5795083,0.010202409699559212,0.0011889805318787694,0.00027227698592469096,0.2231355905532837,0.10721635818481445,-9.832869529724121
1745732526.579546,-0.00721041951328516,-0.0018839456606656313,-9.898697317112237e-05,0.357232928276062,0.17234191298484802,-9.769081115722656
1745732526.617745,0.011245650239288807,0.0016353882383555174,0.0012565518263727427,0.19062179327011108,0.2508271336555481,-9.762199401855469
1745732526.6214561,-0.004895091988146305,0.00021506837219931185,0.0010623387061059475,0.3786149322986603,0.021633246913552284,-9.776997566223145
1745732526.6231992,0.00921399611979723,-0.0007019154727458954,0.002603665692731738,0.21261683106422424,0.3648892045021057,-9.767960548400879
1745732526.623729,1.2563541531562805e-06,0.0011338030453771353,-0.0005065390141680837,0.3154817819595337,-0.015478149056434631,-9.840899467468262
1745732526.6594596,-0.0016409127274528146,-0.004243138711899519,0.0006809282349422574,0.2796131670475006,0.34089893102645874,-9.704329490661621
1745732526.6627245,0.008321044035255909,0.002945026382803917,-5.1898230594815686e-05,0.24586868286132812,0.06744451820850372,-9.802495002746582
1745732526.6670806,-0.0058482796885073185,-0.004683499224483967,-0.0005330298445187509,0.3337535262107849,0.20672480762004852,-9.79090404510498
1745732526.6707084,0.010355440899729729,0.0025068758986890316,0.0012639493215829134,0.2048494815826416,0.22235700488090515,-9.773351669311523
1745732526.6758792,-0.007199682295322418,-0.0007264617597684264,-0.001082610571756959,0.3436049818992615,0.06986071914434433,-9.755638122558594
1745732526.7023911,0.01168147288262844,-0.002077559009194374,0.00016788933135103434,0.1981693059206009,0.3305155336856842,-9.777077674865723
1745732526.7037427,-0.0032987366430461407,0.0008647406357340515,0.002786606550216675,0.33781367540359497,0.01627179980278015,-9.824975967407227
1745732526.7066073,-0.005520085338503122,-0.0016924182418733835,0.0006764300051145256,0.3508825898170471,0.07285799831151962,-9.806863784790039
1745732526.710789,0.006514998618513346,-0.0022672810591757298,0.0002405399427516386,0.19570426642894745,0.3794385492801666,-9.775391578674316
1745732526.744191,0.0008401647210121155,0.0007465452654287219,0.0019443914061412215,0.3222162127494812,-0.009258931502699852,-9.799973487854004
1745732526.7471688,0.00017965864390134811,-0.002769248094409704,0.0006590996054001153,0.2450384795665741,0.3686577379703522,-9.749309539794922
1745732526.7483082,0.006869046483188868,0.002645832020789385,0.0017642363673076034,0.23489832878112793,0.06505818665027618,-9.844560623168945
1745732526.7507303,-0.0057753464207053185,-0.003168290015310049,0.00010562038369243965,0.323221355676651,0.24036414921283722,-9.745984077453613
1745732526.7532175,0.011423264630138874,0.0010193471098318696,0.003661687718704343,0.20206525921821594,0.21410150825977325,-9.769868850708008
1745732526.789107,-0.005261146929115057,-0.002480429597198963,-3.510833630571142e-05,0.3562370538711548,0.08759276568889618,-9.799445152282715
1745732526.7905185,0.011106100864708424,-0.00048056658124551177,0.002978754695504904,0.1916186362504959,0.32264503836631775,-9.788536071777344
1745732526.793968,-0.002870669588446617,0.0010338590946048498,0.0023970729671418667,0.3316875398159027,-0.0001617491216165945,-9.799728393554688
1745732526.7948604,0.003125221934169531,-0.0029961306136101484,0.0019846518989652395,0.2485056221485138,0.3835194706916809,-9.753771781921387
1745732526.8305671,0.0024319596122950315,0.0017743967473506927,0.001338363392278552,0.27445513010025024,0.04138381779193878,-9.844354629516602
1745732526.8343945,-0.0034251033794134855,-0.0027123424224555492,0.00036587566137313843,0.2780858278274536,0.2914000153541565,-9.762988090515137
1745732526.8447685,0.012839746661484241,0.002538227941840887,0.0017104826401919127,0.23391585052013397,0.13542911410331726,-9.819684982299805
1745732526.8449159,-0.00778216402977705,-0.002230573445558548,0.0022512085270136595,0.34362444281578064,0.15766607224941254,-9.770403861999512
1745732526.8457859,0.01122131198644638,0.00035735947312787175,0.000669412431307137,0.1782994419336319,0.26696014404296875,-9.794013977050781
1745732526.874795,-0.005602870136499405,0.0005653510452248156,0.000760826573241502,0.34377533197402954,0.051955096423625946,-9.81524658203125
1745732526.8779728,0.006554390303790569,-0.0009529025992378592,0.0030707193072885275,0.21217095851898193,0.3533395230770111,-9.754778861999512
1745732526.8792078,-0.000352412840584293,0.0009597159805707633,-0.00010163839760934934,0.304130494594574,-0.007732636295258999,-9.797475814819336
1745732526.8807735,-0.0008596552652306855,-0.003530748188495636,0.003616524860262871,0.27915871143341064,0.3432963788509369,-9.750828742980957
1745732526.9202585,0.007343869656324387,0.004702585283666849,0.0012552683474496007,0.25235581398010254,0.07636699825525284,-9.8230562210083
1745732526.9231067,-0.0077294884249567986,-0.0021320797968655825,0.0030585937201976776,0.32221081852912903,0.2166603058576584,-9.752873420715332
1745732526.9251108,0.0040497081354260445,0.004460669122636318,0.0008975844830274582,0.2538369297981262,0.032135382294654846,-9.838714599609375
1745732526.940487,-0.0036015394143760204,-0.0033936016261577606,0.001993426587432623,0.30189913511276245,0.27878689765930176,-9.761414527893066
1745732526.9621856,0.008030219003558159,0.0025845691561698914,0.0001496687182225287,0.22194266319274902,0.12913979589939117,-9.807031631469727
1745732526.965663,-0.006619703955948353,-0.0014613029779866338,0.004605748690664768,0.34255558252334595,0.165744811296463,-9.781950950622559
1745732526.9671938,0.010674800723791122,0.001035461900755763,0.0018461678409948945,0.18951167166233063,0.27227288484573364,-9.77164363861084
1745732526.9682798,-0.0059287212789058685,0.0013995838817209005,0.0014489330351352692,0.3466222882270813,0.016906311735510826,-9.80121898651123
1745732527.0091453,0.005774620920419693,-0.001386958290822804,0.0006419305573217571,0.22245755791664124,0.3762614130973816,-9.780632019042969
1745732527.0095887,0.002422934863716364,0.002247229451313615,0.001756554120220244,0.3087690472602844,-0.01315887551754713,-9.806962966918945
1745732527.0097122,-0.003305058926343918,-0.0008068831521086395,0.0008218555594794452,0.27156633138656616,0.334211528301239,-9.725618362426758
1745732527.0113306,0.009491315111517906,0.0037276395596563816,0.0015622969949617982,0.24958772957324982,0.08642131090164185,-9.818756103515625
1745732527.0157518,-0.009452808648347855,-0.0010384961497038603,0.0011175823165103793,0.3426053524017334,0.2089511603116989,-9.781549453735352
1745732527.048211,0.011628573760390282,0.0023058480583131313,0.0015668028499931097,0.18340644240379333,0.24366411566734314,-9.770418167114258
1745732527.051496,-0.006090821698307991,0.0001809983077691868,0.0015618317993357778,0.35842397809028625,0.05611254647374153,-9.776193618774414
1745732527.0546844,0.006241192575544119,0.0009702698444016278,0.0019627257715910673,0.18627232313156128,0.34895315766334534,-9.782108306884766
1745732527.0585482,0.0023404774256050587,0.0012209098786115646,0.0011105781886726618,0.32497692108154297,-0.010081099346280098,-9.826204299926758
1745732527.0900755,-0.0003608187544159591,-0.004446623381227255,0.0003526571090333164,0.2804216146469116,0.350541353225708,-9.73228645324707
1745732527.0914335,0.009539268910884857,-0.0005952760111540556,-0.0013883741339668632,0.2501128315925598,0.056178949773311615,-9.804171562194824
1745732527.0952659,-0.007550816051661968,-0.0031421869061887264,0.0011280366452410817,0.3425357937812805,0.24534198641777039,-9.779783248901367
1745732527.1096122,0.012595504522323608,-0.0002596864360384643,0.0006306577706709504,0.21889154613018036,0.1860298216342926,-9.810491561889648
1745732527.132307,-0.006435364484786987,-0.0015340727986767888,0.0006060245214030147,0.36492976546287537,0.08740995824337006,-9.766549110412598
1745732527.134733,0.011433483101427555,-0.0032817504834383726,-0.0005432968027889729,0.21751567721366882,0.34430399537086487,-9.740568161010742
1745732527.135604,-0.002628431422635913,-0.0005067602032795548,4.192069354758132e-06,0.3410722613334656,-0.017639178782701492,-9.820345878601074
1745732527.1378298,0.004700248129665852,-0.004841493908315897,0.0003595475573092699,0.2442295253276825,0.3702210783958435,-9.761314392089844
1745732527.1458712,0.005724393762648106,0.0007779679144732654,0.0003897881251759827,0.31107014417648315,0.00912669487297535,-9.808286666870117
1745732527.175428,-0.0041629052720963955,-0.005727079696953297,0.0016790777444839478,0.32081636786460876,0.29929786920547485,-9.742181777954102
1745732527.1781855,0.009610207751393318,-0.0003601258504204452,0.0004986810381524265,0.2197963297367096,0.14327023923397064,-9.799161911010742
1745732527.1814554,-0.006953262723982334,-0.004882922861725092,-0.002009701682254672,0.3589187562465668,0.1331346482038498,-9.762033462524414
1745732527.1847785,0.011666541919112206,-0.002749475184828043,0.0006742196273989975,0.1933870017528534,0.27082735300064087,-9.777758598327637
1745732527.2181444,-0.005768470000475645,-0.0009153553983196616,0.00025685704895295203,0.344814658164978,0.03411468118429184,-9.797586441040039
1745732527.2215664,0.006752687506377697,-0.004818095825612545,9.692739695310593e-05,0.21743857860565186,0.3539697527885437,-9.745678901672363
1745732527.224386,0.0002719856856856495,-0.0007413915009237826,0.0010874142171815038,0.31409794092178345,-0.005119876470416784,-9.832704544067383
1745732527.2275178,-0.0008669659728184342,-0.0049344333820044994,0.0012190070701763034,0.267573744058609,0.3293640613555908,-9.735595703125
1745732527.242153,0.007513736374676228,-0.0009638153132982552,0.0009305660496465862,0.2622322142124176,0.07715649902820587,-9.809853553771973
1745732527.2768548,-0.005942151416093111,-0.004689478315412998,0.0016051495913416147,0.34329092502593994,0.21747124195098877,-9.777050018310547
1745732527.2769816,0.01261436752974987,-0.002176242182031274,0.0009926767088472843,0.18537330627441406,0.23018953204154968,-9.801847457885742
1745732527.2770329,-0.006921585649251938,-0.003005432663485408,0.0009526910143904388,0.36277642846107483,0.05207277089357376,-9.765364646911621
1745732527.2770855,0.009193815290927887,-0.005575235467404127,0.0017157573020085692,0.21169248223304749,0.3557424247264862,-9.760775566101074
1745732527.3116882,-0.0037586905527859926,-0.005576527677476406,0.0034886368084698915,0.33025556802749634,0.2802812457084656,-9.750597953796387
1745732527.3144927,0.009297003038227558,-0.0011801684740930796,-0.0006584966322407126,0.21144239604473114,0.1671391874551773,-9.801877975463867
1745732527.3183491,-0.006648424081504345,-0.004035710357129574,0.0010899316985160112,0.35275188088417053,0.13581858575344086,-9.77405834197998
1745732527.3215687,0.010126971639692783,-0.0032953512854874134,0.0012988639064133167,0.19603507220745087,0.3059569299221039,-9.76557445526123
1745732527.3472452,-0.00452108308672905,-0.0010533819440752268,-0.00019375592819415033,0.35309135913848877,0.012038874439895153,-9.820368766784668
1745732527.3509827,0.005611608270555735,-0.004337723832577467,0.002656251424923539,0.20943574607372284,0.3859073519706726,-9.780397415161133
1745732527.354114,0.001482074148952961,-0.0019460618495941162,0.0003042911703232676,0.29334181547164917,0.004220960196107626,-9.819235801696777
1745732527.3558803,-0.002177885267883539,-0.0032080509699881077,0.0014017345383763313,0.27071866393089294,0.351950466632843,-9.73221492767334
1745732527.3580506,0.009814687073230743,-0.0020380676724016666,0.0007162261172197759,0.24056001007556915,0.08903054147958755,-9.817753791809082
1745732527.3909945,-0.007568116299808025,-0.0049281250685453415,0.0007759011350572109,0.3354148268699646,0.20946738123893738,-9.771966934204102
1745732527.3936334,0.011768343858420849,-0.0008032646146602929,0.0014648016076534986,0.17681236565113068,0.26422545313835144,-9.7923002243042
1745732527.4077697,-0.006110689602792263,-0.0034775130916386843,0.0015417265240103006,0.3723992109298706,0.041988715529441833,-9.777318000793457
1745732527.4079275,0.008049311116337776,-0.003974312450736761,0.000853310979437083,0.18374225497245789,0.3550463616847992,-9.750497817993164
1745732527.4353719,0.007618242409080267,-0.0012656876351684332,0.0013661134289577603,0.19567205011844635,0.35702061653137207,-9.769174575805664
1745732527.4354413,0.0030498558189719915,0.0026211112271994352,0.001223006402142346,0.30941885709762573,-0.010751627385616302,-9.825132369995117
1745732527.4371092,-0.0010349545627832413,-0.0036236844025552273,0.0017514850478619337,0.2667916715145111,0.31961673498153687,-9.751314163208008
1745732527.4407957,0.009241374209523201,0.0035291207022964954,0.0008035612991079688,0.24448049068450928,0.06373541057109833,-9.82705020904541
1745732527.4763687,-0.005887232255190611,-0.0012004051823168993,0.0006132045527920127,0.31144458055496216,0.22866936028003693,-9.7584228515625
1745732527.4812305,0.01066881325095892,0.0020349803380668163,0.002353489864617586,0.2048683613538742,0.176188126206398,-9.806164741516113
1745732527.4839814,-0.006526034325361252,-0.0010565470438450575,0.001122725079767406,0.37052038311958313,0.0754331722855568,-9.79775619506836
1745732527.4868355,0.009361137636005878,0.0002426199644105509,0.0007119063520804048,0.17814292013645172,0.3322548568248749,-9.760787010192871
1745732527.5217445,-0.0013981371885165572,0.0010849585523828864,0.0009786864975467324,0.3331194519996643,-0.03351109102368355,-9.799799919128418
1745732527.523245,0.0021371194161474705,-0.002981798257678747,0.0014869634760543704,0.24112503230571747,0.38017162680625916,-9.74643611907959
1745732527.5233462,0.004612723831087351,0.0035609486512839794,0.0017478701192885637,0.2915767431259155,-0.0042975530959665775,-9.833412170410156
1745732527.5253909,-0.0035537027288228273,-0.002769113052636385,0.0013330245856195688,0.3084220290184021,0.27663832902908325,-9.747797012329102
1745732527.5691786,0.012312592938542366,0.0036810629535466433,-0.0006281097885221243,0.2131718099117279,0.15841789543628693,-9.795024871826172
1745732527.569362,-0.006595451384782791,-0.002519619185477495,0.0008910559117794037,0.35465994477272034,0.12062422186136246,-9.782574653625488
1745732527.569438,0.010014086961746216,0.0011501859407871962,0.0010563461109995842,0.189629465341568,0.2800849378108978,-9.779658317565918
1745732527.5694916,-0.004609443247318268,0.0008001915994100273,0.0011658906005322933,0.37204790115356445,0.027673328295350075,-9.788704872131348
1745732527.570697,0.007045745849609375,-0.001806835294701159,0.0014296830631792545,0.21849346160888672,0.3685983121395111,-9.753283500671387
1745732527.6131968,0.0004966843989677727,0.003504850436002016,0.0010193072957918048,0.3100251257419586,-0.007848752662539482,-9.821932792663574
1745732527.6133213,0.00030456724925898015,-0.004832438193261623,0.001666023745201528,0.2739502191543579,0.3121798634529114,-9.749885559082031
1745732527.6149971,0.00817544013261795,0.0033368661534041166,7.768429350107908e-05,0.2533756196498871,0.05490837246179581,-9.812138557434082
1745732527.6184456,-0.0073500522412359715,-0.003372856881469488,0.0022528592962771654,0.34056881070137024,0.20348386466503143,-9.756957054138184
1745732527.6492138,0.012067672796547413,0.0002605655463412404,0.0015708159189671278,0.20446021854877472,0.21504011750221252,-9.795302391052246
1745732527.653765,-0.003655275795608759,-0.0025817258283495903,0.00017614112584851682,0.3253360986709595,0.24710042774677277,-9.748296737670898
1745732527.6573877,0.009043650701642036,-0.000577496481128037,-0.00032701180316507816,0.21414871513843536,0.1589755415916443,-9.80648136138916
1745732527.6591287,-0.0066407970152795315,-0.0007847605156712234,0.0006594862788915634,0.3535798192024231,0.12894579768180847,-9.772527694702148
1745732527.662188,0.011835510842502117,-0.0003187195979990065,-0.00021605422080028802,0.20099493861198425,0.3009662926197052,-9.779289245605469
1745732527.6923423,-0.005307803396135569,-0.0011321684578433633,0.002279064152389765,0.3409678339958191,0.02696365676820278,-9.784257888793945
1745732527.6950147,0.0035359528847038746,-0.0033384058624505997,-0.0011429889127612114,0.23967786133289337,0.3323058485984802,-9.728593826293945
1745732527.6963325,0.0029147365130484104,0.0007627947488799691,0.0005357209010981023,0.31397372484207153,-0.010861722752451897,-9.844746589660645
1745732527.6983304,-0.0021643550135195255,-0.0032808321993798018,-0.00015971940592862666,0.27560508251190186,0.3354937434196472,-9.772302627563477
1745732527.7412813,0.00829790998250246,0.0006996238371357322,0.0004648504254873842,0.24124154448509216,0.07613041251897812,-9.817337036132812
1745732527.7413838,-0.0071388790383934975,-0.003503325628116727,0.001516571268439293,0.3496161699295044,0.192704975605011,-9.747737884521484
1745732527.7414603,0.01135189551860094,-0.0004478870832826942,-0.0014428767608478665,0.1988324224948883,0.2528589367866516,-9.787074089050293
1745732527.7420607,-0.006638632155954838,-0.0011268116068094969,0.0016983747482299805,0.36974138021469116,0.041287414729595184,-9.793095588684082
1745732527.744542,0.008501912467181683,-0.0003089022939093411,0.000236187013797462,0.18168726563453674,0.363963782787323,-9.77212142944336
1745732527.780733,-0.0012160034384578466,-0.0014637077692896128,-0.00021097101853229105,0.3160119652748108,-0.011758933775126934,-9.809260368347168
1745732527.783376,0.007699149660766125,-0.001791237504221499,0.00019111321307718754,0.19628019630908966,0.36329805850982666,-9.7545747756958
1745732527.785791,0.00010162535909330472,0.003977441228926182,0.0028746798634529114,0.3120284676551819,0.00017340853810310364,-9.840042114257812
1745732527.7885425,0.00013702790602110326,-0.0022623867262154818,0.0030736494809389114,0.2683683931827545,0.3323807418346405,-9.743735313415527
1745732527.8225095,0.009076067246496677,0.0034835878759622574,0.000796190113760531,0.24435433745384216,0.08855508267879486,-9.796777725219727
1745732527.8344567,-0.005958166904747486,-0.0015446845209226012,0.0013670354383066297,0.3285883069038391,0.23919883370399475,-9.762266159057617
1745732527.8345864,0.012537771835923195,0.0010398791637271643,0.0017272329423576593,0.1973259299993515,0.19882239401340485,-9.836332321166992
1745732527.8346908,-0.006119227968156338,0.00041580438846722245,0.0017432644963264465,0.35149332880973816,0.07682714611291885,-9.779391288757324
1745732527.862758,0.009927780367434025,-0.000962160702329129,0.001137695275247097,0.20649783313274384,0.33543092012405396,-9.737415313720703
1745732527.865743,-0.0017047347500920296,0.002580431755632162,0.0008434941992163658,0.347298800945282,-0.00592960137873888,-9.825235366821289
1745732527.8675983,0.0028712365310639143,7.339520379900932e-06,0.002454072702676058,0.22972175478935242,0.3857007920742035,-9.769018173217773
1745732527.869254,0.006039399653673172,0.00174542551394552,0.0016673665959388018,0.2931591272354126,0.016372602432966232,-9.80511474609375
1745732527.8712711,-0.0040627107955515385,-0.0030352207832038403,0.0020139061380177736,0.30917415022850037,0.28414225578308105,-9.749201774597168
1745732527.9082246,0.010129687376320362,0.003170247422531247,8.207722567021847e-05,0.21549952030181885,0.15791888535022736,-9.822778701782227
1745732527.9112368,-0.007985061034560204,0.00015396457456517965,0.0026279701851308346,0.35365694761276245,0.1474541425704956,-9.78200626373291
1745732527.9145231,0.01284368522465229,0.0013786663766950369,0.0003672257880680263,0.19126656651496887,0.2923364043235779,-9.766082763671875
1745732527.9168324,-0.0055522071197628975,0.002848811214789748,0.002939840778708458,0.35076552629470825,0.021884525194764137,-9.798795700073242
1745732527.9498982,0.007271127309650183,-0.002089201472699642,-0.00021324520639609545,0.2029884308576584,0.3597490191459656,-9.755534172058105
1745732527.951408,0.0025546294637024403,0.0031696935184299946,0.0024399408139288425,0.30426618456840515,0.01466054655611515,-9.836771011352539
1745732527.9540699,-0.001747921691276133,-0.0016118775820359588,0.0007170875323936343,0.25658804178237915,0.32530373334884644,-9.752052307128906
1745732527.9551892,0.008918201550841331,0.00352902221493423,0.0016218594973906875,0.2482948750257492,0.06336162239313126,-9.79228401184082
1745732527.9591851,-0.005116605665534735,0.00011744992661988363,0.00014540119445882738,0.349404513835907,0.1971098929643631,-9.760553359985352
1745732528.0016856,0.011971012689173222,0.0021269177086651325,0.0027000121772289276,0.18652388453483582,0.20880213379859924,-9.82214069366455
1745732528.0017786,-0.00496264360845089,-0.0008655466372147202,0.002380883786827326,0.29510965943336487,0.2822151780128479,-9.73522663116455
1745732528.0018563,0.011366738937795162,0.00320797273889184,-0.00042748841224238276,0.216832235455513,0.15920887887477875,-9.801044464111328
1745732528.0019035,-0.00673857843503356,0.0005053408676758409,0.00224564247764647,0.3701218068599701,0.1185929924249649,-9.804732322692871
1745732528.0368843,0.009924184530973434,0.001690779230557382,0.0012498425785452127,0.17625267803668976,0.3053966164588928,-9.793707847595215
1745732528.0389912,-0.004948140121996403,0.0015862879808992147,0.001954666106030345,0.36744359135627747,0.015489461831748486,-9.771674156188965
1745732528.0411427,0.005806385539472103,-0.0007802979671396315,0.0011890813475474715,0.21386754512786865,0.36868929862976074,-9.736692428588867
1745732528.0446742,0.0025819935835897923,0.003100205212831497,0.001171722775325179,0.30036649107933044,-0.003013723064213991,-9.841667175292969
1745732528.0787535,-0.0013429245445877314,-0.001544353668577969,0.0012890950310975313,0.2851490378379822,0.32637250423431396,-9.745692253112793
1745732528.0802069,0.00904205720871687,0.0022649671882390976,0.001653413288295269,0.25636714696884155,0.08361517637968063,-9.782770156860352
1745732528.0809984,-0.007247260306030512,-0.00044485050602816045,0.0011758783366531134,0.34542447328567505,0.20846815407276154,-9.751696586608887
1745732528.0902336,0.012324279174208641,0.0029823738150298595,0.0018695887411013246,0.1983180046081543,0.22235774993896484,-9.823664665222168
1745732528.0931191,-0.0075947316363453865,-1.896745561680291e-05,0.0010159045923501253,0.38268470764160156,0.06151919439435005,-9.801043510437012
1745732528.1218684,0.00792056042701006,0.0006866165203973651,0.0016689766198396683,0.2204054594039917,0.3715694546699524,-9.730464935302734
1745732528.1243804,-0.001986963441595435,0.0012612686259672046,0.0024022201541811228,0.3397040069103241,-0.03915845602750778,-9.80445384979248
1745732528.1261828,-0.005780343431979418,-0.001913542626425624,0.0006667239358648658,0.37787333130836487,0.028356987982988358,-9.788558006286621
1745732528.1379511,0.008740246295928955,-0.0020014389883726835,0.0008462377591058612,0.20695893466472626,0.3831833600997925,-9.764688491821289
1745732528.1663406,2.5853141778497957e-05,0.00027609895914793015,-0.0012811627238988876,0.30746403336524963,-0.02829575538635254,-9.815330505371094
1745732528.1685302,0.00034787357435561717,-0.005658014677464962,0.00011350620479788631,0.2643406391143799,0.3466506600379944,-9.734811782836914
1745732528.1714234,0.009893941693007946,0.0004454340669326484,0.0005033814813941717,0.26613110303878784,0.051685117185115814,-9.807411193847656
1745732528.1748364,-0.005795733537524939,-0.0041498178616166115,0.0007512732408940792,0.32355010509490967,0.232629656791687,-9.758209228515625
1745732528.2078695,0.012080143205821514,-0.001668635057285428,0.001106092007830739,0.21472886204719543,0.20879511535167694,-9.810676574707031
1745732528.2126114,-0.00664921011775732,-0.00213851360604167,-0.0008178032003343105,0.3630616068840027,0.07869666814804077,-9.772390365600586
1745732528.2152624,0.00981266051530838,-0.00370324170216918,-0.0005384294781833887,0.2037818878889084,0.3007480204105377,-9.751412391662598
1745732528.218125,-0.0018353331834077835,-0.0016548645216971636,-0.0004048954288009554,0.3491312265396118,-0.017221877351403236,-9.815193176269531
1745732528.2313526,0.006321991793811321,-0.0050522927194833755,-0.0001021668067551218,0.23339538276195526,0.3788720965385437,-9.760329246520996
1745732528.252706,0.004754544701427221,0.0009057199349626899,0.0008181703160516918,0.299343466758728,0.0036266862880438566,-9.81065845489502
1745732528.2552876,-0.0019286388996988535,-0.006151743698865175,-0.0006737943040207028,0.2881905138492584,0.28603023290634155,-9.735376358032227
1745732528.2572842,0.009148010052740574,-0.002118258271366358,-0.0004114675393793732,0.2413158118724823,0.14228855073451996,-9.823468208312988
1745732528.2604575,-0.0075364671647548676,-0.0030741351656615734,-0.0005645931232720613,0.3604344427585602,0.16010788083076477,-9.762857437133789
1745732528.2937799,0.01107912976294756,-0.0025832781102508307,0.00010457399912411347,0.1872386932373047,0.2655829191207886,-9.759244918823242
1745732528.2956038,-0.004671725444495678,-0.0035141699481755495,-0.00029975699726492167,0.3616127073764801,0.01130540668964386,-9.794663429260254
1745732528.2998421,0.009097371250391006,-0.0030001942068338394,-0.0005432292819023132,0.21729132533073425,0.36926791071891785,-9.774421691894531
1745732528.3030057,0.001167929731309414,-0.0016905765514820814,0.00021939589350949973,0.33945247530937195,-0.028455549851059914,-9.813969612121582
1745732528.3063767,-0.0021430235356092453,-0.004438431467860937,-0.001078349188901484,0.26643598079681396,0.34643056988716125,-9.725564002990723
1745732528.3400025,0.008373699150979519,0.0008523485739715397,0.0007793352706357837,0.23971843719482422,0.07362724840641022,-9.838263511657715
1745732528.3423605,-0.007434419356286526,-0.004245155956596136,-0.0007559695513918996,0.33201512694358826,0.21804578602313995,-9.765844345092773
1745732528.3462849,-0.004860641900449991,-0.00452573224902153,0.0015238206833600998,0.3034081757068634,0.2719840407371521,-9.746923446655273
1745732528.3511703,0.009014025330543518,-0.0027151359245181084,-0.0003091702237725258,0.23271989822387695,0.1580887734889984,-9.807622909545898
1745732528.3800159,-0.007933596149086952,-0.0009713195031508803,-0.0008234366541728377,0.37788957357406616,0.12569501996040344,-9.772748947143555
1745732528.3806224,0.011266330257058144,-0.0024121117312461138,-0.0006251969607546926,0.18377777934074402,0.31186026334762573,-9.771838188171387
1745732528.3827753,-0.006280423607677221,-0.002077691024169326,0.00036270817508921027,0.3525693714618683,0.04502415657043457,-9.809588432312012
1745732528.383884,0.008399741724133492,-0.0035984262358397245,-0.0019837087020277977,0.21461543440818787,0.3855050504207611,-9.754758834838867
1745732528.4238677,0.0007383387419395149,-0.0005987535114400089,-0.00019504016381688416,0.3042895793914795,0.010419993661344051,-9.802387237548828
1745732528.4272053,-0.0006328707677312195,-0.004342027474194765,-0.0003383304865565151,0.2946334183216095,0.3381592631340027,-9.729146957397461
1745732528.432956,0.00877382792532444,-0.000826611474622041,-0.002675684867426753,0.2332259714603424,0.09939822554588318,-9.838312149047852
1745732528.4377244,-0.0070289866998791695,-0.004358083941042423,-0.00011090414045611396,0.3290906250476837,0.2247319221496582,-9.764737129211426
1745732528.442981,0.012267900630831718,0.0008761514909565449,-0.001117131905630231,0.19813700020313263,0.2395702302455902,-9.7785005569458
1745732528.4691646,-0.005628407001495361,-0.0049195969477295876,-0.0022208828013390303,0.36367204785346985,0.07524597644805908,-9.796330451965332
1745732528.4692485,0.00691618025302887,-0.0039940206333994865,0.00040334471850655973,0.19461138546466827,0.35224881768226624,-9.7742919921875
1745732528.4709945,-0.00048033910570666194,0.0005139546701684594,-0.0003688600263558328,0.3306492269039154,0.008724738843739033,-9.82461929321289
1745732528.4737895,-0.004252222366631031,0.0006694653420709074,0.002528262557461858,0.369848370552063,0.03740381449460983,-9.791837692260742
1745732528.5122972,0.006611530669033527,-0.0011241460451856256,0.002634872682392597,0.20672182738780975,0.36847367882728577,-9.75238037109375
1745732528.5160644,0.0015948365908116102,0.001708273426629603,-5.226844223216176e-05,0.28711652755737305,0.012032954022288322,-9.849953651428223
1745732528.5174592,-8.972008072305471e-05,-0.0023873387835919857,0.002165073761716485,0.26803991198539734,0.3227541148662567,-9.755231857299805
1745732528.5208678,0.0099739208817482,0.0028401361778378487,0.0003549783141352236,0.23361292481422424,0.08437319099903107,-9.813520431518555
1745732528.5526233,-0.0060630072839558125,-0.001377869863063097,0.0018350019818171859,0.3306296467781067,0.21517038345336914,-9.750446319580078
1745732528.5544932,0.012303158640861511,0.0013556790072470903,0.0034461289178580046,0.19363634288311005,0.2275664061307907,-9.811559677124023
1745732528.557349,-0.00786153506487608,0.0012820330448448658,0.0013015246950089931,0.35176101326942444,0.06779957562685013,-9.807145118713379
1745732528.560594,0.010368010960519314,-0.0002986336185131222,0.0034786600153893232,0.1952788084745407,0.3315642178058624,-9.754141807556152
1745732528.5633671,-0.0018007971812039614,0.0008120083366520703,0.001615039655007422,0.34190455079078674,0.00036393702612258494,-9.801470756530762
1745732528.5985155,0.0017151696374639869,-0.001542766229249537,0.001566434628330171,0.2425021231174469,0.35214829444885254,-9.741350173950195
1745732528.6000867,0.006420321762561798,0.0026102408301085234,0.0016962051158770919,0.2615612745285034,0.030449677258729935,-9.841891288757324
1745732528.6029284,-0.0047700307331979275,0.00042716777534224093,0.0030880754347890615,0.3165711462497711,0.26320135593414307,-9.769221305847168
1745732528.6057425,0.01214677281677723,0.0020936932414770126,0.0006898752180859447,0.20766453444957733,0.13182014226913452,-9.795540809631348
1745732528.6411655,-0.006005140952765942,-0.0007840906037017703,0.002566216280683875,0.35341745615005493,0.11895883083343506,-9.764116287231445
1745732528.6438158,0.009104610420763493,0.00012508108920883387,0.0021062572486698627,0.19617800414562225,0.29037731885910034,-9.775225639343262
1745732528.6474326,-0.0037165298126637936,0.0022503614891320467,0.0006919085863046348,0.35887429118156433,0.009265324100852013,-9.811613082885742
1745732528.6499386,0.006135015748441219,-0.001153753837570548,0.002755038905888796,0.2295616865158081,0.35521048307418823,-9.7445650100708
1745732528.688347,0.0030136879067867994,0.0037281843833625317,0.002986686769872904,0.3036276400089264,3.550127075868659e-05,-9.802188873291016
1745732528.6884634,-0.004026348702609539,-0.0015838772524148226,0.00214526173658669,0.28582701086997986,0.3182050287723541,-9.763699531555176
1745732528.6885405,0.011244742199778557,0.003362713847309351,0.00020194528042338789,0.22105786204338074,0.10509660094976425,-9.818076133728027
1745732528.6887271,-0.007605564780533314,0.00017209057114087045,0.0039873281493783,0.348812073469162,0.16998565196990967,-9.759928703308105
1745732528.6914434,-0.00632017757743597,-0.001001922762952745,-0.0004899360937997699,0.31626495718955994,0.26088109612464905,-9.76104736328125
1745732528.7269406,0.011400490999221802,0.0038343488704413176,0.0038755261339247227,0.19619491696357727,0.21571055054664612,-9.794590950012207
1745732528.734403,-0.0073159439489245415,0.001096548861823976,0.0019860926549881697,0.3720473647117615,0.07180815935134888,-9.786141395568848
1745732528.7393484,0.010424261912703514,0.00015281481319107115,0.002560096327215433,0.19263045489788055,0.33730199933052063,-9.757006645202637
1745732528.7416556,-0.0039860159158706665,0.002594290766865015,0.0009737148648127913,0.34892114996910095,-0.0029436678159981966,-9.808328628540039
1745732528.7690973,0.004114069975912571,-0.0007399640744552016,0.0022755193058401346,0.23935970664024353,0.3679967522621155,-9.747995376586914
1745732528.7725377,0.0034579739440232515,0.003832160960882902,0.0025589135475456715,0.27192988991737366,0.0260244719684124,-9.814376831054688
1745732528.775436,-0.0034042946062982082,-0.0018391190096735954,0.0018669974524527788,0.3188757300376892,0.2755714952945709,-9.738916397094727
1745732528.786928,0.010727301239967346,0.003240917343646288,0.002113433089107275,0.23242966830730438,0.14594601094722748,-9.79148006439209
1745732528.7870324,-0.006924209650605917,-0.0002051185874734074,0.0020177161786705256,0.36503151059150696,0.17045925557613373,-9.767926216125488
1745732528.8127933,0.009231334552168846,0.001569424057379365,0.003061129478737712,0.19293324649333954,0.26649871468544006,-9.768966674804688
1745732528.8166733,-0.004018534906208515,0.0008297637104988098,0.0018318656366318464,0.3541181981563568,0.02819310501217842,-9.792927742004395
1745732528.8187745,0.004198242444545031,-0.0006283660186454654,0.0018539177253842354,0.22992797195911407,0.3706679940223694,-9.753140449523926
1745732528.8218768,0.002205879660323262,0.004757790360599756,0.00206926790997386,0.3106129765510559,-0.008551983162760735,-9.826382637023926
1745732528.8571613,-0.0007386371726170182,-0.0009686498087830842,-8.204187906812876e-05,0.34493547677993774,-0.006819908507168293,-9.80981159210205
1745732528.8593178,0.0032687478233128786,-0.0033586169593036175,0.002017237013205886,0.24905626475811005,0.35383471846580505,-9.752090454101562
1745732528.8649273,0.005398293491452932,-0.0019055859884247184,0.0014422262320294976,0.2811511754989624,0.04064341261982918,-9.815326690673828
1745732528.865038,-0.0030914118979126215,-0.004727499559521675,0.00026359412004239857,0.3185090124607086,0.2844146192073822,-9.733513832092285
1745732528.8999646,0.010564099997282028,0.0003321971162222326,0.001194331212900579,0.2077702283859253,0.1679350733757019,-9.794428825378418
1745732528.9046109,-0.006308150477707386,-0.004048656206578016,0.0011632172390818596,0.3790142834186554,0.11171329021453857,-9.794636726379395
1745732528.9074779,0.011770633049309254,-0.0030984925106167793,0.0006205763202160597,0.19773109257221222,0.3187817633152008,-9.760310173034668
1745732528.9101012,-0.0022366244811564684,-0.0004815927823074162,0.0015395751688629389,0.34466928243637085,0.03600689768791199,-9.793466567993164
1745732528.93902,0.005867200903594494,-0.0067162709310650826,0.0005949226324446499,0.23968248069286346,0.37892815470695496,-9.761592864990234
1745732528.9414487,0.003606485202908516,-0.001381880370900035,0.0015728132566437125,0.3040353059768677,0.02156517468392849,-9.81784439086914
1745732528.951525,-0.001403588568791747,-0.0037578665651381016,-3.518590165185742e-05,0.2918008267879486,0.31099700927734375,-9.748543739318848
1745732528.9515967,0.009100108407437801,-0.0007019784534350038,-0.001442433102056384,0.22410288453102112,0.1061416044831276,-9.810577392578125
1745732528.9516604,-0.005861356854438782,-0.005561408121138811,0.0024382895790040493,0.3523465394973755,0.18961986899375916,-9.763157844543457
1745732528.98544,0.012371006421744823,-0.0037722946144640446,0.0007345633348450065,0.20477977395057678,0.2521534562110901,-9.779134750366211
1745732528.9880972,-0.004815507680177689,-0.0029491730965673923,0.0001227881875820458,0.36408886313438416,0.04047765955328941,-9.813048362731934
1745732528.9918725,0.008448339067399502,-0.003683037357404828,0.0001485511165810749,0.2041698396205902,0.3709682822227478,-9.754907608032227
1745732528.9942913,0.0006499409792013466,-0.0020394984167069197,-0.0019235510844737291,0.3212362825870514,-0.011860666796565056,-9.801082611083984
1745732529.0262003,0.0024493704549968243,-0.00698175560683012,0.002407300751656294,0.26725172996520996,0.3405429422855377,-9.756677627563477
1745732529.0296762,0.008973942138254642,0.000905444088857621,-0.0005657626315951347,0.2586948871612549,0.05918002128601074,-9.80117416381836
1745732529.0440416,-0.0057568904012441635,-0.006091282702982426,0.0005232972907833755,0.32847484946250916,0.2186582088470459,-9.750048637390137
1745732529.04636,0.011793406680226326,-0.0032412640284746885,0.0010129164438694715,0.19283929467201233,0.2476269006729126,-9.813481330871582
1745732529.070503,-0.004370358772575855,-0.0032970018219202757,-0.0016600813250988722,0.35188028216362,0.15183612704277039,-9.793420791625977
1745732529.0721095,0.010191471315920353,-0.0017410917207598686,0.0018477709963917732,0.19538286328315735,0.2942967712879181,-9.78294563293457
1745732529.0733123,-0.003366763237863779,-0.001704988768324256,0.00103520427364856,0.34804460406303406,0.016375891864299774,-9.813325881958008
1745732529.0743327,0.006814447231590748,-0.0038190342020243406,0.0008505475707352161,0.21215955913066864,0.37299442291259766,-9.764274597167969
1745732529.1166806,0.002224347088485956,-0.00197214144282043,-0.0006117508746683598,0.3050798773765564,0.0008234043489210308,-9.822148323059082
1745732529.1167638,-0.002683557104319334,-0.003358788089826703,0.0023991852067410946,0.2904493808746338,0.30855593085289,-9.772762298583984
1745732529.1192074,0.009372693486511707,1.8704682815950946e-06,0.0008785452810116112,0.23403266072273254,0.10097799450159073,-9.82499885559082
1745732529.1218274,-0.0067249201238155365,-0.0028808501083403826,0.0007382304174825549,0.3317956328392029,0.18375274538993835,-9.754826545715332
1745732529.124268,0.010975668206810951,-0.0023554498329758644,0.0009966451907530427,0.1900029331445694,0.2552400231361389,-9.804304122924805
1745732529.1575863,-0.005703170783817768,-0.0001265563041670248,0.0005174115649424493,0.3541988730430603,0.047228120267391205,-9.805952072143555
1745732529.1607335,0.005851626396179199,-0.003261994570493698,0.0006589061813428998,0.17815807461738586,0.33693569898605347,-9.750524520874023
1745732529.163851,-0.0002472881169524044,0.0026703488547354937,0.0013018151512369514,0.31441962718963623,0.015424266457557678,-9.818731307983398
1745732529.1663868,-0.0010559785878285766,-0.0029567950405180454,0.0006282702088356018,0.2418634444475174,0.3539397716522217,-9.76567554473877
1745732529.1987095,0.0050811185501515865,0.0013945569517090917,0.000208091878448613,0.2536066174507141,0.052972424775362015,-9.831489562988281
1745732529.2093213,-0.007093495223671198,-0.0022587853018194437,0.0003213754389435053,0.32160836458206177,0.23710837960243225,-9.737425804138184
1745732529.2106926,0.005798078142106533,-0.0020892105530947447,0.00016661272093188018,0.21754762530326843,0.3580791652202606,-9.729279518127441
1745732529.2107923,0.00380648672580719,0.0020209751091897488,0.0006831871578469872,0.28804200887680054,0.01783296838402748,-9.817519187927246
1745732529.2137794,-0.0013228419702500105,-0.0011536614038050175,0.002054192591458559,0.2965281009674072,0.30212607979774475,-9.754922866821289
1745732529.2419872,0.009749206714332104,0.0029926756396889687,0.0008356621256098151,0.24023714661598206,0.12780798971652985,-9.805987358093262
1745732529.2439911,-0.007122363895177841,-0.001044012955389917,0.001384831964969635,0.3580218255519867,0.18868884444236755,-9.755624771118164
1745732529.2516015,0.010777628049254417,0.001907010213471949,-0.0002714403090067208,0.190216526389122,0.2622678875923157,-9.790854454040527
1745732529.2516506,-0.004438937641680241,-0.0019633150659501553,0.001055610948242247,0.3515026271343231,0.029122132807970047,-9.800738334655762
1745732529.2839775,0.00659530982375145,0.00036360303056426346,0.0010863527422770858,0.20963215827941895,0.36106157302856445,-9.75273609161377
1745732529.2871532,0.00022183413966558874,0.002222934737801552,-0.0005950643680989742,0.32952895760536194,0.01342046819627285,-9.821011543273926
1745732529.289703,0.00028524556546472013,-0.003107205731794238,0.0004518554196693003,0.2754449248313904,0.3510025143623352,-9.733476638793945
1745732529.2931294,0.0070906043983995914,0.002979156095534563,0.0020187529735267162,0.24530625343322754,0.06981375813484192,-9.824505805969238
1745732529.2957973,-0.003967038355767727,-0.0007081037038005888,0.0004063228552695364,0.33296871185302734,0.2258646935224533,-9.762206077575684
1745732529.329576,0.01145176775753498,0.0011987697798758745,0.000926136621274054,0.21388478577136993,0.2205921709537506,-9.789271354675293
1745732529.3324142,-0.0076417578384280205,-0.0008503780700266361,0.002114224014803767,0.37346091866493225,0.07127057015895844,-9.766477584838867
1745732529.3371232,0.009436110034584999,6.833094812463969e-05,0.0019826963543891907,0.2090933620929718,0.34983307123184204,-9.777856826782227
1745732529.3477597,-0.00298478570766747,0.0027960981242358685,0.0010306609328836203,0.330667644739151,0.00998544879257679,-9.80579948425293
1745732529.3813114,0.003700369969010353,-0.0031249169260263443,0.0016343437600880861,0.27030178904533386,0.34526023268699646,-9.723154067993164
1745732529.3814433,0.004985411651432514,0.0036303114611655474,0.0015456252731382847,0.27834445238113403,0.03838619589805603,-9.807046890258789
1745732529.3815248,-0.0038573984056711197,-0.0022240125108510256,-0.0009495968115516007,0.3051101565361023,0.29914581775665283,-9.749078750610352
1745732529.3815975,0.010394386015832424,0.0007897726027294993,0.0008617735584266484,0.22143001854419708,0.14157035946846008,-9.805718421936035
1745732529.418019,-0.007027869112789631,0.0006250403239391744,0.0005533478106372058,0.3694886863231659,0.14647290110588074,-9.757896423339844
1745732529.419792,-0.005766748916357756,-0.001070941099897027,0.0011469293385744095,0.3699410855770111,0.05241354554891586,-9.805241584777832
1745732529.421455,0.008832721039652824,-0.0020995705854147673,0.002223928924649954,0.19053485989570618,0.3370659351348877,-9.744819641113281
1745732529.4264476,-0.0015687334816902876,0.0019525621319189668,0.0004894769517704844,0.3308506906032562,-0.0037852704990655184,-9.810099601745605
1745732529.4286616,0.0026151519268751144,-0.004535030573606491,0.003793212817981839,0.2610832750797272,0.36159834265708923,-9.768351554870605
1745732529.4572358,0.005505768116563559,0.0020154169760644436,-0.0034930738620460033,0.2632122039794922,0.03868734836578369,-9.808614730834961
1745732529.4595351,-0.005563424900174141,-0.0031099964398890734,0.002890277188271284,0.3329593241214752,0.23552803695201874,-9.727550506591797
1745732529.4608455,0.011242092587053776,-0.0009142161579802632,0.0012778470991179347,0.21733470261096954,0.19227422773838043,-9.805279731750488
1745732529.4639363,-0.005093966610729694,-0.0019282752182334661,0.0007569486042484641,0.3715461790561676,0.10379262268543243,-9.793737411499023
1745732529.5012224,0.008470560424029827,-0.00017702477634884417,0.002314132871106267,0.1884741187095642,0.3307824730873108,-9.759092330932617
