timestamp,angular_vel_x,angular_vel_y,angular_vel_z,linear_acc_x,linear_acc_y,linear_acc_z
1745738049.3776019,0.008052553981542587,0.00214671203866601,0.0011692771222442389,0.12610623240470886,-0.41145119071006775,-9.796136856079102
1745738049.3777049,-0.0028248815797269344,-0.0010560776572674513,0.0003702588437590748,0.24725556373596191,-0.465654194355011,-9.771440505981445
1745738049.3777568,0.0044096834026277065,-0.00438059214502573,0.0006104955682530999,0.0900096595287323,-0.22158770263195038,-9.797015190124512
1745738049.3788428,0.0013962098164483905,0.0017038264777511358,-0.0005625829799100757,0.2136029452085495,-0.48729467391967773,-9.811688423156738
1745738049.4165964,-0.0001561214157845825,-0.00370575743727386,0.0019570307340472937,0.16710264980793,-0.2652808129787445,-9.729283332824707
1745738049.4187303,0.006572435609996319,0.0016466726083308458,0.0016263474244624376,0.13483591377735138,-0.3943220376968384,-9.805924415588379
1745738049.4209843,-0.004367781803011894,-0.003919363487511873,0.0013693091459572315,0.23556435108184814,-0.3525015413761139,-9.771434783935547
1745738049.423479,0.007091561798006296,0.0006728197913616896,0.0007494288147427142,0.09017517417669296,-0.3101768493652344,-9.785456657409668
1745738049.4578452,-0.002714855130761862,-0.00244068237952888,0.0018538963049650192,0.25755900144577026,-0.45378559827804565,-9.765059471130371
1745738049.4616168,0.005663183517754078,-0.0015777333173900843,0.0007699767011217773,0.09780341386795044,-0.23724202811717987,-9.77659797668457
1745738049.4616878,0.0028613959439098835,0.0020528314635157585,-0.0014539249241352081,0.221725732088089,-0.4847564697265625,-9.802419662475586
1745738049.4641492,-0.0004905316745862365,-0.0018815172370523214,0.0031501755584031343,0.15242509543895721,-0.24641554057598114,-9.763320922851562
1745738049.466788,0.008061520755290985,0.0011876154458150268,-3.603361619752832e-05,0.13653333485126495,-0.42384234070777893,-9.803462028503418
1745738049.5030103,-0.004078962840139866,-0.003904854878783226,0.001301439362578094,0.22690212726593018,-0.337197482585907,-9.775296211242676
1745738049.5083778,0.00412315409630537,0.002819016110152006,0.00038974342169240117,0.18953965604305267,-0.4612436294555664,-9.788915634155273
1745738049.5120907,-0.0007151782629080117,-0.0026718126609921455,0.0026236767880618572,0.18675315380096436,-0.2768576145172119,-9.747282981872559
1745738049.5166776,0.005780261941254139,0.0009663435630500317,-0.0006016373517923057,0.11087942123413086,-0.3886081278324127,-9.792160987854004
1745738049.5465534,-0.002904030028730631,-5.827993300044909e-05,0.0026934132911264896,0.2633805572986603,-0.3904106020927429,-9.774444580078125
1745738049.5476625,0.007182078901678324,-0.0001796334545360878,0.001000519492663443,0.07611199468374252,-0.2756124436855316,-9.783215522766113
1745738049.5542727,-0.002277931896969676,0.0007634888170287013,3.330810068291612e-05,0.2550656199455261,-0.4784882068634033,-9.782410621643066
1745738049.5543106,0.005780362524092197,-0.0012954769190400839,0.0024251299910247326,0.11937633901834488,-0.23073749244213104,-9.776082992553711
1745738049.5548782,0.001896436559036374,0.0020002268720418215,0.00023095263168215752,0.21207933127880096,-0.47429031133651733,-9.801490783691406
1745738049.5907855,-0.0014980152482166886,-0.0026139910332858562,0.0012236684560775757,0.17586500942707062,-0.274109423160553,-9.758700370788574
1745738049.593324,0.0060022203251719475,0.0022829619701951742,-5.5150274420157075e-05,0.11520922183990479,-0.3788532614707947,-9.782812118530273
1745738049.6013596,-0.0042100101709365845,-0.0020169210620224476,0.0011813364690169692,0.2626661956310272,-0.3799824118614197,-9.753331184387207
1745738049.6013863,0.009676116518676281,4.128655564272776e-05,0.001492550247348845,0.10198672115802765,-0.30629628896713257,-9.809920310974121
1745738049.6333783,-0.0030486334580928087,4.30109903390985e-05,-7.733101665508002e-05,0.2770727276802063,-0.4672214388847351,-9.764715194702148
1745738049.636538,0.004674111492931843,-0.002550126751884818,0.0022858597803860903,0.1146789938211441,-0.21940819919109344,-9.75410270690918
1745738049.6398404,0.001514596864581108,0.0011927296873182058,0.0013481501955538988,0.20620989799499512,-0.47229695320129395,-9.795613288879395
1745738049.6429837,0.0007996172644197941,-0.0031922105699777603,0.0008662526379339397,0.18771526217460632,-0.2642478048801422,-9.76091480255127
1745738049.673725,0.006927554961293936,0.0017683446640148759,0.0008217260474339128,0.14451023936271667,-0.41618743538856506,-9.786844253540039
1745738049.6773787,-0.0021235921885818243,-0.003699391381815076,0.002829795004799962,0.24584928154945374,-0.3618406653404236,-9.756428718566895
1745738049.6791663,0.0083873076364398,0.0019226837903261185,0.0016642159316688776,0.07727320492267609,-0.2980968952178955,-9.80392837524414
1745738049.681734,-0.002101677004247904,-0.001965128118172288,0.0004519295471254736,0.2776830792427063,-0.4646943509578705,-9.77487850189209
1745738049.6914732,0.006417752709239721,-0.0027290477883070707,0.002493461361154914,0.0994441881775856,-0.22508136928081512,-9.782022476196289
1745738049.724054,0.002769324230030179,0.0019298630068078637,0.0020032371394336224,0.2216050624847412,-0.47193780541419983,-9.781033515930176
1745738049.7284184,-0.0009159221081063151,-0.0027181394398212433,0.0016237677773460746,0.1774580180644989,-0.25214123725891113,-9.747373580932617
1745738049.7332551,0.008529390208423138,-0.00014006151468493044,0.00027299061184749007,0.08878115564584732,-0.3029419779777527,-9.785463333129883
1745738049.7364514,-0.0024016587994992733,-0.0008294051513075829,0.0024371494073420763,0.2677651047706604,-0.4475938379764557,-9.772165298461914
1745738049.7618375,0.006379909813404083,-0.001748124836012721,0.002114793285727501,0.1017870306968689,-0.24492666125297546,-9.772220611572266
1745738049.7640734,0.0004118019714951515,-4.449202606338076e-05,0.002864657435566187,0.23892727494239807,-0.49757465720176697,-9.772624969482422
1745738049.768771,0.0012341173132881522,-0.0037986121606081724,0.0013546005357056856,0.1719689816236496,-0.26467639207839966,-9.764472961425781
1745738049.771207,0.006417096592485905,0.0020254666451364756,0.004186546895653009,0.1608974039554596,-0.43464842438697815,-9.805837631225586
1745738049.8023858,-0.0015457574045285583,-0.004501160234212875,0.0018180770566686988,0.23738722503185272,-0.3266116976737976,-9.757241249084473
1745738049.8048546,0.00884757749736309,0.0011878479272127151,0.001021992415189743,0.0772857517004013,-0.31851428747177124,-9.78652572631836
1745738049.8058665,-0.002796978922560811,-0.0001746180496411398,0.0007578885997645557,0.2561900317668915,-0.44665518403053284,-9.786108016967773
1745738049.8086014,0.006254257168620825,-0.003920120652765036,0.003363239113241434,0.08732780069112778,-0.2530328929424286,-9.791040420532227
1745738049.8109639,0.0017007853602990508,0.0022198427468538284,-0.0005164414760656655,0.2186211794614792,-0.48146361112594604,-9.772090911865234
1745738049.8645926,0.002359925303608179,-0.0037743267603218555,0.0023232917301356792,0.15209317207336426,-0.24222664535045624,-9.750519752502441
1745738049.864726,0.006381393875926733,0.0015458872076123953,0.0023380285128951073,0.14433418214321136,-0.43888330459594727,-9.790936470031738
1745738049.8647637,-0.0017045991262421012,-1.533939575892873e-05,0.0014655441045761108,0.2432871311903,-0.47481784224510193,-9.805168151855469
1745738049.8648074,0.0031590075232088566,-0.0035701249726116657,0.00016993671306408942,0.10512977838516235,-0.23699364066123962,-9.764203071594238
1745738049.8902986,0.002679942874237895,0.002182454103603959,-0.0005257435841485858,0.22187991440296173,-0.4947417378425598,-9.77801513671875
1745738049.8919013,-8.118338882923126e-06,-0.00407791743054986,0.0009032126399688423,0.17436747252941132,-0.2677791714668274,-9.782384872436523
1745738049.8957498,0.006914743687957525,0.00015489300130866468,0.00018406978051643819,0.10567089170217514,-0.3959929049015045,-9.812129974365234
1745738049.9002862,-0.0031836512498557568,-0.0028906313236802816,0.0013841676991432905,0.23684684932231903,-0.36804479360580444,-9.735026359558105
1745738049.9025779,0.008441908285021782,-0.0010988506255671382,-0.0005625423509627581,0.08265146613121033,-0.29917970299720764,-9.783177375793457
1745738049.9313242,-0.004276786465197802,-0.0004360235179774463,-0.0004432435962371528,0.27227717638015747,-0.4396181106567383,-9.772970199584961
1745738049.9334548,0.0048310356214642525,-0.0013600550591945648,0.0009852235671132803,0.10849346220493317,-0.2431182861328125,-9.781791687011719
1745738049.935631,0.0018186283996328712,0.0022084922529757023,0.0008952092612162232,0.21835049986839294,-0.494625985622406,-9.80085277557373
1745738049.9393077,-0.0002709919644985348,-0.0031918182503432035,0.0012603255454450846,0.15073372423648834,-0.23697981238365173,-9.766900062561035
1745738049.9764748,0.00689518079161644,0.0015464631142094731,-0.0003584885853342712,0.14096617698669434,-0.4235100746154785,-9.802316665649414
1745738049.9784098,-0.006054470781236887,-0.00424347585067153,0.0003594584995880723,0.24000093340873718,-0.33174580335617065,-9.75522518157959
1745738049.9807992,0.010127076879143715,0.0019119702046737075,-0.00040443585021421313,0.07238379865884781,-0.30889710783958435,-9.793558120727539
1745738049.9828432,-0.003556934418156743,0.00037462954060174525,0.00037704120040871203,0.26069724559783936,-0.4635418951511383,-9.773530006408691
1745738050.0271142,0.004481205716729164,-0.0012425341410562396,0.001067043747752905,0.09620429575443268,-0.23854240775108337,-9.773767471313477
1745738050.0302963,0.0020551246125251055,0.0032641098368912935,-0.001495911623351276,0.22797361016273499,-0.4751785695552826,-9.81066608428955
1745738050.0342605,-0.00051124207675457,-0.0047140223905444145,0.0006209464045241475,0.156977117061615,-0.24109503626823425,-9.766347885131836
1745738050.0373402,0.006799511611461639,0.002920841332525015,0.0016155705088749528,0.1482144445180893,-0.43350061774253845,-9.790664672851562
1745738050.0394473,-0.004537095315754414,-0.0034327879548072815,0.0006681334925815463,0.23618212342262268,-0.3383028507232666,-9.737131118774414
1745738050.0637646,0.009155032224953175,0.001770182279869914,0.0002989039639942348,0.08555377274751663,-0.32861998677253723,-9.811700820922852
1745738050.0658965,-0.004843500908464193,-0.0009061822784133255,0.001837623887695372,0.2579333186149597,-0.4331675171852112,-9.764806747436523
1745738050.0677383,0.006940943654626608,-0.0016390032833442092,0.0018170643597841263,0.08578844368457794,-0.24130383133888245,-9.792880058288574
1745738050.0703542,-0.0033894511871039867,-0.0017622057348489761,0.0007225270383059978,0.21250572800636292,-0.28161972761154175,-9.779763221740723
1745738050.1045895,0.007923885248601437,0.0021382756531238556,0.0010895507875829935,0.10209961980581284,-0.36390990018844604,-9.78809928894043
1745738050.1073241,-0.0028534438461065292,-0.001341716037131846,0.0015574998687952757,0.25538915395736694,-0.4279375672340393,-9.758401870727539
1745738050.1098845,0.006565417163074017,-0.00013503935770131648,0.0008808824350126088,0.10284940153360367,-0.233682781457901,-9.788228034973145
1745738050.1128657,-0.0002680992765817791,7.880702469265088e-05,0.0017047785222530365,0.2451203167438507,-0.4848962426185608,-9.787888526916504
1745738050.1474721,0.0026468865107744932,-0.0023854230530560017,-0.001769690541550517,0.11333827674388885,-0.2143961489200592,-9.781261444091797
1745738050.1506586,0.005096125416457653,0.0036369573790580034,0.0019526751711964607,0.17628957331180573,-0.46891871094703674,-9.800629615783691
1745738050.1539671,-0.0024939952418208122,-0.00264001009054482,0.00033922717557288706,0.20759141445159912,-0.3054788112640381,-9.748467445373535
1745738050.1559622,0.008388720452785492,0.0016069061821326613,0.001969279022887349,0.11089056730270386,-0.35504150390625,-9.788270950317383
1745738050.157189,-0.00343025429174304,-0.00153847795445472,-0.0003149201220367104,0.2657316029071808,-0.39023932814598083,-9.761751174926758
1745738050.1914458,0.005941105540841818,0.0005475870566442609,0.0002635906566865742,0.07448782026767731,-0.2693587839603424,-9.792135238647461
1745738050.195223,-0.00131038052495569,0.0021433760412037373,0.0039172060787677765,0.24206340312957764,-0.4857737123966217,-9.792268753051758
1745738050.200062,0.002533045131713152,-0.0015322768595069647,-0.0008486919105052948,0.13095037639141083,-0.23034556210041046,-9.735325813293457
1745738050.2045856,0.008834855630993843,0.00161029736045748,0.0019619374070316553,0.1032162681221962,-0.3799031674861908,-9.80937385559082
1745738050.2330294,-0.003250459209084511,-0.002180145587772131,0.0006541910697706044,0.26601579785346985,-0.39473310112953186,-9.75011157989502
1745738050.235448,0.006610305514186621,0.0009828348411247134,0.002346321940422058,0.0906166285276413,-0.28233903646469116,-9.773804664611816
1745738050.2375767,-0.0015066906344145536,-0.0008683779160492122,0.0009447848424315453,0.23754453659057617,-0.4751153886318207,-9.811929702758789
1745738050.2394478,0.004284444265067577,-0.002416842384263873,0.0033978004939854145,0.12089203298091888,-0.21897856891155243,-9.77149772644043
1745738050.2763467,0.0034109402913600206,0.003521144390106201,0.0010656749363988638,0.1867271065711975,-0.5007621645927429,-9.789521217346191
1745738050.278785,-0.002939943689852953,-0.005380488000810146,0.002140058670192957,0.18868032097816467,-0.26087138056755066,-9.742436408996582
1745738050.2823327,0.008065538480877876,0.002259633271023631,0.0013192857149988413,0.14923298358917236,-0.408855140209198,-9.81883430480957
1745738050.2862067,-0.0024192621931433678,-0.0026404368691146374,0.0009197687613777816,0.26674097776412964,-0.38500213623046875,-9.760721206665039
1745738050.2869005,0.008586090989410877,-0.0006299340748228133,0.0021193423308432102,0.08268214017152786,-0.28012987971305847,-9.759889602661133
1745738050.319535,-0.004077752586454153,-0.0009285543346777558,-0.00031779115670360625,0.27449503540992737,-0.49714356660842896,-9.764132499694824
1745738050.32335,0.004491287749260664,-0.0032732742838561535,0.0023689542431384325,0.10511497408151627,-0.24003954231739044,-9.785589218139648
1745738050.3274193,0.00418721791356802,0.0012546933721750975,-0.0003975552099291235,0.2138177454471588,-0.4887304902076721,-9.800178527832031
1745738050.3311744,-0.0015380127588286996,-0.004249610006809235,0.0009202319197356701,0.1753065139055252,-0.2859053611755371,-9.754076957702637
1745738050.3626971,0.007901611737906933,0.0006194970337674022,0.0007518719648942351,0.13715240359306335,-0.4257372319698334,-9.811810493469238
1745738050.363733,-0.003585006343200803,-0.0017840625951066613,0.001638526446186006,0.2393612116575241,-0.34624940156936646,-9.770655632019043
1745738050.3658967,0.009708568453788757,0.0005502317799255252,0.0011308358516544104,0.09388821572065353,-0.34546348452568054,-9.781867027282715
1745738050.3669925,-0.002676644828170538,-0.003949846141040325,0.0008194762049242854,0.2729871869087219,-0.4587860703468323,-9.742989540100098
1745738050.404605,0.005215738900005817,-0.001194246462546289,0.0002981779689434916,0.0915764719247818,-0.2322503626346588,-9.764442443847656
1745738050.406567,0.0008983986335806549,0.0018349293386563659,0.0018365686992183328,0.2219785451889038,-0.5022265315055847,-9.804905891418457
1745738050.4092138,0.0023095824290066957,-0.005907334852963686,0.0017442930256947875,0.16432306170463562,-0.23845188319683075,-9.749970436096191
1745738050.411875,0.004587075207382441,0.0020148425828665495,0.0014781634090468287,0.1562756448984146,-0.45439058542251587,-9.78680419921875
1745738050.413274,-0.0030509985517710447,-0.004267294891178608,0.0017917606746777892,0.24662606418132782,-0.342972069978714,-9.769810676574707
1745738050.4497762,-8.872253965819255e-05,9.065377525985241e-06,0.0016205024439841509,0.23397615551948547,-0.5144889950752258,-9.817952156066895
1745738050.452931,0.002222289564087987,-0.004276719409972429,0.001404547831043601,0.15543201565742493,-0.24073605239391327,-9.764673233032227
1745738050.457469,0.005627377890050411,0.0013224650174379349,-9.581353879184462e-06,0.17828842997550964,-0.44358378648757935,-9.788375854492188
1745738050.4586818,-0.0043982090428471565,-0.0053874128498137,0.00045593612594529986,0.2383556067943573,-0.31512102484703064,-9.728092193603516
1745738050.491713,0.008879573084414005,0.0006002893205732107,0.0023768923711031675,0.11694695055484772,-0.3545946478843689,-9.813493728637695
1745738050.496121,-0.004797786939889193,-0.000847463496029377,-0.0007633696077391505,0.2606670558452606,-0.4105117917060852,-9.783549308776855
1745738050.5028918,0.006061643362045288,-0.002845747396349907,0.0006989375106059015,0.07430820912122726,-0.26597660779953003,-9.76331615447998
1745738050.5059907,-0.00011193864338565618,0.000607043388299644,0.0020898140501230955,0.2571428716182709,-0.49093109369277954,-9.779924392700195
1745738050.5352166,0.00165386195294559,-0.0069396779872477055,0.0017251841491088271,0.1326734721660614,-0.2418469488620758,-9.777509689331055
1745738050.5390403,0.005286520812660456,0.0011608268832787871,-0.0011367350816726685,0.1914099007844925,-0.48158758878707886,-9.792884826660156
1745738050.5415747,-0.0009760747780092061,-0.003716222243383527,0.0015233472222462296,0.18977104127407074,-0.268203467130661,-9.7597074508667
1745738050.5507784,0.00806408654898405,0.0007690881611779332,0.0015101187163963914,0.1072184294462204,-0.3943202495574951,-9.79887866973877
1745738050.5508537,-0.011128358542919159,-0.005421985872089863,-0.0018673662561923265,0.23388174176216125,-0.43784213066101074,-9.855642318725586
1745738050.5790045,0.002819826127961278,0.005284195300191641,-0.0403226800262928,0.5855510830879211,0.2668761909008026,-9.543604850769043
1745738050.5812497,0.01606817916035652,0.014106156304478645,-0.048627354204654694,0.8546164631843567,-0.19110503792762756,-10.284521102905273
1745738050.584244,0.03662514686584473,0.019077539443969727,-0.052702657878398895,0.6721788644790649,-0.03551732376217842,-9.911938667297363
1745738050.5875123,0.05995302274823189,0.02955006994307041,-0.055825911462306976,0.5346571803092957,-0.335618257522583,-9.296815872192383
1745738050.6227348,0.06381083279848099,0.02467881143093109,-0.05958602949976921,0.5823310613632202,-0.27829939126968384,-9.508528709411621
1745738050.6277916,0.08621662110090256,0.03524497151374817,-0.05971966311335564,0.36896511912345886,0.13162383437156677,-10.107463836669922
1745738050.6289127,0.10941096395254135,0.055491216480731964,-0.06921063363552094,0.5159679055213928,-0.13776558637619019,-9.66215991973877
1745738050.6332865,0.12315414100885391,0.05004327371716499,-0.07908603549003601,0.3758637309074402,0.24638128280639648,-9.137868881225586
1745738050.663885,0.11990725994110107,0.052182167768478394,-0.09085315465927124,0.7613612413406372,-0.5573368072509766,-9.748760223388672
1745738050.6682343,0.11554227769374847,0.057575248181819916,-0.09904097020626068,0.693088710308075,-0.22280168533325195,-10.254415512084961
1745738050.6694162,0.11118892580270767,0.07803089916706085,-0.10565494000911713,0.5157453417778015,-0.7411400079727173,-9.819620132446289
1745738050.6704588,0.08471612632274628,0.07620569318532944,-0.1057024598121643,0.7573598027229309,-0.7279739379882812,-8.894004821777344
1745738050.6725533,0.06900103390216827,0.07207903265953064,-0.11078374087810516,0.6399909257888794,-0.5196675062179565,-9.612515449523926
1745738050.7155623,0.08894653618335724,0.07909588515758514,-0.11586011946201324,0.6620890498161316,-0.4840075373649597,-10.368762016296387
1745738050.7167122,0.08015583455562592,0.08523750305175781,-0.11897633969783783,0.5664335489273071,-0.49733811616897583,-9.934686660766602
1745738050.719498,0.0871054083108902,0.07299594581127167,-0.11858849227428436,0.5947577953338623,-0.7331163883209229,-9.50825023651123
1745738050.723036,0.060918617993593216,0.06991064548492432,-0.12109595537185669,0.42790690064430237,-0.43227940797805786,-9.856297492980957
1745738050.7521696,0.09561873972415924,0.09108708798885345,-0.12520280480384827,0.21251444518566132,-0.42128223180770874,-9.971297264099121
1745738050.754508,0.08090066909790039,0.08314700424671173,-0.13048380613327026,0.5299183130264282,-0.3708862066268921,-9.27535343170166
1745738050.7593517,0.0898953229188919,0.07882805168628693,-0.13734813034534454,0.7180134654045105,-0.5575300455093384,-9.40349006652832
1745738050.7642236,0.07777824252843857,0.06638213247060776,-0.13455769419670105,0.7829142808914185,-0.8797355890274048,-10.468694686889648
1745738050.7674956,0.039300598204135895,0.07072240114212036,-0.13294538855552673,0.4613436758518219,-1.0394012928009033,-10.510913848876953
1745738050.795868,-0.06756246089935303,0.08019457012414932,-0.13244114816188812,0.41900962591171265,0.10165955871343613,-8.861318588256836
1745738050.79993,-0.09023186564445496,0.05104536563158035,-0.14665834605693817,0.9889330863952637,0.1589510142803192,-8.563398361206055
1745738050.8031783,0.021063363179564476,0.05012927204370499,-0.1518586277961731,0.7252099514007568,1.0128834247589111,-10.30003547668457
1745738050.8105943,0.04372939094901085,0.07522227615118027,-0.15624547004699707,0.6514366269111633,0.19730627536773682,-11.24891471862793
1745738050.837948,0.12725554406642914,0.0748516172170639,-0.14991018176078796,0.39541786909103394,0.06857063621282578,-9.160682678222656
1745738050.8391294,0.1297115981578827,0.07239432632923126,-0.1484825313091278,0.3577118217945099,-0.18457181751728058,-8.102130889892578
1745738050.8425446,0.12440337985754013,0.07208233326673508,-0.15334399044513702,0.6675302982330322,-0.05257905647158623,-9.739733695983887
1745738050.8447883,0.16743013262748718,0.09119037538766861,-0.1671561449766159,0.9019690752029419,0.1282651722431183,-10.773716926574707
1745738050.8823054,0.11965198814868927,0.08803507685661316,-0.18120963871479034,1.1847749948501587,-0.615717887878418,-9.865926742553711
1745738050.8851218,0.1205190047621727,0.07221924513578415,-0.19282320141792297,0.78912353515625,-0.6808539628982544,-9.15599536895752
1745738050.8887115,0.04668137803673744,0.07901289314031601,-0.19312115013599396,0.6271055936813354,-1.8630088567733765,-9.728787422180176
1745738050.892471,0.03140635788440704,0.10156603902578354,-0.18956252932548523,0.5353695154190063,-1.1225342750549316,-9.666521072387695
1745738050.9227946,-0.019449124112725258,0.10256199538707733,-0.19004447758197784,0.8532350659370422,-0.9213139414787292,-9.369540214538574
1745738050.9262722,0.03651389852166176,0.08309029042720795,-0.18697160482406616,0.7569490075111389,0.22740964591503143,-9.685426712036133
1745738050.9274929,-0.014977550134062767,0.06388622522354126,-0.3064037263393402,0.9805337190628052,-1.3447434902191162,-9.864750862121582
1745738050.9302251,-0.027398979291319847,0.06356627494096756,-0.30662843585014343,0.954870879650116,-0.9494189023971558,-9.679197311401367
1745738050.932561,-0.04440661147236824,0.06560824066400528,-0.3057447373867035,0.8243875503540039,-0.6734309792518616,-9.580357551574707
1745738050.9749696,-0.027015436440706253,0.06169409677386284,-0.30850109457969666,0.9773904085159302,-0.582098126411438,-9.736333847045898
1745738050.9751089,-0.006536468863487244,0.056459344923496246,-0.3086453676223755,0.7408326864242554,0.03255520015954971,-9.72185230255127
1745738050.9756317,0.024009792134165764,0.062022410333156586,-0.3104846477508545,0.9097200632095337,-0.4137287139892578,-9.780491828918457
1745738050.979346,0.04878940433263779,0.050916969776153564,-0.31290942430496216,0.8506304621696472,-0.14562037587165833,-9.678140640258789
1745738051.0107613,0.06681612879037857,0.05444285273551941,-0.3132222294807434,0.8621146082878113,-0.5868046879768372,-9.76626205444336
1745738051.0138192,0.062174081802368164,0.050996191799640656,-0.31656983494758606,1.0438467264175415,-0.4665171504020691,-9.784488677978516
1745738051.0157182,0.06159193068742752,0.04479973390698433,-0.32031288743019104,0.9846444129943848,-0.8281092643737793,-9.87104606628418
1745738051.0200622,0.049200959503650665,0.03626609966158867,-0.323464572429657,1.2843067646026611,-0.8914754986763,-9.68329906463623
1745738051.0228236,0.01423818152397871,0.027532756328582764,-0.3276134431362152,1.1044865846633911,-0.7974126935005188,-9.974250793457031
1745738051.0538576,0.009596774354577065,0.030395105481147766,-0.330520361661911,1.0867042541503906,-1.2553231716156006,-10.042280197143555
1745738051.0573735,-0.016417164355516434,0.019639957696199417,-0.3308477997779846,1.0053845643997192,-0.6454256772994995,-9.517194747924805
1745738051.0619254,-0.013887790031731129,0.022532492876052856,-0.3305705189704895,0.8812037706375122,-1.0119140148162842,-9.777405738830566
1745738051.0630343,-0.01716819778084755,0.007939232513308525,-0.33179575204849243,0.8841701745986938,-0.447967529296875,-9.87426471710205
1745738051.0959432,0.005537574179470539,0.010703939944505692,-0.33097589015960693,0.8242536783218384,-0.5269824266433716,-9.885808944702148
1745738051.0976584,0.0053889453411102295,0.011875328607857227,-0.335162490606308,0.9504391551017761,-0.49930113554000854,-9.65921401977539
1745738051.100397,0.021069634705781937,0.0005913347122259438,-0.3358791470527649,0.7655534744262695,-0.485759973526001,-9.61701774597168
1745738051.104959,0.03397538512945175,0.0030923853628337383,-0.33773374557495117,1.108580231666565,-0.7028452157974243,-9.794276237487793
1745738051.1081092,0.007108503486961126,0.001569538377225399,-0.3381003737449646,0.9265632629394531,-0.633084774017334,-9.94433879852295
1745738051.139455,0.029307886958122253,-0.0010089629795402288,-0.3410824239253998,1.0655491352081299,-0.9870551824569702,-9.720760345458984
1745738051.1449206,0.004260288085788488,-0.030333075672388077,-0.34825193881988525,0.7837013006210327,-0.4369231164455414,-9.93106460571289
1745738051.1508007,0.022257976233959198,-0.0206945538520813,-0.34906038641929626,0.8902928233146667,-0.7085671424865723,-9.825735092163086
1745738051.1533296,0.01742718741297722,-0.03442612290382385,-0.34924259781837463,0.8549418449401855,-0.3982514441013336,-9.608724594116211
1745738051.1808376,0.05194640904664993,-0.03556469455361366,-0.3475649654865265,0.9604463577270508,-0.6493369936943054,-9.780656814575195
1745738051.1854212,0.02041402831673622,-0.03857342526316643,-0.35472410917282104,1.0966084003448486,-0.5822901725769043,-9.922735214233398
1745738051.1889393,0.030711323022842407,-0.039617251604795456,-0.35440686345100403,0.8633292317390442,-0.9290302991867065,-10.035069465637207
1745738051.1916802,0.008025617338716984,-0.04841197654604912,-0.3572632372379303,1.0375878810882568,-0.8605127334594727,-9.627923011779785
1745738051.2267394,-0.012944099493324757,-0.05217324569821358,-0.35721760988235474,0.9163037538528442,-0.8274261355400085,-9.706071853637695
1745738051.2293541,-0.009270748123526573,-0.049964386969804764,-0.3608315885066986,0.9914118051528931,-0.932669997215271,-9.952341079711914
1745738051.2347534,-0.03449926897883415,-0.06066593527793884,-0.36195433139801025,1.0196309089660645,-0.5334869623184204,-9.770408630371094
1745738051.2398562,-0.011242987588047981,-0.05188538506627083,-0.35998833179473877,0.8876916766166687,-0.5787224173545837,-9.744976997375488
1745738051.2659516,-0.023471063002943993,-0.06432236731052399,-0.36467060446739197,0.8275480270385742,-0.46392303705215454,-9.787299156188965
1745738051.269166,0.012383988127112389,-0.06184476613998413,-0.3621554672718048,0.7739073634147644,-0.47751861810684204,-9.861186027526855
1745738051.2730358,0.005920770578086376,-0.06106960028409958,-0.36154094338417053,0.8962129354476929,-0.48366236686706543,-9.788321495056152
1745738051.276426,0.04405531287193298,-0.08910249918699265,-0.38347119092941284,0.6249964833259583,-0.5519670844078064,-9.766054153442383
1745738051.2794282,0.025866582989692688,-0.0844011902809143,-0.3858048915863037,0.6846103668212891,-0.7183730602264404,-9.683161735534668
1745738051.3110106,0.04336375370621681,-0.09203396737575531,-0.3869068920612335,0.6132751107215881,-0.5711734294891357,-9.700927734375
1745738051.312971,0.0476333424448967,-0.07900345325469971,-0.3852314054965973,0.614859938621521,-0.5769485235214233,-9.711503982543945
1745738051.3140469,0.03335321694612503,-0.0841309130191803,-0.38609206676483154,0.7411108016967773,-0.7577982544898987,-9.819841384887695
1745738051.3174593,0.07441271841526031,-0.07745073735713959,-0.3835122585296631,0.4921903610229492,-0.4482406973838806,-9.730510711669922
1745738051.3526745,0.04085614159703255,-0.07889017462730408,-0.38596853613853455,0.7415451407432556,-0.7505026459693909,-9.714200973510742
1745738051.3539472,0.07831703871488571,-0.07717009633779526,-0.3854712247848511,0.6544419527053833,-0.5008410215377808,-9.718952178955078
1745738051.3590474,0.04847956448793411,-0.07862517982721329,-0.38905957341194153,0.7379168272018433,-0.7810325026512146,-9.771110534667969
1745738051.3619525,0.057399578392505646,-0.07627538591623306,-0.38847026228904724,0.6637734770774841,-0.5966383218765259,-9.757589340209961
1745738051.3637588,0.05186986178159714,-0.07085135579109192,-0.3900200426578522,0.6433968544006348,-0.8600001335144043,-9.735591888427734
1745738051.4007423,0.03434062376618385,-0.07568530738353729,-0.389604389667511,0.7126414179801941,-0.7683772444725037,-9.690345764160156
1745738051.4007862,0.04738092049956322,-0.07199373096227646,-0.3899924159049988,0.6200202107429504,-0.6305578351020813,-9.805521965026855
1745738051.4065897,0.024972792714834213,-0.07331769168376923,-0.38994210958480835,0.6792163848876953,-0.8043054342269897,-9.904438972473145
1745738051.4091344,0.06898166984319687,-0.06784474849700928,-0.39080309867858887,0.4716782569885254,-0.3236832022666931,-9.618168830871582
1745738051.4372394,0.033390093594789505,-0.06839023530483246,-0.391734778881073,0.7667739987373352,-0.7650209665298462,-9.593156814575195
1745738051.4417117,0.0736357569694519,-0.07020250707864761,-0.3923056125640869,0.6250163316726685,-0.5275541543960571,-9.803838729858398
1745738051.4490001,0.061589181423187256,-0.062167197465896606,-0.3925952911376953,0.6026638150215149,-0.6711715459823608,-9.93153190612793
1745738051.449343,0.06665998697280884,-0.06355472654104233,-0.39133137464523315,0.6684463620185852,-0.7399733662605286,-9.705743789672852
1745738051.4519472,0.07405287027359009,-0.061327941715717316,-0.3928852081298828,0.5891817212104797,-0.7174612879753113,-9.541537284851074
1745738051.4831865,0.042416490614414215,-0.06700589507818222,-0.39183416962623596,0.7855076789855957,-0.882525622844696,-9.805671691894531
1745738051.4895263,0.05050739645957947,-0.04995720461010933,-0.39645060896873474,0.6379009485244751,-0.7464185357093811,-9.378850936889648
1745738051.4983652,0.08293138444423676,-0.04534965008497238,-0.3984059691429138,0.4917429983615875,-0.4380713403224945,-9.768743515014648
1745738051.5277333,0.05258215218782425,-0.04414377734065056,-0.3956120014190674,0.7390920519828796,-0.9923475384712219,-10.113024711608887
1745738051.531456,0.08092953264713287,-0.03806992620229721,-0.3937850594520569,0.5259463787078857,-0.6180771589279175,-9.674825668334961
1745738051.5345263,0.05307919904589653,-0.03955133259296417,-0.3933722972869873,0.6799233555793762,-1.0346814393997192,-9.488073348999023
1745738051.5374076,0.051234692335128784,-0.04928428679704666,-0.39322322607040405,0.6328513026237488,-0.6953259706497192,-9.786703109741211
1745738051.5676253,0.04798780009150505,-0.0345657542347908,-0.3938989043235779,0.5982602834701538,-0.7613741755485535,-10.05190658569336
1745738051.5707865,0.04387309402227402,-0.03819191828370094,-0.39613693952560425,0.6491697430610657,-0.810539722442627,-9.67692756652832
1745738051.5733113,0.05293945595622063,-0.035540807992219925,-0.39771077036857605,0.4708923399448395,-0.5605165958404541,-9.40162181854248
1745738051.5800488,0.029281001538038254,-0.038536835461854935,-0.396869957447052,0.727409839630127,-0.9375270009040833,-9.833579063415527
1745738051.581541,0.07093401253223419,-0.03264690190553665,-0.39480525255203247,0.4475676417350769,-0.4750179648399353,-9.97541332244873
1745738051.612519,0.041278086602687836,-0.028329122811555862,-0.3958891034126282,0.6250094175338745,-0.915736198425293,-9.733495712280273
1745738051.6151145,0.07399270683526993,-0.031790655106306076,-0.3942069113254547,0.5564948320388794,-0.5177833437919617,-9.4519681930542
1745738051.6203573,0.05934542417526245,-0.031016964465379715,-0.3913176953792572,0.5518385767936707,-0.8319818377494812,-9.761570930480957
1745738051.6220458,0.007098877336829901,-0.006098248530179262,-0.38818639516830444,0.5690752863883972,-0.9474709630012512,-9.763337135314941
1745738051.65533,0.018892917782068253,-0.00925725232809782,-0.3880903720855713,0.6149156093597412,-0.7371953129768372,-9.893556594848633
1745738051.6587758,0.026518356055021286,-0.004132687114179134,-0.38506704568862915,0.4730784296989441,-0.7760047316551208,-9.753606796264648
1745738051.6631372,0.011432494968175888,-0.007530869450420141,-0.38613027334213257,0.7345556020736694,-0.9186264872550964,-9.570018768310547
1745738051.6667256,0.025838902220129967,-0.008477864786982536,-0.38371777534484863,0.5281314849853516,-0.6929937601089478,-9.711871147155762
1745738051.697274,0.005060185212641954,-0.0036499977577477694,-0.3850678503513336,0.6878617405891418,-1.0741565227508545,-9.91845703125
1745738051.6995323,0.016102803871035576,-0.007547854445874691,-0.3862707018852234,0.570773720741272,-0.5825535655021667,-9.66569709777832
1745738051.7025454,-0.009787797927856445,-0.0032005510292947292,-0.38457852602005005,0.547758162021637,-1.1342347860336304,-9.68974494934082
1745738051.7041228,0.004694832023233175,-0.0101857278496027,-0.3838992416858673,0.6039294004440308,-0.7263714075088501,-9.681243896484375
1745738051.739987,-0.009967594407498837,-0.0037237051874399185,-0.3841004967689514,0.5371502637863159,-0.813632607460022,-9.867218017578125
1745738051.7421598,-0.008476948365569115,-0.003989893011748791,-0.3845016360282898,0.6572678089141846,-0.9024772644042969,-9.719949722290039
1745738051.7445104,0.007773345801979303,-0.0025336795952171087,-0.3838835656642914,0.4312182366847992,-0.47369080781936646,-9.502297401428223
1745738051.7461467,-0.00757198128849268,-0.002992835361510515,-0.3810203969478607,0.7245182394981384,-0.9470184445381165,-9.784696578979492
1745738051.7473075,0.017802225425839424,-0.005085459444671869,-0.38363009691238403,0.5490925908088684,-0.510761022567749,-9.864839553833008
1745738051.7856185,0.004186298232525587,-0.0029785821679979563,-0.38121795654296875,0.6065328121185303,-1.0285208225250244,-9.890396118164062
1745738051.789481,0.007800220046192408,-0.007898224517703056,-0.38120999932289124,0.5493693351745605,-0.664539098739624,-9.619268417358398
1745738051.8051794,0.0037584323436021805,-0.003353644162416458,-0.37950485944747925,0.5288811922073364,-0.9488725662231445,-9.64040470123291
1745738051.8052275,0.00242353742942214,-0.00808962993323803,-0.37896138429641724,0.7159460783004761,-0.7566019892692566,-9.731732368469238
1745738051.8281024,0.00011313780851196498,-0.0022244546562433243,-0.380342572927475,0.5642789006233215,-0.6427916884422302,-9.785367965698242
1745738051.830166,-0.008052689023315907,-0.004359518177807331,-0.3809444308280945,0.7315840721130371,-1.0124207735061646,-9.809915542602539
1745738051.8340862,0.009584510698914528,-0.008615763857960701,-0.37931230664253235,0.4333122670650482,-0.5071402192115784,-9.672367095947266
1745738051.8386784,0.005988714285194874,-0.009071819484233856,-0.374146968126297,0.5388602018356323,-0.5159810781478882,-9.497713088989258
1745738051.8705423,-0.020819585770368576,-0.00750998267903924,-0.37356844544410706,0.6787335872650146,-1.0390970706939697,-9.835402488708496
1745738051.873107,-0.001657046377658844,-0.0073951431550085545,-0.3709813952445984,0.6292242407798767,-0.6683038473129272,-9.861650466918945
1745738051.8757317,-0.005579675547778606,-0.004563785623759031,-0.372723251581192,0.48977842926979065,-0.6988651752471924,-9.71731185913086
1745738051.8787782,-0.01354572456330061,-0.009847283363342285,-0.37095603346824646,0.6764991283416748,-0.8674825429916382,-9.692359924316406
1745738051.9137151,0.008599725551903248,-0.011006677523255348,-0.36973947286605835,0.45339435338974,-0.5419498682022095,-9.81025218963623
1745738051.91644,-0.011325640603899956,-0.011527648195624352,-0.3700089752674103,0.6853805184364319,-0.9394112825393677,-9.896398544311523
1745738051.9201083,0.007040269672870636,-0.012968949973583221,-0.36843568086624146,0.5047538876533508,-0.5873724222183228,-9.671504020690918
1745738051.9248273,-0.005854555405676365,-0.009076515212655067,-0.36864933371543884,0.6508058905601501,-0.9896564483642578,-9.608673095703125
1745738051.9287264,-0.003772981930524111,-0.01611008122563362,-0.36796098947525024,0.6293430328369141,-0.6302613019943237,-9.694271087646484
1745738051.9560251,-0.011394430883228779,-0.009416979737579823,-0.36635369062423706,0.5339933633804321,-0.8812158703804016,-10.001755714416504
1745738051.9621766,-0.007028237916529179,-0.012356307357549667,-0.3653605580329895,0.6884485483169556,-0.8423339128494263,-9.754441261291504
1745738051.9622052,-0.012003570795059204,-0.016545169055461884,-0.36581382155418396,0.4632234573364258,-0.6481752395629883,-9.567672729492188
1745738051.9667187,-0.020125336945056915,-0.016111157834529877,-0.3652289807796478,0.6596764922142029,-1.01828932762146,-9.780481338500977
1745738052.0029948,-0.013815236277878284,-0.022700199857354164,-0.3465762138366699,0.4289483428001404,-0.6877134442329407,-9.784945487976074
1745738052.0067694,-0.011253748089075089,-0.024706434458494186,-0.3467906415462494,0.660866379737854,-0.9417186975479126,-9.7015962600708
1745738052.0098653,-0.007299152202904224,-0.0289593692868948,-0.34632572531700134,0.45017069578170776,-0.449420303106308,-9.668851852416992
1745738052.0099037,-0.01816542074084282,-0.026900749653577805,-0.3437350392341614,0.6024841070175171,-1.0091185569763184,-9.910663604736328
1745738052.039549,0.0006890861550346017,-0.026868004351854324,-0.3451390564441681,0.5354641675949097,-0.37230411171913147,-9.728538513183594
1745738052.0421958,-0.010014750994741917,-0.025132078677415848,-0.3436218202114105,0.5608406066894531,-0.8924258947372437,-9.681934356689453
1745738052.0433273,-0.004524501971900463,-0.03128077834844589,-0.34150177240371704,0.6363487839698792,-0.5975021123886108,-9.62851333618164
1745738052.0462008,0.0017362935468554497,-0.02678336203098297,-0.3419491648674011,0.4653858542442322,-0.6993225812911987,-9.937883377075195
1745738052.0474353,-0.005036276765167713,-0.02796238660812378,-0.3416217267513275,0.6121822595596313,-0.7578474879264832,-9.839982032775879
1745738052.0861316,-0.0026209380012005568,-0.028164571151137352,-0.3403507173061371,0.40586596727371216,-0.4805171489715576,-9.587206840515137
1745738052.0900002,-0.006176572758704424,-0.029830535873770714,-0.34164732694625854,0.5901878476142883,-0.9726001620292664,-9.656919479370117
1745738052.0954018,0.002254672348499298,-0.029635261744260788,-0.343001127243042,0.5107772946357727,-0.35962358117103577,-9.719719886779785
1745738052.0981963,-0.007949760183691978,-0.023637309670448303,-0.34162551164627075,0.6152179837226868,-0.9489458203315735,-9.943938255310059
1745738052.1302266,0.0042320117354393005,-0.02764756605029106,-0.3409743905067444,0.5789082646369934,-0.5892258286476135,-9.624155044555664
1745738052.1328752,-0.004997980780899525,-0.025903021916747093,-0.3392922580242157,0.4450560510158539,-0.7401490807533264,-9.654565811157227
1745738052.1353366,-0.0040541524067521095,-0.02877821959555149,-0.33730679750442505,0.622618556022644,-0.8558891415596008,-9.806419372558594
1745738052.1372614,0.0026005986146628857,-0.026024281978607178,-0.33507686853408813,0.4112022817134857,-0.5428693294525146,-9.8612699508667
1745738052.1713696,-0.004460175521671772,-0.027034476399421692,-0.3351699411869049,0.6076584458351135,-0.8954734802246094,-9.74601936340332
1745738052.1732383,0.000332678115228191,-0.030923450365662575,-0.33446457982063293,0.47331324219703674,-0.4936172366142273,-9.582317352294922
1745738052.1754994,-0.00340081425383687,-0.024776848033070564,-0.33662208914756775,0.542216420173645,-0.9171110987663269,-9.793889045715332
1745738052.1774197,-0.002927700523287058,-0.030287951231002808,-0.334807813167572,0.6026468873023987,-0.48948559165000916,-9.71953010559082
1745738052.2139392,0.007658491376787424,-0.023740312084555626,-0.3302370607852936,0.4518199861049652,-0.8476392030715942,-9.881436347961426
1745738052.2139993,-0.0026588342152535915,-0.029662663117051125,-0.3286331593990326,0.5816046595573425,-0.6847076416015625,-9.753835678100586
1745738052.2163024,0.0024340639356523752,-0.024242352694272995,-0.32923805713653564,0.4193642735481262,-0.6729937195777893,-9.7055082321167
1745738052.2182996,0.0009801860433071852,-0.026890551671385765,-0.3277108669281006,0.6393437385559082,-0.883834183216095,-9.682184219360352
1745738052.2198164,-0.005810383707284927,-0.025771554559469223,-0.32789140939712524,0.4281121790409088,-0.48749056458473206,-9.662940979003906
1745738052.2571883,-0.005401404574513435,-0.020008636638522148,-0.3261735439300537,0.6202070116996765,-0.9935951232910156,-9.862253189086914
1745738052.2595694,0.0014690279494971037,-0.026249010115861893,-0.3255157768726349,0.461169958114624,-0.36920875310897827,-9.713757514953613
1745738052.2618678,-0.005086843855679035,-0.022386517375707626,-0.3264356851577759,0.4649038314819336,-0.8471576571464539,-9.8137788772583
1745738052.2655487,0.006418918259441853,-0.02660510502755642,-0.32761630415916443,0.600030243396759,-0.5319333672523499,-9.716241836547852
1745738052.299395,0.0021076372358947992,-0.023729082196950912,-0.3251801133155823,0.3818768858909607,-0.7255872488021851,-9.800718307495117
1745738052.308933,-0.0017727542435750365,-0.023092348128557205,-0.32374098896980286,0.6144301891326904,-0.7748709917068481,-9.679277420043945
1745738052.3103626,0.0035950138699263334,-0.023711372166872025,-0.3224067687988281,0.40884876251220703,-0.5658203363418579,-9.71479320526123
1745738052.315201,-0.0028052155394107103,-0.020265601575374603,-0.3236667215824127,0.5969082117080688,-0.8757734298706055,-9.826149940490723
1745738052.3238807,-0.0008179742726497352,-0.025108572095632553,-0.32406923174858093,0.5300490260124207,-0.4201471209526062,-9.737401008605957
1745738052.344218,-0.005256778094917536,-0.020407862961292267,-0.3243774473667145,0.4583333432674408,-0.9891164898872375,-9.892998695373535
1745738052.3477497,-0.003999090753495693,-0.012909559532999992,-0.3158669173717499,0.4849392771720886,-0.8822256326675415,-9.776764869689941
1745738052.3515131,-0.006110233720391989,-0.01868041232228279,-0.31529417634010315,0.5288775563240051,-0.41121330857276917,-9.73643684387207
1745738052.3525186,-0.007925862446427345,-0.01245080679655075,-0.3179346024990082,0.4062562882900238,-0.7154480218887329,-9.900938987731934
1745738052.385424,-0.0032658614218235016,-0.01699519157409668,-0.31704434752464294,0.5894721746444702,-0.661961555480957,-9.719342231750488
1745738052.3895273,-0.0014709323877468705,-0.01942436769604683,-0.3176681399345398,0.39228424429893494,-0.5094974637031555,-9.721376419067383
1745738052.3948975,-0.010122036561369896,-0.014157729223370552,-0.31511372327804565,0.5859426259994507,-0.9775741696357727,-9.851975440979004
1745738052.3949401,0.0020347037352621555,-0.017637083306908607,-0.3174050450325012,0.3811498284339905,-0.4084698557853699,-9.677477836608887
1745738052.428002,-0.010730755515396595,-0.013353985734283924,-0.31336119771003723,0.5728901028633118,-0.943564772605896,-9.734504699707031
1745738052.431786,-0.005035195965319872,-0.01975749246776104,-0.3140033185482025,0.5030385851860046,-0.4043351709842682,-9.71818733215332
1745738052.432154,-0.0012456150725483894,-0.014391390606760979,-0.3152966797351837,0.42646926641464233,-0.7580658793449402,-9.966915130615234
1745738052.4361494,-0.009927789680659771,-0.017746182158589363,-0.3154900372028351,0.5403864979743958,-0.5784066915512085,-9.743531227111816
1745738052.4718316,-0.005258667282760143,-0.016712751239538193,-0.3153696060180664,0.3807017207145691,-0.5707255005836487,-9.64621639251709
1745738052.4741673,-0.009728197008371353,-0.018271751701831818,-0.31539401412010193,0.592065155506134,-0.8430765271186829,-9.728574752807617
1745738052.4794588,-0.004919226281344891,-0.01641431823372841,-0.3149794638156891,0.38027453422546387,-0.36885523796081543,-9.762046813964844
1745738052.488149,-0.012810791842639446,-0.012108596041798592,-0.3154396414756775,0.5946134924888611,-0.9265193939208984,-9.841314315795898
1745738052.4885118,0.0060076345689594746,-0.0162788275629282,-0.31322920322418213,0.42930278182029724,-0.2544134855270386,-9.570528030395508
1745738052.517279,-0.00533250579610467,-0.012398339807987213,-0.3130159378051758,0.48180651664733887,-0.7669193744659424,-9.805790901184082
1745738052.5204449,0.010363565757870674,-0.01627100445330143,-0.31545788049697876,0.5406605005264282,-0.5071364045143127,-9.876639366149902
1745738052.5207376,0.008436286821961403,-0.012716814875602722,-0.31326860189437866,0.33514437079429626,-0.5891374349594116,-9.783117294311523
1745738052.5208073,0.0035388811957091093,-0.015095788054168224,-0.3132207691669464,0.5850347280502319,-0.7324978709220886,-9.568947792053223
1745738052.5593908,0.008479736745357513,-0.017354751005768776,-0.31247881054878235,0.40739917755126953,-0.5124788284301758,-9.674274444580078
1745738052.5623124,0.0046604098752141,-0.01320680696517229,-0.31417983770370483,0.33960551023483276,-0.35251614451408386,-9.609478950500488
1745738052.565773,0.0031762595754116774,-0.014174255542457104,-0.3123179078102112,0.5847920179367065,-0.8096087574958801,-9.802624702453613
1745738052.570071,0.013458657078444958,-0.018108796328306198,-0.3118991255760193,0.3985232412815094,-0.27968236804008484,-9.826878547668457
1745738052.6028197,0.008550881408154964,-0.013498103246092796,-0.31416499614715576,0.5249724388122559,-0.8727763295173645,-9.89610481262207
1745738052.6080167,0.005101659335196018,-0.020368147641420364,-0.3131885528564453,0.5151597261428833,-0.5408158302307129,-9.65655517578125
1745738052.6115446,0.004109609872102737,-0.01479719765484333,-0.3139726519584656,0.4627261757850647,-0.8440349698066711,-9.703680992126465
1745738052.6151927,0.0010216743685305119,-0.018888011574745178,-0.31290876865386963,0.6214820146560669,-0.6284998059272766,-9.688425064086914
1745738052.6427696,-0.0038933325558900833,-0.011732710525393486,-0.3111029267311096,0.3772721290588379,-0.5312609672546387,-9.783040046691895
1745738052.646104,-0.0020994669757783413,-0.016764212399721146,-0.3141806125640869,0.5920823216438293,-0.7945987582206726,-9.81123161315918
1745738052.6492124,0.005016009323298931,-0.020530791953206062,-0.31183335185050964,0.3582352101802826,-0.28932106494903564,-9.733207702636719
1745738052.6523664,-0.0013504422968253493,-0.014560965821146965,-0.318001925945282,0.4986425042152405,-0.8428042531013489,-9.826040267944336
1745738052.653852,0.01273682713508606,-0.018392983824014664,-0.3142279386520386,0.4476754069328308,-0.3189106583595276,-9.663872718811035
1745738052.6863015,0.0046640364453196526,-0.01511463988572359,-0.31434324383735657,0.4834676682949066,-0.8578592538833618,-9.752530097961426
1745738052.6877785,0.004997630603611469,-0.020830806344747543,-0.3138309419155121,0.6131539344787598,-0.6230759024620056,-9.735712051391602
1745738052.6911173,0.019688734784722328,-0.020387668162584305,-0.30596280097961426,0.5668995380401611,-0.702797532081604,-9.614112854003906
1745738052.692696,0.028639789670705795,-0.01971697062253952,-0.30729228258132935,0.35386553406715393,-0.4750075340270996,-9.735735893249512
1745738052.7311697,0.015573175624012947,-0.018118267878890038,-0.306191086769104,0.5651769638061523,-0.8193439245223999,-9.896743774414062
1745738052.7341356,0.021004553884267807,-0.021450305357575417,-0.30698204040527344,0.4570428729057312,-0.39729928970336914,-9.741687774658203
1745738052.7347734,0.004461555741727352,-0.015866858884692192,-0.3055633306503296,0.46368032693862915,-0.9800966382026672,-9.816709518432617
1745738052.7366533,0.018956858664751053,-0.023163188248872757,-0.3061704933643341,0.48863109946250916,-0.48486796021461487,-9.65391731262207
1745738052.7754614,0.0033055089879781008,-0.019249597564339638,-0.3072369694709778,0.4271278381347656,-0.6111267805099487,-9.806790351867676
1745738052.7784815,0.010377038270235062,-0.018981870263814926,-0.3056010603904724,0.574421763420105,-0.7443826794624329,-9.774446487426758
1745738052.7809823,0.018168926239013672,-0.0185324065387249,-0.30557262897491455,0.33857911825180054,-0.37122398614883423,-9.680584907531738
1745738052.7842839,0.005686499178409576,-0.021012339740991592,-0.30256110429763794,0.5785800814628601,-0.9313192367553711,-9.87774658203125
1745738052.7868094,0.023176752030849457,-0.021534115076065063,-0.30527013540267944,0.3323485851287842,-0.2989557385444641,-9.792500495910645
1745738052.8215053,0.015561267733573914,-0.01554126013070345,-0.3029360771179199,0.4403735101222992,-0.8268988728523254,-9.790349006652832
1745738052.823526,0.014761407859623432,-0.025844484567642212,-0.30265170335769653,0.47981637716293335,-0.4169664978981018,-9.595786094665527
1745738052.8246036,0.016682226210832596,-0.018338920548558235,-0.30490466952323914,0.4498174786567688,-0.7248395085334778,-9.811483383178711
1745738052.8289356,0.01724553108215332,-0.023508576676249504,-0.3032463788986206,0.577901303768158,-0.6432216763496399,-9.848215103149414
1745738052.859541,0.011492053978145123,-0.016163419932127,-0.3030552566051483,0.31865009665489197,-0.5575897097587585,-9.743581771850586
1745738052.8622174,0.0028685997240245342,-0.016945337876677513,-0.3019554615020752,0.5485612154006958,-0.8734387159347534,-9.646020889282227
1745738052.8637211,0.021263431757688522,-0.0221957229077816,-0.3019077777862549,0.3289872109889984,-0.23843130469322205,-9.68026065826416
1745738052.8651528,0.005489946808665991,-0.017139822244644165,-0.3038760721683502,0.5026969313621521,-0.7970408201217651,-9.946854591369629
1745738052.9019828,0.029919657856225967,-0.017400825396180153,-0.3037470281124115,0.4291040301322937,-0.292968213558197,-9.708833694458008
1745738052.9050837,0.015355587005615234,-0.016034066677093506,-0.30295518040657043,0.4197131097316742,-0.8071688413619995,-9.677972793579102
1745738052.906545,0.015203891322016716,-0.02577822469174862,-0.3022328019142151,0.5116188526153564,-0.601652204990387,-9.728080749511719
1745738052.9103117,0.0019047243986278772,-0.014824002981185913,-0.30312544107437134,0.5061741471290588,-0.7781486511230469,-9.775187492370605
1745738052.9456184,0.02492496743798256,-0.017325878143310547,-0.3018866777420044,0.4564722180366516,-0.45104846358299255,-9.601428985595703
1745738052.9487216,0.01949826069176197,-0.012397092767059803,-0.30191707611083984,0.3308829665184021,-0.49308472871780396,-9.75725269317627
1745738052.9503293,0.022353583946824074,-0.014689428731799126,-0.30124494433403015,0.5565098524093628,-0.7052281498908997,-9.863716125488281
1745738052.9514036,0.03480213135480881,-0.015189501456916332,-0.3005741536617279,0.3600959777832031,-0.44112539291381836,-9.755050659179688
1745738052.954908,0.020080070942640305,-0.016859393566846848,-0.30069223046302795,0.5013303160667419,-0.8526756167411804,-9.799720764160156
1745738052.989945,0.0277700312435627,-0.017750978469848633,-0.2986548840999603,0.3622552454471588,-0.4283149838447571,-9.733839988708496
1745738052.991166,0.021268706768751144,-0.010889400728046894,-0.3010088801383972,0.4831114709377289,-0.8579750061035156,-9.744632720947266
1745738052.9938288,0.023755427449941635,-0.018389251083135605,-0.2996785640716553,0.4955275058746338,-0.4736374318599701,-9.62109661102295
1745738052.99507,0.01526409387588501,-0.013431635685265064,-0.3010166585445404,0.39056411385536194,-0.7399377226829529,-9.809137344360352
1745738053.0343096,0.021256644278764725,-0.012553657405078411,-0.2983887791633606,0.5237319469451904,-0.6825838088989258,-9.845809936523438
1745738053.0363204,0.02701774798333645,-0.011407773941755295,-0.29874929785728455,0.28698235750198364,-0.4792165756225586,-9.75011157989502
1745738053.0370708,0.013595427386462688,-0.015143096446990967,-0.2964973449707031,0.5362128615379333,-0.8306741714477539,-9.723539352416992
1745738053.0391674,0.037455812096595764,-0.01403722446411848,-0.29969948530197144,0.3548692762851715,-0.3094250559806824,-9.779295921325684
1745738053.07349,0.032152287662029266,-0.014881229028105736,-0.288371741771698,0.31778162717819214,-0.3707841634750366,-9.686413764953613
1745738053.0775518,0.003214053111150861,-0.011400504037737846,-0.2898537516593933,0.4694003462791443,-0.8034189939498901,-9.92403793334961
1745738053.07759,0.03499344736337662,-0.013717291876673698,-0.29007086157798767,0.4158986210823059,-0.3736339509487152,-9.760540962219238
1745738053.078696,0.022297581657767296,-0.011584771797060966,-0.2874299883842468,0.37725600600242615,-0.6946010589599609,-9.701961517333984
1745738053.0814412,0.024684598669409752,-0.01792844757437706,-0.2880455553531647,0.5229355692863464,-0.5707124471664429,-9.711316108703613
1745738053.1192138,0.031167518347501755,-0.012349640019237995,-0.28954535722732544,0.3789016902446747,-0.6866135597229004,-9.884973526000977
1745738053.1208358,0.014105590060353279,-0.011662198230624199,-0.2902078628540039,0.556786298751831,-0.8068108558654785,-9.760560989379883
1745738053.1230469,0.03051716461777687,-0.014355378225445747,-0.2881976068019867,0.39780688285827637,-0.45386576652526855,-9.559785842895508
1745738053.1268659,-0.0018974784761667252,-0.014847365207970142,-0.2876768708229065,0.5577148795127869,-0.9302451014518738,-9.847085952758789
1745738053.1617274,0.03136974945664406,-0.016501961275935173,-0.28752845525741577,0.4116043448448181,-0.4657198488712311,-9.948208808898926
1745738053.1674397,0.006503256503492594,-0.013660542666912079,-0.2894372344017029,0.4368574619293213,-0.7410492300987244,-9.77977180480957
1745738053.167476,0.017838988453149796,-0.015634750947356224,-0.2883313000202179,0.44206494092941284,-0.5812095999717712,-9.536767959594727
1745738053.1702738,0.02416841685771942,-0.014165406115353107,-0.2903473973274231,0.3556762933731079,-0.5225479602813721,-9.693587303161621
1745738053.1744313,0.009718846529722214,-0.017659708857536316,-0.2892936170101166,0.5747940540313721,-0.7663618326187134,-9.935595512390137
1745738053.2039783,0.03472235053777695,-0.01313687302172184,-0.2884133458137512,0.31959325075149536,-0.4861619472503662,-9.804743766784668
1745738053.2060218,0.009398347698152065,-0.015775691717863083,-0.2882576882839203,0.5481230616569519,-0.9001721143722534,-9.691899299621582
1745738053.2101126,0.021976958960294724,-0.022079110145568848,-0.28686994314193726,0.3949732184410095,-0.5271716713905334,-9.712435722351074
1745738053.2137723,0.003962923306971788,-0.015493474900722504,-0.28718122839927673,0.5150348544120789,-0.8378931283950806,-9.93255615234375
1745738053.2465723,0.017561737447977066,-0.020597368478775024,-0.28830474615097046,0.4517670273780823,-0.5620256662368774,-9.71798038482666
1745738053.2506146,0.00847219955176115,-0.011798071675002575,-0.2869262397289276,0.36356672644615173,-0.6363330483436584,-9.54591178894043
1745738053.250679,-0.0024378434754908085,-0.019259367138147354,-0.2899821400642395,0.5604599714279175,-0.7190715074539185,-9.682618141174316
1745738053.2530477,0.026704678311944008,-0.015200445428490639,-0.28786635398864746,0.29471439123153687,-0.3770996928215027,-9.921785354614258
1745738053.2893176,0.02463478222489357,-0.014398564584553242,-0.28630009293556213,0.40525221824645996,-0.49737897515296936,-9.633344650268555
1745738053.2917187,-0.004822516813874245,-0.02014135755598545,-0.28723835945129395,0.5404859781265259,-0.8792260885238647,-9.986505508422852
1745738053.2941024,0.036088552325963974,-0.013020606711506844,-0.28885045647621155,0.29217609763145447,-0.38741838932037354,-9.859464645385742
1745738053.2981234,-0.0041100759990513325,-0.01703120954334736,-0.28815630078315735,0.5233616828918457,-0.8252987861633301,-9.611074447631836
1745738053.3014214,0.02138989046216011,-0.017446717247366905,-0.28725966811180115,0.40029916167259216,-0.6174951791763306,-9.522448539733887
1745738053.3322735,0.008594955317676067,-0.01364967506378889,-0.28564032912254333,0.43943747878074646,-0.7146214842796326,-9.856237411499023
1745738053.3342202,0.010670267045497894,-0.01667572557926178,-0.28396347165107727,0.5484813451766968,-0.6663228273391724,-9.995321273803711
1745738053.3358152,0.028510412201285362,-0.013696198351681232,-0.2809509336948395,0.3311042785644531,-0.5577040910720825,-9.717732429504395
1745738053.3371613,0.010003597475588322,-0.02122228406369686,-0.2838185727596283,0.470449298620224,-0.7158700823783875,-9.592924118041992
1745738053.3761919,0.02944043278694153,-0.01799994707107544,-0.2841217815876007,0.3012922704219818,-0.46790146827697754,-9.788938522338867
1745738053.379601,0.009527774527668953,-0.014128318056464195,-0.2862212657928467,0.49193906784057617,-0.7867534756660461,-9.846903800964355
1745738053.3831766,0.03332633525133133,-0.017239026725292206,-0.28550776839256287,0.42845529317855835,-0.46406906843185425,-9.624101638793945
1745738053.3866608,0.0060139428824186325,-0.016252392902970314,-0.28557080030441284,0.4584607183933258,-0.8266345858573914,-9.662406921386719
1745738053.391019,0.01227880921214819,-0.020642906427383423,-0.28404003381729126,0.5092875957489014,-0.7439326643943787,-9.845536231994629
1745738053.4195046,0.01782948710024357,-0.01805102825164795,-0.2807193100452423,0.39796575903892517,-0.5905336141586304,-9.86262321472168
1745738053.42359,0.028715860098600388,-0.010048123076558113,-0.2814372181892395,0.29991739988327026,-0.5557156801223755,-9.612581253051758
1745738053.4267244,0.0023200076539069414,-0.01595130003988743,-0.2805573642253876,0.5184375047683716,-0.7314369082450867,-9.65601921081543
1745738053.4297786,0.03974365442991257,-0.009657328948378563,-0.28048962354660034,0.3288576602935791,-0.5925981402397156,-9.785164833068848
1745738053.4620998,0.0009915316477417946,-0.013195442967116833,-0.28144699335098267,0.5065183043479919,-0.7076425552368164,-9.849024772644043
1745738053.4640613,0.03215061500668526,-0.00968160666525364,-0.27957338094711304,0.3522484302520752,-0.5867279767990112,-9.781078338623047
1745738053.4674127,0.008821504190564156,-0.010530339553952217,-0.2798421084880829,0.4693987965583801,-0.8172742128372192,-9.752924919128418
1745738053.4692216,0.017833318561315536,-0.018938669934868813,-0.2800946831703186,0.42927712202072144,-0.6008008718490601,-9.740961074829102
1745738053.5065577,0.008856868371367455,-0.01050734706223011,-0.278597891330719,0.40323036909103394,-0.8462092280387878,-9.865680694580078
1745738053.5087724,0.0006140600889921188,-0.016850721091032028,-0.2789546847343445,0.425295352935791,-0.6780530214309692,-9.681421279907227
1745738053.5157392,0.02047066017985344,-0.009281917475163937,-0.2786765992641449,0.3042226731777191,-0.5473503470420837,-9.571369171142578
1745738053.5163636,-0.011971930973231792,-0.012170450761914253,-0.28032103180885315,0.5133570432662964,-0.6716339588165283,-9.77767276763916
1745738053.5175529,0.03021804429590702,-0.01004723273217678,-0.279655396938324,0.3603052496910095,-0.4747660756111145,-9.895869255065918
1745738053.5484905,0.004987417720258236,-0.012036673724651337,-0.2814483344554901,0.4751735329627991,-0.6699392795562744,-9.856432914733887
1745738053.5528834,0.02418566681444645,-0.013508478179574013,-0.2807392477989197,0.3340221047401428,-0.5980780720710754,-9.646206855773926
1745738053.5571878,0.02249610796570778,-0.008408384397625923,-0.27898624539375305,0.4106348156929016,-0.6702792048454285,-9.620626449584961
1745738053.5582387,0.01047978363931179,-0.014707413502037525,-0.27986520528793335,0.5048815011978149,-0.679301381111145,-9.765867233276367
1745738053.6046681,0.029077082872390747,-0.006883889436721802,-0.27831345796585083,0.38999003171920776,-0.6276001930236816,-9.843263626098633
1745738053.6047444,0.0041414229199290276,-0.014017336070537567,-0.27991753816604614,0.4951220154762268,-0.7562091946601868,-9.847757339477539
1745738053.6082995,0.027610111981630325,-0.009544356726109982,-0.27789467573165894,0.2856941223144531,-0.5614903569221497,-9.734560012817383
1745738053.6122563,-0.007702972739934921,-0.013394160196185112,-0.28307321667671204,0.47061219811439514,-0.7360963821411133,-9.724217414855957
1745738053.632038,0.021286914125084877,-0.013318111188709736,-0.2821725904941559,0.3637610971927643,-0.5722175240516663,-9.770078659057617
1745738053.634439,0.02912108227610588,-0.015486234799027443,-0.28203898668289185,0.36762556433677673,-0.48594847321510315,-9.752312660217285
1745738053.6357763,0.007237917277961969,-0.009498519822955132,-0.28027114272117615,0.4757370054721832,-0.8139022588729858,-9.79707145690918
1745738053.6374514,0.013833570294082165,-0.015445837751030922,-0.2825036644935608,0.40987882018089294,-0.6281048059463501,-9.696233749389648
1745738053.638937,0.01168907806277275,-0.00966019369661808,-0.27958282828330994,0.4482954144477844,-0.7600135207176208,-9.70539665222168
1745738053.6781569,-0.013162289746105671,-0.015598324127495289,-0.2807624936103821,0.4532000422477722,-0.7710150480270386,-9.876779556274414
1745738053.6834521,0.02364506945014,-0.010393950156867504,-0.2780458927154541,0.3775407075881958,-0.6592658162117004,-9.839693069458008
1745738053.686568,-0.01374191977083683,-0.014998840168118477,-0.2792893946170807,0.46051207184791565,-0.6187993288040161,-9.653167724609375
1745738053.6898608,0.02322228252887726,-0.011455115862190723,-0.27921169996261597,0.2910950183868408,-0.5036166906356812,-9.650279998779297
1745738053.72132,0.007548016496002674,-0.00888680387288332,-0.280317485332489,0.45760002732276917,-0.557982325553894,-9.733449935913086
1745738053.7245243,0.019230684265494347,-0.013243665918707848,-0.2813020944595337,0.41670483350753784,-0.5797820687294006,-9.848350524902344
1745738053.727265,0.0231952965259552,-0.007743877358734608,-0.2793125808238983,0.4030614495277405,-0.7436662316322327,-9.797547340393066
1745738053.730595,0.005946903023868799,-0.015739742666482925,-0.27825304865837097,0.41965827345848083,-0.7051404714584351,-9.752595901489258
1745738053.7343738,0.022931937128305435,-0.008640916086733341,-0.2775264382362366,0.37254032492637634,-0.7353982925415039,-9.75120735168457
1745738053.7764423,-0.008659981191158295,-0.015478158369660378,-0.2800610661506653,0.5642739534378052,-0.6627761125564575,-9.75774097442627
1745738053.7767403,0.002562630455940962,-0.01600280962884426,-0.2792014479637146,0.48302727937698364,-0.5990983843803406,-9.898818016052246
1745738053.7768362,0.02867918089032173,-0.014608407393097878,-0.2807152271270752,0.30961084365844727,-0.624852180480957,-9.710107803344727
1745738053.7769122,0.0004694879171438515,-0.016486575827002525,-0.2808927893638611,0.4980684816837311,-0.6778373122215271,-9.584052085876465
1745738053.807911,0.01178552396595478,-0.019540289416909218,-0.28071990609169006,0.3257501721382141,-0.6601269841194153,-9.841604232788086
1745738053.8120525,0.02090355195105076,-0.010145309381186962,-0.2821395695209503,0.4591115415096283,-0.6788941621780396,-9.882164001464844
1745738053.8153648,0.0038947523571550846,-0.017661195248365402,-0.2827746272087097,0.4750784933567047,-0.4804263114929199,-9.641275405883789
1745738053.8190339,0.02487371489405632,-0.013424071483314037,-0.2813626825809479,0.4601231515407562,-0.7968536019325256,-9.633389472961426
1745738053.8498497,0.0004709917993750423,-0.019224239513278008,-0.2836012840270996,0.45011964440345764,-0.5506874918937683,-9.78959846496582
1745738053.8536804,0.025415901094675064,-0.010648684576153755,-0.28105804324150085,0.36208999156951904,-0.7657336592674255,-9.99398136138916
1745738053.8555741,0.005618448369204998,-0.013716444373130798,-0.2798265814781189,0.45277971029281616,-0.651495635509491,-9.64338207244873
1745738053.8570116,0.023007867857813835,-0.01906256191432476,-0.2803080677986145,0.3196345865726471,-0.5687006711959839,-9.652249336242676
1745738053.858183,0.009936599992215633,-0.017844781279563904,-0.2793002128601074,0.48336610198020935,-0.7418119311332703,-9.891495704650879
1745738053.9064395,0.015692835673689842,-0.017954429611563683,-0.2835971415042877,0.3971872329711914,-0.4819570481777191,-9.863868713378906
1745738053.908603,0.027654170989990234,-0.01392153836786747,-0.28211066126823425,0.4519387185573578,-0.7956233024597168,-9.634012222290039
1745738053.910521,-0.0006554230931214988,-0.02088754251599312,-0.28277915716171265,0.41508251428604126,-0.5442923903465271,-9.584563255310059
1745738053.9211109,0.02171102724969387,-0.013407954946160316,-0.28197523951530457,0.38530054688453674,-0.8151542544364929,-9.925639152526855
1745738053.9371736,0.0066291154362261295,-0.01641888916492462,-0.2823856472969055,0.4694778323173523,-0.5216742753982544,-9.816668510437012
1745738053.938765,0.016149500384926796,-0.016908036544919014,-0.28317350149154663,0.35930246114730835,-0.6363661289215088,-9.722933769226074
1745738053.9405675,0.01787451095879078,-0.016305722296237946,-0.28407156467437744,0.5253564715385437,-0.6735966801643372,-9.685969352722168
1745738053.9431632,0.013912403956055641,-0.022269317880272865,-0.28300508856773376,0.35153117775917053,-0.5662004351615906,-9.846623420715332
1745738053.978204,0.023326018825173378,-0.011923816986382008,-0.28216686844825745,0.4465095102787018,-0.7417939901351929,-9.807851791381836
1745738053.9831672,0.009730951860547066,-0.01972297951579094,-0.2818564772605896,0.4280688166618347,-0.60996413230896,-9.672586441040039
1745738053.985723,0.01610127091407776,-0.01543447095900774,-0.2850951552391052,0.369989275932312,-0.5187894105911255,-9.725675582885742
1745738053.9893525,0.02370978519320488,-0.01334622222930193,-0.2825292944908142,0.46447429060935974,-0.936200737953186,-9.845084190368652
1745738053.9929416,0.009738728404045105,-0.018601365387439728,-0.281320720911026,0.4286818504333496,-0.5616742372512817,-9.748266220092773
1745738054.0231278,0.028965886682271957,-0.01687462255358696,-0.2842622697353363,0.35035139322280884,-0.7019422650337219,-9.802356719970703
1745738054.0256157,0.008612764067947865,-0.01702042669057846,-0.28148359060287476,0.48687267303466797,-0.6552440524101257,-9.782487869262695
1745738054.026965,0.027638349682092667,-0.01793256215751171,-0.2828514873981476,0.27574920654296875,-0.48103633522987366,-9.755805969238281
1745738054.0287254,0.028224576264619827,-0.015405481681227684,-0.2850695252418518,0.49458378553390503,-0.742326557636261,-9.701872825622559
1745738054.0695083,0.0209782924503088,-0.01879752054810524,-0.28424960374832153,0.31501322984695435,-0.43433159589767456,-9.652144432067871
1745738054.0698488,0.03229883685708046,-0.011182081885635853,-0.28419026732444763,0.45160752534866333,-0.852395236492157,-9.808852195739746
1745738054.069906,0.023902954533696175,-0.018450018018484116,-0.2832660973072052,0.41964855790138245,-0.43370765447616577,-9.797935485839844
1745738054.0728834,0.02922336757183075,-0.014753716066479683,-0.2831151783466339,0.3866882920265198,-0.848689079284668,-9.8665771484375
1745738054.0772235,0.026500564068555832,-0.016227608546614647,-0.28365379571914673,0.5233510136604309,-0.640229344367981,-9.679604530334473
1745738054.1083767,0.02316618338227272,-0.019125038757920265,-0.28192538022994995,0.30384141206741333,-0.6989513635635376,-9.744037628173828
1745738054.1117415,0.02375779300928116,-0.016118783503770828,-0.28332072496414185,0.4918486177921295,-0.7635131478309631,-9.747028350830078
1745738054.1178358,-0.06590215861797333,-0.04239874705672264,-0.190883606672287,0.2931763827800751,-1.4215998649597168,-9.385552406311035
1745738054.1211784,-0.055918753147125244,-0.06584744900465012,-0.17812009155750275,0.2457926720380783,-0.9614967107772827,-8.642854690551758
1745738054.1522083,-0.09518241137266159,-0.06907521188259125,-0.17497390508651733,0.22597308456897736,-0.9678219556808472,-10.177900314331055
1745738054.1544032,-0.08561737835407257,-0.058017320930957794,-0.17082762718200684,0.001373892999254167,-0.5590506792068481,-10.916152954101562
1745738054.1601946,-0.07154066860675812,-0.04368948936462402,-0.17225483059883118,-0.24522796273231506,-0.4013134837150574,-9.36347770690918
1745738054.1614246,-0.08358253538608551,-0.06812699139118195,-0.1695602834224701,-0.05253366380929947,-0.37065428495407104,-8.597476959228516
1745738054.195122,-0.05050959438085556,-0.06954273581504822,-0.16576682031154633,-0.24461176991462708,-0.18113844096660614,-10.098928451538086
1745738054.1986048,-0.05489538237452507,-0.05201536417007446,-0.1644006371498108,-0.03237224370241165,-0.49105411767959595,-10.83055305480957
1745738054.2021506,-0.020704200491309166,-0.04964857175946236,-0.1615864783525467,0.00459835771471262,-0.38668256998062134,-9.372232437133789
1745738054.2068787,-0.04956553131341934,-0.0646018534898758,-0.1571682095527649,0.30861786007881165,-0.679754912853241,-8.949034690856934
1745738054.2388918,-0.034791819751262665,-0.07539088279008865,-0.15256577730178833,0.2679729163646698,-0.5108238458633423,-10.301661491394043
1745738054.2663152,-0.03677976876497269,-0.05495907738804817,-0.1512186974287033,0.1594201624393463,-0.7553991675376892,-10.816189765930176
1745738054.2692034,-0.061163775622844696,-0.05863560363650322,-0.14791521430015564,0.10427834838628769,-0.7373830080032349,-9.419576644897461
1745738054.2716951,-0.051584161818027496,-0.06952105462551117,-0.14665384590625763,-0.10991419851779938,-0.5924739241600037,-8.856773376464844
1745738054.2752671,-0.0872153639793396,-0.07281835377216339,-0.14500530064105988,-0.04837391898036003,-0.6071898937225342,-10.126104354858398
1745738054.2815585,-0.05313339829444885,-0.05604708194732666,-0.14686396718025208,-0.15969344973564148,-0.3441006541252136,-10.568382263183594
1745738054.283454,-0.0763946995139122,-0.054263364523649216,-0.14663895964622498,0.004182461649179459,-0.6342639327049255,-9.4860200881958
1745738054.2851605,-0.0603189542889595,-0.06644478440284729,-0.1435396373271942,-0.04324578866362572,-0.41767483949661255,-9.082709312438965
1745738054.2899241,-0.06512574851512909,-0.061825357377529144,-0.1401381641626358,0.038251541554927826,-0.8306378126144409,-10.109480857849121
1745738054.32165,-0.06833485513925552,-0.05369465798139572,-0.13296082615852356,0.07093873620033264,-0.6610251069068909,-10.368642807006836
1745738054.3251302,-0.05873879790306091,-0.0488797090947628,-0.12812046706676483,0.04045537859201431,-0.7423219680786133,-9.522302627563477
1745738054.3364303,-0.07808715105056763,-0.04877522960305214,-0.11766169220209122,0.13890835642814636,-0.42815691232681274,-9.688819885253906
1745738054.3364747,-0.05281590670347214,-0.04934930056333542,-0.11364452540874481,-0.051322318613529205,-0.2974306344985962,-9.686190605163574
1745738054.3674722,-0.062165480107069016,-0.04561028629541397,-0.11276528984308243,0.08595456928014755,-0.4304382801055908,-9.937291145324707
1745738054.3697586,-0.043845634907484055,-0.043731044977903366,-0.1138790100812912,-0.11132099479436874,-0.2645646929740906,-9.934537887573242
1745738054.3722868,-0.05910510942339897,-0.04252935200929642,-0.11466340720653534,0.010916821658611298,-0.6480666995048523,-9.713430404663086
1745738054.3762689,-0.06450707465410233,-0.04286566376686096,-0.11264248937368393,-0.10921146720647812,-0.44932952523231506,-9.6657075881958
1745738054.3778172,-0.0729980319738388,-0.03326498717069626,-0.11221549659967422,-0.009185543283820152,-0.7500051856040955,-9.840828895568848
1745738054.411101,-0.0914902538061142,-0.036440830677747726,-0.1090136393904686,0.17827259004116058,-0.5309610962867737,-9.788942337036133
1745738054.4172134,-0.0848163515329361,-0.03504125773906708,-0.10842923820018768,0.08051971346139908,-0.5695765614509583,-9.876980781555176
1745738054.4189174,-0.10269878804683685,-0.0325823538005352,-0.10690374672412872,0.17595720291137695,-0.5052711367607117,-9.876673698425293
1745738054.430332,-0.08213166147470474,-0.030609551817178726,-0.10452618449926376,-0.0819893628358841,-0.24245159327983856,-9.778979301452637
1745738054.45424,-0.08682512491941452,-0.023491743952035904,-0.10332201421260834,0.04272007197141647,-0.4601263105869293,-9.703145027160645
1745738054.4562023,-0.06993893533945084,-0.03089093789458275,-0.10041453689336777,-0.11687517166137695,-0.0547223798930645,-9.750631332397461
1745738054.4590821,-0.06125769764184952,-0.019251393154263496,-0.09880049526691437,-0.09251433610916138,-0.3140811324119568,-9.930506706237793
1745738054.4620256,-0.05251942202448845,-0.02206157147884369,-0.09941969066858292,-0.025448311120271683,-0.10678447782993317,-9.711851119995117
1745738054.5008311,-0.06178099662065506,0.013061883859336376,-0.07158831506967545,0.0536051020026207,-0.1355389505624771,-9.724886894226074
1745738054.5018892,-0.06631191074848175,0.019323300570249557,-0.07540623098611832,0.12122826278209686,-0.4362582266330719,-9.724940299987793
1745738054.503332,-0.07084612548351288,0.014616425149142742,-0.07133020460605621,0.11673559248447418,-0.1782701313495636,-9.764864921569824
1745738054.5063896,-0.056587379425764084,0.020900379866361618,-0.0685805007815361,0.017021840438246727,-0.324135959148407,-9.86440658569336
1745738054.5104196,-0.06368588656187057,0.019057270139455795,-0.0678817629814148,0.12333954870700836,-0.22226294875144958,-9.692571640014648
1745738054.5392482,-0.04533533379435539,0.021567456424236298,-0.0668397769331932,-0.05373280495405197,-0.08504129946231842,-9.693426132202148
1745738054.5407395,-0.05277284234762192,0.020886927843093872,-0.06772926449775696,0.1346021592617035,-0.2626170516014099,-9.795110702514648
1745738054.5424352,-0.04109017923474312,0.018839091062545776,-0.0675392597913742,0.022330742329359055,-0.0509055070579052,-9.83194637298584
1745738054.5440378,-0.04512789100408554,0.02445346675813198,-0.06773246824741364,0.13448110222816467,-0.39697974920272827,-9.777544021606445
1745738054.5821428,-0.05109267681837082,0.01899111457169056,-0.06745290011167526,0.11801628023386002,-0.22185926139354706,-9.675579071044922
1745738054.5837972,-0.04985726997256279,0.022919518873095512,-0.06505222618579865,0.09569233655929565,-0.4677742123603821,-9.80441951751709
1745738054.5868144,-0.06757079064846039,0.020658496767282486,-0.06533454358577728,0.23852165043354034,-0.3351203203201294,-9.807000160217285
1745738054.5973804,-0.05607883259654045,0.023807859048247337,-0.06271716952323914,0.06300217658281326,-0.27821192145347595,-9.798527717590332
1745738054.597441,-0.07559661567211151,0.0187530480325222,-0.06620682775974274,0.1805846244096756,-0.3531237840652466,-9.7608642578125
1745738054.6250198,-0.06363940984010696,0.023222381249070168,-0.06774111092090607,0.20729008316993713,0.05067194625735283,-9.678182601928711
1745738054.6274438,-0.07236754149198532,0.017897212877869606,-0.0655181035399437,0.3747430443763733,-0.407956063747406,-9.927068710327148
1745738054.6374652,-0.025440135970711708,0.02385883964598179,-0.0597066655755043,-0.33696895837783813,0.2983075976371765,-9.929288864135742
1745738054.637813,-0.0273894015699625,0.032038453966379166,-0.055847298353910446,0.09048259258270264,-0.2722773849964142,-9.282922744750977
1745738054.6695712,-0.015132507309317589,0.01751243695616722,-0.05222455412149429,0.17344358563423157,-0.2528519630432129,-9.492340087890625
1745738054.6727912,-0.038011204451322556,0.0028251244220882654,-0.05526015907526016,-0.2785971760749817,-0.1307564079761505,-10.476149559020996
1745738054.674693,-0.03948567062616348,0.03897890821099281,-0.06102941185235977,-0.12594982981681824,-0.2777659595012665,-9.960389137268066
1745738054.6796205,-0.04922522231936455,0.009304579347372055,-0.061247922480106354,-0.4183461666107178,-0.4224771559238434,-9.019410133361816
1745738054.710604,-0.07736963033676147,-0.0138691496104002,-0.0635421946644783,-0.1492249071598053,-0.07442838698625565,-8.071380615234375
1745738054.7136533,-0.11480297893285751,-0.01699823886156082,-0.06003223732113838,0.05405360460281372,-0.9049655199050903,-10.565160751342773
1745738054.717466,-0.10439308732748032,-0.0036893696524202824,-0.0571318194270134,0.15064296126365662,-0.298435240983963,-11.24748706817627
1745738054.7208502,-0.10817863792181015,0.00964304618537426,-0.0562015064060688,0.13398055732250214,-0.2958925664424896,-9.081674575805664
1745738054.7254107,-0.13890552520751953,-0.01886700838804245,-0.04865361005067825,0.2510128319263458,-0.22391614317893982,-8.313693046569824
1745738054.7581193,-0.10478837788105011,-0.035335469990968704,-0.050341587513685226,0.13221508264541626,0.2781693935394287,-10.359903335571289
1745738054.7594695,-0.09712646901607513,-0.006593791302293539,-0.052494436502456665,-0.14336957037448883,0.35895296931266785,-11.39750862121582
1745738054.7633104,-0.05349550396203995,-0.002271428471431136,-0.05930311605334282,-0.5826705098152161,0.6023162007331848,-9.182985305786133
1745738054.7668817,-0.03067498281598091,-0.020157767459750175,-0.059027135372161865,-0.2503626346588135,0.4307071566581726,-8.01958179473877
1745738054.8051085,-0.022742312401533127,-0.03680151700973511,-0.062419403344392776,-0.37001150846481323,0.24392786622047424,-10.297067642211914
1745738054.8052075,0.012256561778485775,-0.006861730478703976,-0.0576542504131794,-0.3446390628814697,-0.2860613465309143,-11.308723449707031
1745738054.8052568,0.0038920980878174305,6.346889131236821e-05,-0.049185432493686676,-0.08976995944976807,-0.6004636883735657,-9.303682327270508
1745738054.8077466,-0.020142538473010063,-0.01804497465491295,-0.04435860365629196,-0.14302301406860352,-0.49247056245803833,-8.285724639892578
1745738054.8398092,-0.05690007284283638,-0.04696056991815567,-0.04676301032304764,0.36038482189178467,-0.75257408618927,-10.225370407104492
1745738054.8419223,-0.16073653101921082,-0.052842915058135986,-0.058204285800457,-0.6002824306488037,0.4118242859840393,-9.914169311523438
1745738054.845192,-0.1073794811964035,-0.05403559282422066,-0.05720134824514389,-1.073704481124878,0.42640024423599243,-10.360247611999512
1745738054.845823,-0.07914752513170242,-0.05659559369087219,-0.05545295402407646,-0.41625720262527466,0.3499041199684143,-9.537203788757324
1745738054.847563,-0.07047447562217712,-0.04848087206482887,-0.05441002920269966,-0.7509938478469849,0.5286049842834473,-9.604997634887695
1745738054.8853383,-0.03611042723059654,-0.0635807067155838,-0.05398377776145935,-0.5367078185081482,0.10766907036304474,-10.06904125213623
1745738054.888144,-0.0363759770989418,-0.06386347115039825,-0.0560963936150074,-0.6182448267936707,0.3686535954475403,-10.158397674560547
1745738054.892052,-0.04596506059169769,-0.046034518629312515,-0.05873960256576538,-0.5984247922897339,-0.1967988759279251,-9.983799934387207
1745738054.8961585,-0.04408857226371765,-0.06662968546152115,-0.06221693009138107,-0.48425254225730896,-0.046382974833250046,-9.492149353027344
1745738054.9241824,-0.08115237951278687,-0.06000291183590889,-0.06335638463497162,-0.8220670819282532,-0.2771686315536499,-9.845901489257812
1745738054.926346,-0.09829098731279373,-0.05851391702890396,-0.06612496078014374,-0.49453315138816833,-0.5344910621643066,-10.11100959777832
1745738054.9280515,-0.11041698604822159,-0.056004881858825684,-0.06376251578330994,-0.7451686859130859,-0.03765283524990082,-9.804910659790039
1745738054.9293995,-0.1356070190668106,-0.05872412398457527,-0.06273436546325684,-0.6739367246627808,-0.4377611577510834,-9.801289558410645
1745738054.9309573,-0.12350102514028549,-0.06328743696212769,-0.06220773980021477,-0.7897640466690063,0.34588417410850525,-9.850895881652832
1745738054.9690964,-0.12133070081472397,-0.053593821823596954,-0.05886992812156677,-0.6957718133926392,-0.06524083018302917,-10.131217956542969
1745738054.9729674,-0.09342066198587418,-0.056432150304317474,-0.06000911071896553,-0.6036413311958313,0.41967669129371643,-9.746728897094727
1745738054.9778056,-0.09017513692378998,-0.06201913207769394,-0.059605009853839874,-0.8306523561477661,0.4170536994934082,-9.900074005126953
1745738054.9807322,-0.07435949146747589,-0.06269378960132599,-0.06018953397870064,-0.5910233855247498,0.30233997106552124,-9.925714492797852
1745738055.0102236,-0.05011801794171333,-0.04974301904439926,-0.06350596249103546,-0.7410999536514282,0.6730806827545166,-9.814860343933105
1745738055.012605,-0.06550894677639008,-0.05123210698366165,-0.07140205800533295,-0.5491594076156616,0.15264825522899628,-9.901422500610352
1745738055.0148842,-0.037372149527072906,-0.06592242419719696,-0.07174650579690933,-0.6287223696708679,0.5322902798652649,-9.878206253051758
1745738055.0219817,-0.05214153602719307,-0.052999675273895264,-0.07521798461675644,-0.5544059872627258,-0.034988146275281906,-10.033689498901367
1745738055.0545025,-0.02410806156694889,-0.0410744845867157,-0.07529830932617188,-0.7725018262863159,-0.06804871559143066,-9.907384872436523
1745738055.0562873,-0.03391406685113907,-0.05084927752614021,-0.0775780901312828,-0.5872394442558289,0.20594444870948792,-9.670904159545898
1745738055.0581653,-0.028589431196451187,-0.041679225862026215,-0.07652147114276886,-0.8016527891159058,0.19039125740528107,-10.024492263793945
1745738055.0601635,-0.040321867913007736,-0.043600719422101974,-0.07386864721775055,-0.7813246846199036,-0.043116532266139984,-10.102383613586426
1745738055.0616663,-0.010459914803504944,-0.04514878988265991,-0.076344795525074,-0.8229497671127319,0.4816890358924866,-9.623418807983398
1745738055.0990622,-0.028353825211524963,-0.03676183149218559,-0.07421062886714935,-0.564904510974884,0.0903378501534462,-9.744942665100098
1745738055.102383,0.006857497151941061,-0.04469822719693184,-0.0734894722700119,-0.9335583448410034,0.5504733920097351,-10.113245964050293
1745738055.1090426,0.01391883660107851,-0.03592309355735779,-0.0751970186829567,-0.7546095252037048,0.3031936287879944,-9.844496726989746
1745738055.1132221,0.01099432073533535,-0.03281182795763016,-0.07673425227403641,-0.772598147392273,0.10749944299459457,-9.583045959472656
1745738055.1424358,0.030946845188736916,-0.026847174391150475,-0.07870833575725555,-0.8637380599975586,0.3187228739261627,-9.671387672424316
1745738055.1461418,-0.003225362626835704,-0.03774712234735489,-0.08294709771871567,-0.673937201499939,-0.0720394104719162,-10.104488372802734
1745738055.149357,0.03212811425328255,-0.02812519669532776,-0.0815398171544075,-0.8589162826538086,0.19598901271820068,-9.940269470214844
1745738055.150972,-0.01180855929851532,-0.01762143149971962,-0.08266934752464294,-0.701572060585022,-0.23485612869262695,-9.685304641723633
1745738055.1849136,-0.001539944438263774,-0.03307359665632248,-0.07896842062473297,-0.897424042224884,-0.020870894193649292,-9.730816841125488
1745738055.1889534,-0.007351422216743231,-0.02283540926873684,-0.07636993378400803,-0.7439983487129211,-0.06497428566217422,-9.925043106079102
1745738055.1910532,0.037899140268564224,0.03686513751745224,-0.09190046787261963,-0.7395321726799011,0.12183278799057007,-9.616930961608887
1745738055.1924675,0.036701545119285583,0.037326205521821976,-0.09475596994161606,-0.6150872111320496,-0.08292072266340256,-9.848367691040039
1745738055.227373,0.0380682647228241,0.03313133493065834,-0.09094726294279099,-0.7381399869918823,0.24589750170707703,-9.643942832946777
1745738055.2316432,0.034124184399843216,0.045528337359428406,-0.09230933338403702,-0.6029769778251648,-0.1449163258075714,-9.63818073272705
1745738055.2343888,0.040499504655599594,0.03933553397655487,-0.0903402790427208,-0.5730191469192505,0.31732940673828125,-9.60737419128418
1745738055.2380865,0.045085608959198,0.042591892182826996,-0.09303732961416245,-0.7834864854812622,0.023076416924595833,-9.808003425598145
1745738055.2416134,0.0482541099190712,0.04693435877561569,-0.09317995607852936,-0.4875844419002533,0.13801291584968567,-9.623944282531738
1745738055.2700167,0.06802002340555191,0.05648168921470642,-0.09299822151660919,-0.623417317867279,0.3393692076206207,-9.505326271057129
1745738055.273423,0.03471361845731735,0.05108435079455376,-0.09669660031795502,-0.6456058025360107,-0.05278916284441948,-9.714146614074707
1745738055.2759457,0.07493944466114044,0.048352666199207306,-0.09953685849905014,-0.5577602982521057,0.30628108978271484,-9.62303352355957
1745738055.2801316,0.0333014540374279,0.061825692653656006,-0.09905552864074707,-0.5358524322509766,-0.05561915785074234,-9.81358814239502
1745738055.3128228,0.051646888256073,0.04793209210038185,-0.1000245213508606,-0.630174994468689,0.11566971242427826,-9.771383285522461
1745738055.3162482,0.049604643136262894,0.052480071783065796,-0.10102466493844986,-0.5614390969276428,0.02980644442141056,-9.601312637329102
1745738055.3199804,0.02600308693945408,0.058983415365219116,-0.0985460877418518,-0.5340350866317749,-0.10373054444789886,-9.756019592285156
1745738055.3235981,0.0719546526670456,0.05961707979440689,-0.095563605427742,-0.6220538020133972,0.28915736079216003,-9.631415367126465
1745738055.32762,0.02817760407924652,0.0482405461370945,-0.09928534179925919,-0.5029703974723816,0.07375828921794891,-9.64856243133545
1745738055.35742,0.07829853147268295,0.05639580637216568,-0.09971363097429276,-0.5880802869796753,0.16789984703063965,-9.798974990844727
1745738055.3597527,0.05620163679122925,0.06383912265300751,-0.1026899591088295,-0.4620133936405182,0.26408037543296814,-9.703692436218262
1745738055.3619266,0.04930076748132706,0.05392910912632942,-0.104032501578331,-0.7660123705863953,0.006006830837577581,-9.707847595214844
1745738055.3648965,0.07840044051408768,0.05912410467863083,-0.10714691877365112,-0.42347630858421326,0.10061107575893402,-9.419547080993652
1745738055.3981035,0.01883469521999359,0.0600423589348793,-0.1070350632071495,-0.4526192545890808,-0.01948004961013794,-9.77271842956543
1745738055.4011085,0.05520341917872429,0.07297956943511963,-0.11042414605617523,-0.5791524648666382,0.04661756753921509,-9.894563674926758
1745738055.403206,0.06417746841907501,0.06636861711740494,-0.10916080325841904,-0.3480125069618225,-0.08960200846195221,-9.636981010437012
1745738055.4058754,0.06192122772336006,0.06190007925033569,-0.11040731519460678,-0.46880751848220825,0.273265540599823,-9.452228546142578
1745738055.4059265,0.05591343715786934,0.07577763497829437,-0.10837223380804062,-0.41314029693603516,-0.17871025204658508,-9.953259468078613
1745738055.4437714,0.07373350113630295,0.06216304376721382,-0.10953980684280396,-0.3838689923286438,0.32185614109039307,-9.789361000061035
1745738055.4448292,0.07489663362503052,0.06442345678806305,-0.11005202680826187,-0.4487234055995941,0.05335165932774544,-9.593475341796875
1745738055.4497273,0.08042683452367783,0.06995005905628204,-0.10976264625787735,-0.3281630575656891,0.08762339502573013,-9.664679527282715
1745738055.449799,0.08425344526767731,0.0664338618516922,-0.11310853809118271,-0.5104938745498657,0.16527940332889557,-9.76718807220459
1745738055.486722,0.06650938093662262,0.06462792307138443,-0.11293116956949234,-0.25660592317581177,-0.20044943690299988,-9.77753734588623
1745738055.4879656,0.08299586921930313,0.06617921590805054,-0.11469700187444687,-0.35140958428382874,0.24090449512004852,-9.579324722290039
1745738055.4913175,0.05209631845355034,0.06799658387899399,-0.11737056821584702,-0.356899619102478,-0.29931020736694336,-9.759454727172852
1745738055.4931521,0.07210300862789154,0.05886582285165787,-0.11445579677820206,-0.34098032116889954,0.31691834330558777,-9.670583724975586
1745738055.5310872,0.07076232880353928,0.06700538843870163,-0.11547626554965973,-0.3340010344982147,-0.09951198101043701,-9.761148452758789
1745738055.5337505,0.06338585913181305,0.06767559051513672,-0.11435055732727051,-0.26158928871154785,0.0848052054643631,-9.770936965942383
1745738055.538211,0.08220871537923813,0.06264330446720123,-0.11308832466602325,-0.4019180238246918,0.11551126092672348,-9.764333724975586
1745738055.542854,0.038326531648635864,0.01086646132171154,-0.0934394896030426,-0.06861208379268646,-0.058688562363386154,-10.311655044555664
1745738055.571839,0.030761484056711197,0.01435725949704647,-0.09133591502904892,-0.0846506655216217,-0.5977373719215393,-10.325265884399414
1745738055.575485,0.03374088928103447,0.004373644478619099,-0.08640997111797333,-0.044816333800554276,-0.05632602050900459,-9.428546905517578
1745738055.580037,0.030187616124749184,0.008043237961828709,-0.08420795202255249,-0.238181471824646,-0.16378191113471985,-9.650609970092773
1745738055.5822837,0.023271173238754272,0.0009132580598816276,-0.08157171308994293,0.029672762379050255,-0.1775890439748764,-10.16139030456543
1745738055.5907378,0.03338957577943802,0.005257685203105211,-0.08492076396942139,-0.17936170101165771,0.2690451741218567,-10.042211532592773
1745738055.6195157,0.029424995183944702,0.008806923404335976,-0.0829000324010849,-0.12829545140266418,-0.24110320210456848,-9.774798393249512
1745738055.6196005,0.03719393536448479,0.0013887699460610747,-0.08555217832326889,-0.27547717094421387,0.22997251152992249,-9.594744682312012
1745738055.6196907,0.026345830410718918,0.0030409556347876787,-0.083794504404068,-0.051110170781612396,-0.48049578070640564,-10.18018913269043
1745738055.619744,0.03251951187849045,-0.0017293557757511735,-0.08179254829883575,-0.062302540987730026,0.237320214509964,-9.979209899902344
1745738055.6552181,0.034244708716869354,0.008727699518203735,-0.08021281659603119,-0.1376619040966034,-0.4373842179775238,-9.770334243774414
1745738055.6579456,0.020457332953810692,-0.0030776425264775753,-0.07524029165506363,-0.02333621121942997,-0.06647112220525742,-9.591852188110352
1745738055.6590948,0.015578994527459145,-0.0007873688009567559,-0.07323776185512543,-0.18827565014362335,-0.13959228992462158,-10.05036449432373
1745738055.66158,0.02775796689093113,0.0044664801098406315,-0.07321586459875107,-0.007958481088280678,-0.23225808143615723,-10.063145637512207
1745738055.663104,0.0075501189567148685,0.004130822606384754,-0.07295691221952438,-0.27226799726486206,0.023714441806077957,-9.776679992675781
1745738055.7029192,0.01671130768954754,0.0004936889745295048,-0.07594338804483414,-0.06484312564134598,-0.3110966682434082,-9.787346839904785
1745738055.7144656,0.0014390870928764343,-0.0023285539355129004,-0.07707595825195312,-0.08002912998199463,0.16531041264533997,-9.722990036010742
1745738055.7147071,0.0032870888244360685,0.007979433052241802,-0.07453640550374985,-0.20663733780384064,-0.5478609800338745,-10.214104652404785
1745738055.7148323,-0.020464060828089714,-0.008048942312598228,-0.072947196662426,-0.021049093455076218,-0.2335212528705597,-9.853307723999023
1745738055.7436209,-0.0114273801445961,0.0027396332006901503,-0.0702192559838295,-0.1448560208082199,-0.4172455668449402,-9.788987159729004
1745738055.747787,-0.03639218956232071,-0.0016952427104115486,-0.05502726510167122,-0.10647322982549667,-0.10553684085607529,-9.83439826965332
1745738055.7555625,-0.016214612871408463,0.006569431629031897,-0.05178479105234146,-0.10602840036153793,-0.24310556054115295,-9.70268726348877
1745738055.7555988,-0.04707684367895126,0.0005042949924245477,-0.0524606816470623,-0.1720716506242752,-0.0862804725766182,-9.706277847290039
1745738055.7868972,-0.025641191750764847,0.006818711757659912,-0.05061226338148117,-0.16362206637859344,-0.059120409190654755,-9.872873306274414
1745738055.7908692,-0.0517389290034771,0.008253980427980423,-0.05278756469488144,-0.030402356758713722,0.05052751302719116,-9.770493507385254
1745738055.7937255,-0.030912350863218307,-4.644934233510867e-05,-0.05416529253125191,-0.23846523463726044,-0.11489728838205338,-9.920904159545898
1745738055.7942896,-0.046357765793800354,0.0027190346736460924,-0.052283190190792084,0.12543050944805145,-0.22853823006153107,-9.941091537475586
1745738055.8344054,-0.035722699016332626,0.005294593516737223,-0.04991825297474861,-0.10623717308044434,0.008930629119277,-9.958910942077637
1745738055.8396807,-0.04636217653751373,-0.0005890802713111043,-0.04842180758714676,-0.024463966488838196,-0.2848046123981476,-9.743504524230957
1745738055.857997,-0.04636446014046669,-0.0025753178633749485,-0.04205041378736496,0.017792845144867897,-0.07320751249790192,-9.707303047180176
1745738055.8580692,-0.022241836413741112,0.011245841160416603,-0.04179597645998001,-0.13976378738880157,0.06625701487064362,-9.932466506958008
1745738055.8581233,-0.05397558957338333,-0.0007296117255464196,-0.04381054267287254,-0.08102741092443466,0.0007766425842419267,-9.866491317749023
1745738055.8794112,-0.023154225200414658,-0.0015184285584837198,-0.0434303805232048,-0.06906678527593613,0.001645505428314209,-9.713506698608398
1745738055.8795207,-0.043578553944826126,0.008779319934546947,-0.045188210904598236,0.05296734720468521,-0.04579634219408035,-9.730525016784668
1745738055.8796237,-0.036179687827825546,0.003006087616086006,-0.045001037418842316,-0.2552536129951477,-0.018502790480852127,-9.932482719421387
1745738055.8797255,-0.044819556176662445,0.002556854160502553,-0.04093530774116516,0.022077610716223717,-0.23042193055152893,-9.752239227294922
1745738055.920685,-0.047307975590229034,0.008367751725018024,-0.008915531449019909,-0.0012683987151831388,-0.10580483824014664,-9.906071662902832
1745738055.9207647,-0.0397113636136055,0.006835038773715496,-0.006164051592350006,0.14320389926433563,-0.024901801720261574,-10.035024642944336
1745738055.9208102,-0.049979496747255325,0.007206885609775782,-0.001626714481972158,0.10017146915197372,-0.08291135728359222,-9.640419006347656
1745738055.9237368,-0.03615264594554901,0.008499668911099434,0.004217351786792278,0.16677860915660858,-0.12074670940637589,-9.535091400146484
1745738055.9271238,-0.04384978488087654,-0.001141247688792646,0.0058156223967671394,-0.03479446843266487,0.11613194644451141,-9.902471542358398
1745738055.9595993,-0.034520313143730164,0.013859097845852375,0.009362109936773777,-0.10447931289672852,-0.17659975588321686,-9.987648963928223
1745738055.9637492,-0.055172257125377655,0.00809460412710905,0.007951956242322922,0.05379357188940048,0.22526924312114716,-9.408491134643555
1745738055.9672651,-0.036890167742967606,0.008648756891489029,0.00576596986502409,-0.11041386425495148,0.17346805334091187,-9.507890701293945
1745738055.9695969,-0.06681741774082184,0.0067651839926838875,0.004111842252314091,0.007570776157081127,-0.07550869882106781,-10.0316162109375
1745738056.0083153,-0.04344676062464714,0.0051323287189006805,0.006272732280194759,-0.041042257100343704,0.054464083164930344,-10.015447616577148
1745738056.0281866,-0.05976656824350357,0.00803580041974783,0.011478009633719921,0.2501063048839569,-0.24828124046325684,-9.530942916870117
1745738056.0282676,-0.06460351496934891,-0.0018982260953634977,0.017856666818261147,0.10857190191745758,-0.1441800743341446,-9.636106491088867
1745738056.0283256,-0.04868892952799797,0.009114189073443413,0.022250982001423836,0.08915285021066666,0.16869066655635834,-10.040085792541504
1745738056.045249,-0.06376642733812332,0.0036595012061297894,0.022674620151519775,0.13283127546310425,0.06229843944311142,-9.823030471801758
1745738056.0497684,-0.03854759410023689,0.006474392022937536,0.02541739121079445,-0.049874722957611084,0.2602916657924652,-9.427972793579102
1745738056.0529754,-0.05052127316594124,0.0014989186311140656,0.02104727178812027,0.12159886211156845,0.228407621383667,-9.737220764160156
1745738056.0572364,-0.02992900274693966,0.004333340562880039,0.02032170072197914,-0.14039894938468933,0.055818378925323486,-10.105245590209961
1745738056.0604832,-0.05492442101240158,0.009819420985877514,0.022257894277572632,0.03776201605796814,-0.09210149943828583,-9.794455528259277
1745738056.0877404,-0.04739416390657425,-0.0030797007493674755,0.024846265092492104,0.08175455033779144,0.09496006369590759,-9.456116676330566
1745738056.0878003,-0.04903845116496086,0.0019505072850733995,0.031856607645750046,0.24956114590168,-0.37325170636177063,-9.816904067993164
1745738056.0900667,-0.06692863255739212,0.0023139503318816423,0.036772359162569046,0.1068829670548439,0.05238364264369011,-10.211993217468262
1745738056.0928507,-0.05606776475906372,-0.002779253525659442,0.05911083146929741,0.10657505691051483,-0.03567962720990181,-9.333992004394531
1745738056.131765,-0.05746106058359146,0.0071160211227834225,0.060943663120269775,0.17654673755168915,0.07676292955875397,-9.863751411437988
1745738056.1337206,-0.06195375323295593,0.0030405328143388033,0.05960530787706375,-0.11365685611963272,0.4249202311038971,-10.153521537780762
1745738056.1366758,-0.059249650686979294,0.0010384403867647052,0.06061442568898201,0.032460372895002365,-0.2864512801170349,-9.723977088928223
1745738056.1379428,-0.061511360108852386,0.0013099305797368288,0.06363718956708908,0.06176622956991196,0.4700750708580017,-9.347600936889648
1745738056.187042,-0.058344561606645584,0.006613648030906916,0.06526108086109161,0.16978293657302856,-0.15489301085472107,-10.046142578125
1745738056.1871338,-0.06431059539318085,-0.00510056409984827,0.07058708369731903,0.10763931274414062,0.19701722264289856,-10.148683547973633
1745738056.187201,-0.044527482241392136,0.0057855090126395226,0.07338806986808777,0.1294812560081482,0.19599655270576477,-9.665736198425293
1745738056.1872478,-0.046212442219257355,0.005568337626755238,0.07719550281763077,0.3108411431312561,-0.0410064160823822,-9.292030334472656
1745738056.1872866,-0.05569753050804138,0.002431270433589816,0.08263026922941208,-0.16205820441246033,0.37270158529281616,-9.940918922424316
1745738056.2193825,-0.04561864584684372,-0.002915589604526758,0.0819297581911087,0.13030505180358887,-0.06590975821018219,-10.234929084777832
1745738056.2214792,-0.03058856725692749,0.009149418212473392,0.085776187479496,0.04096502065658569,0.3281221389770508,-9.483955383300781
1745738056.225871,-0.05837871506810188,0.017990779131650925,0.08887877315282822,-0.07182864844799042,0.19702716171741486,-9.48838996887207
1745738056.2269797,-0.04913179203867912,-0.01406857930123806,0.08678372204303741,0.13102871179580688,0.12902767956256866,-9.87883472442627
1745738056.2590923,-0.04292094707489014,0.003817373886704445,0.09299495071172714,0.24146130681037903,-0.059362828731536865,-10.148674011230469
1745738056.2602234,-0.010083447210490704,0.012506842613220215,0.16726461052894592,-0.08756911754608154,0.5984183549880981,-9.420538902282715
1745738056.2619255,-0.018136249855160713,0.003993813879787922,0.16933050751686096,0.14494487643241882,-0.15993013978004456,-9.923591613769531
1745738056.2647748,-0.0018784754211083055,0.006258177105337381,0.17083464562892914,-0.05417542904615402,0.570224404335022,-9.962178230285645
1745738056.2653337,-0.0012440248392522335,0.02278030291199684,0.1702990084886551,0.06260569393634796,0.1861039102077484,-9.782604217529297
1745738056.3039646,2.339482307434082e-05,-0.00601020734757185,0.16923728585243225,0.23573224246501923,0.1732640564441681,-9.599227905273438
1745738056.3074884,0.017871033400297165,0.013932561501860619,0.1740410476922989,0.1367061287164688,0.4439776539802551,-9.838020324707031
1745738056.3117113,0.0025279035326093435,0.010935572907328606,0.17398759722709656,0.33427658677101135,-0.15410323441028595,-9.871477127075195
1745738056.3134818,0.009196795523166656,0.008318653330206871,0.1805499792098999,0.03720443323254585,0.24123556911945343,-9.578190803527832
1745738056.3475676,0.000996679300442338,0.01943662390112877,0.18227946758270264,0.26271361112594604,-0.020146828144788742,-9.666742324829102
1745738056.350016,0.0064135403372347355,-0.00396693404763937,0.1889013797044754,0.022846419364213943,0.1326495110988617,-9.96878719329834
1745738056.3512166,0.012646223418414593,0.023703832179307938,0.19005201756954193,0.007420176174491644,0.27557700872421265,-9.985268592834473
1745738056.353052,0.00634904857724905,0.007076834328472614,0.19119182229042053,0.28829896450042725,0.17569506168365479,-9.537503242492676
1745738056.387993,0.021760037168860435,0.0048561398871243,0.1950913369655609,-0.12043803930282593,0.32004010677337646,-9.75600814819336
1745738056.3908658,0.010115563869476318,0.013600392267107964,0.19385969638824463,0.39539164304733276,0.06925921142101288,-9.902833938598633
1745738056.3924744,0.03246726468205452,0.011258150450885296,0.19962026178836823,0.0809956043958664,0.2936308979988098,-9.74670124053955
1745738056.3948603,0.005168066825717688,0.0183773934841156,0.20017743110656738,0.15378983318805695,0.011799449101090431,-9.622457504272461
1745738056.398331,0.029671991243958473,0.003427793039008975,0.20587162673473358,0.4481944143772125,0.11528357118368149,-9.642004013061523
1745738056.4321918,0.01297034602612257,0.011747321113944054,0.2125931680202484,-0.030381184071302414,-0.04351888597011566,-10.240190505981445
1745738056.434653,0.012641111388802528,0.01563459448516369,0.2143522948026657,0.17846989631652832,0.11658469587564468,-9.78407096862793
1745738056.4369993,0.02307799458503723,0.011238010600209236,0.21725225448608398,-0.00013595222844742239,0.24980923533439636,-9.390800476074219
1745738056.43987,0.013865840621292591,0.01517387293279171,0.2162930965423584,0.14901170134544373,0.4096047282218933,-9.684897422790527
1745738056.4768689,0.011738884262740612,0.012530217878520489,0.23040953278541565,0.1453256756067276,-0.013863119296729565,-10.200668334960938
1745738056.4805648,0.01909055933356285,0.021516412496566772,0.23393359780311584,0.07502694427967072,0.2092505693435669,-9.885751724243164
1745738056.4842675,0.006559692323207855,0.018161438405513763,0.24209602177143097,0.2479633092880249,-0.5321292877197266,-9.501093864440918
1745738056.4884903,-0.0029807505197823048,0.021710464730858803,0.2527540624141693,-0.11673571914434433,0.19790945947170258,-9.709134101867676
1745738056.5179174,-0.007805381901562214,0.015458161942660809,0.25404855608940125,0.2987727224826813,0.029147466644644737,-9.970884323120117
1745738056.522739,0.015732867643237114,0.024035733193159103,0.2545357644557953,0.23001475632190704,0.4990933835506439,-9.966870307922363
1745738056.5268059,0.01728849671781063,0.026589661836624146,0.24981233477592468,0.31666404008865356,0.49470582604408264,-9.4725923538208
1745738056.529726,0.01648893393576145,0.008231171406805515,0.24851897358894348,0.2871069312095642,-0.01819685474038124,-9.680225372314453
1745738056.5336285,0.02147495187819004,0.023353178054094315,0.25436338782310486,0.010814212262630463,0.303253710269928,-10.039299011230469
1745738056.561958,0.012332680635154247,0.023166876286268234,0.261954128742218,0.2757377028465271,-0.6268310546875,-9.915491104125977
1745738056.563182,0.005491989199072123,0.022323671728372574,0.2723591923713684,-0.2269323170185089,0.24362602829933167,-9.544782638549805
1745738056.5665271,-0.003421683330088854,0.019086847081780434,0.273039847612381,0.3220077157020569,-0.11087691783905029,-9.696698188781738
1745738056.5677292,0.016058243811130524,0.02400144748389721,0.2748674750328064,0.1464749574661255,0.6326357126235962,-9.944625854492188
1745738056.6048205,0.005629771389067173,0.032569535076618195,0.2678470015525818,0.3309408724308014,0.18629524111747742,-9.877867698669434
1745738056.608156,0.01653621904551983,0.013609248213469982,0.2682895064353943,0.42867857217788696,0.16936850547790527,-9.52634048461914
1745738056.6122715,-0.03213900700211525,0.04919389635324478,0.32865390181541443,0.8702372312545776,0.15270686149597168,-9.629060745239258
1745738056.6152046,-0.02346608228981495,0.038908615708351135,0.32560041546821594,0.953158974647522,0.24688713252544403,-9.749567985534668
1745738056.6184099,-0.04428432136774063,0.039753057062625885,0.32419633865356445,0.7893837690353394,-0.04879167675971985,-10.077467918395996
1745738056.6467795,-0.017384324222803116,0.048505380749702454,0.3208155333995819,0.6350160837173462,0.48160308599472046,-9.83530044555664
1745738056.649621,-0.029201935976743698,0.04662695899605751,0.31908735632896423,0.7396343946456909,-0.19873583316802979,-9.680878639221191
1745738056.650711,-0.04309208318591118,0.051772601902484894,0.3205551505088806,0.5854398608207703,0.18345752358436584,-9.662214279174805
1745738056.6548328,-0.021478017792105675,0.045899130403995514,0.3227788805961609,0.9721153378486633,-0.11569905281066895,-9.891891479492188
1745738056.6894948,-0.035089924931526184,0.050700992345809937,0.325942724943161,0.8123407363891602,0.244153693318367,-9.933900833129883
1745738056.6917696,-0.012637510895729065,0.06340428441762924,0.3241611123085022,0.8362962603569031,0.21643631160259247,-9.671878814697266
1745738056.6943388,-0.013569983653724194,0.04967811331152916,0.3214702010154724,1.156612753868103,0.24190838634967804,-9.560772895812988
1745738056.6964598,-0.008940422907471657,0.0569397397339344,0.31567513942718506,0.7138322591781616,0.46218281984329224,-9.972893714904785
1745738056.7327445,0.002627377165481448,0.060530126094818115,0.31195831298828125,0.9035150408744812,0.04904228076338768,-10.014730453491211
1745738056.7327838,0.005082700867205858,0.05948575586080551,0.3128768801689148,0.6345992088317871,0.42808014154434204,-9.549843788146973
1745738056.7338796,-0.0018794226925820112,0.06354660540819168,0.31247204542160034,0.7696104049682617,-0.18276603519916534,-9.566839218139648
1745738056.7350876,0.006790071725845337,0.048635680228471756,0.31377601623535156,0.8530963659286499,0.20589403808116913,-9.868046760559082
1745738056.7371197,0.0037790858186781406,0.0708317905664444,0.3147701621055603,0.7571862936019897,0.19465702772140503,-10.11455249786377
1745738056.7770684,0.008623390458524227,0.057135216891765594,0.31209659576416016,1.0435512065887451,0.11538944393396378,-9.66154956817627
1745738056.780525,0.024498961865901947,0.05672277882695198,0.3136792480945587,0.757350742816925,0.21124689280986786,-9.563468933105469
1745738056.7846804,0.00649361964315176,0.057555634528398514,0.31365859508514404,0.9609084129333496,-0.10120872408151627,-9.993823051452637
1745738056.7879958,0.024337830021977425,0.055697958916425705,0.3154259920120239,0.6313581466674805,0.20576421916484833,-9.975646018981934
1745738056.8196235,0.006651576608419418,0.07172278314828873,0.3144245147705078,0.7394746541976929,-0.2257368266582489,-9.558343887329102
1745738056.8227844,0.008985169231891632,0.05820352956652641,0.31393858790397644,0.8599932789802551,0.3125649094581604,-9.270883560180664
1745738056.8278482,0.022444549947977066,0.06294377893209457,0.3089142441749573,0.871230959892273,0.14901097118854523,-10.240249633789062
1745738056.8309755,0.034650493413209915,0.05965811759233475,0.30619484186172485,0.6994908452033997,0.46043676137924194,-9.581620216369629
1745738056.8622,0.04513716697692871,0.04853671044111252,0.306490421295166,0.8958448171615601,0.0871783122420311,-9.3028564453125
1745738056.863608,0.04799197241663933,0.046744454652071,0.3071032166481018,0.8844069242477417,0.15527233481407166,-9.909431457519531
1745738056.867049,0.05711080878973007,0.05702107027173042,0.3104236423969269,0.7190473675727844,0.003997986204922199,-10.241393089294434
1745738056.8704407,0.04422595724463463,0.055114179849624634,0.3112110495567322,0.9262332916259766,-0.06141422316431999,-9.413156509399414
1745738056.8748577,0.04825519770383835,0.04713740199804306,0.3107798099517822,0.8518840074539185,0.16655704379081726,-9.201624870300293
1745738056.9101875,0.037334028631448746,0.04745722562074661,0.3086504340171814,0.9759383201599121,-0.09534512460231781,-9.991670608520508
1745738056.9107811,0.039563409984111786,0.04888002201914787,0.30733516812324524,0.8779560327529907,0.27584367990493774,-10.204963684082031
1745738056.9128468,0.03956582397222519,0.05055706575512886,0.30226263403892517,0.9806316494941711,-0.10267875343561172,-9.543906211853027
1745738056.917231,0.0334727019071579,0.03809371218085289,0.3041969835758209,0.8580794334411621,0.29022088646888733,-9.32316780090332
1745738056.9466536,0.03657969832420349,0.044218115508556366,0.30436423420906067,0.8602495193481445,0.006392553448677063,-9.894343376159668
1745738056.9509904,0.04480482265353203,0.04569359868764877,0.3078053295612335,0.9705492258071899,0.16073019802570343,-9.971219062805176
1745738056.9556112,0.0683247372508049,0.04078472778201103,0.30880972743034363,0.9202712774276733,0.36661046743392944,-9.575098991394043
1745738056.961667,0.09498400241136551,-0.024698469787836075,0.33064016699790955,0.9385538101196289,-0.20570245385169983,-9.861539840698242
1745738056.9908633,0.10089942067861557,-0.03026052750647068,0.33117952942848206,0.7921584844589233,0.15858536958694458,-9.759791374206543
1745738056.9936016,0.12046241760253906,-0.027958765625953674,0.33289188146591187,0.8903800249099731,-0.2069036066532135,-9.739797592163086
1745738056.9950774,0.11158914864063263,-0.03641504794359207,0.3325558602809906,1.0002672672271729,-0.012549882754683495,-9.812129020690918
1745738057.003943,0.13655376434326172,-0.03292465955018997,0.3355693221092224,0.7763317227363586,-0.2722699046134949,-10.00880241394043
1745738057.004017,0.12135578691959381,-0.036952052265405655,0.3381626307964325,0.8953351974487305,-0.21333889663219452,-9.751357078552246
1745738057.0349236,0.13151815533638,-0.03846532478928566,0.33518728613853455,0.7047767639160156,-0.06700979173183441,-9.596017837524414
1745738057.038014,0.12346555292606354,-0.04007631167769432,0.3354349136352539,0.9256173968315125,-0.42612165212631226,-9.797057151794434
1745738057.0406458,0.12499956041574478,-0.04134625941514969,0.3337363600730896,0.7701622843742371,0.03137689456343651,-9.912534713745117
1745738057.0454774,0.11758644878864288,-0.043245695531368256,0.3318595290184021,0.8047599792480469,-0.6886205077171326,-9.928071975708008
1745738057.0809648,0.11006078869104385,-0.0470946840941906,0.3369051516056061,0.8406100273132324,-0.2366223782300949,-9.521781921386719
1745738057.0832958,0.10279711335897446,-0.041076190769672394,0.33647722005844116,0.7378710508346558,-0.6111711859703064,-9.827486038208008
1745738057.085995,0.09050773829221725,-0.050159670412540436,0.3408583998680115,0.797533392906189,-0.35164737701416016,-9.897236824035645
1745738057.0883915,0.11023195087909698,-0.045217134058475494,0.3379475176334381,0.734808623790741,-0.22074751555919647,-9.847663879394531
1745738057.0916934,0.08885957300662994,-0.04751250520348549,0.33917707204818726,0.8004368543624878,-0.3746575713157654,-9.655386924743652
1745738057.1224556,0.10466527938842773,-0.05286978930234909,0.33744654059410095,0.6796807050704956,-0.10222718864679337,-9.810477256774902
1745738057.1260123,0.09881225228309631,-0.05407043546438217,0.3345550000667572,0.759138822555542,-0.48909997940063477,-9.987829208374023
1745738057.1295736,0.09247075021266937,-0.05409805849194527,0.3368794918060303,0.711948812007904,-0.23275360465049744,-9.80900764465332
1745738057.1318736,0.096597820520401,-0.04939456284046173,0.3362034261226654,0.7032580375671387,-0.45057258009910583,-9.694229125976562
1745738057.164679,0.07584691047668457,-0.061112988740205765,0.3368782103061676,0.846835732460022,-0.4477948546409607,-9.7322359085083
1745738057.1669214,0.09292537719011307,-0.0542186014354229,0.3398384749889374,0.7143931984901428,-0.23827524483203888,-9.924971580505371
1745738057.1710207,0.06181064993143082,-0.059999652206897736,0.33567801117897034,0.8641667366027832,-0.4914434552192688,-9.924041748046875
1745738057.1747665,0.093931645154953,-0.0598846971988678,0.33782631158828735,0.6479460597038269,-0.04833625629544258,-9.682626724243164
1745738057.2055378,0.09640680253505707,-0.0643913596868515,0.33744457364082336,0.5981286764144897,-0.27581796050071716,-9.589902877807617
1745738057.207834,0.11234203726053238,-0.060029543936252594,0.3379296362400055,0.5618354082107544,-0.22562599182128906,-9.606725692749023
1745738057.211227,0.08932123333215714,-0.06176626682281494,0.3346901834011078,0.7934911251068115,-0.5291594862937927,-9.93199634552002
1745738057.2146766,0.1219877228140831,-0.06058260798454285,0.3374139368534088,0.6285170316696167,-0.24892902374267578,-9.936883926391602
1745738057.2180495,0.08275924623012543,-0.05809509754180908,0.3361452519893646,0.769232451915741,-0.7810220122337341,-9.791542053222656
1745738057.251737,0.09735170006752014,-0.06155775859951973,0.33847683668136597,0.5995413661003113,-0.36207833886146545,-9.637861251831055
1745738057.254124,0.07365570962429047,-0.05747756361961365,0.3374798893928528,0.6353534460067749,-0.6291728019714355,-9.782536506652832
1745738057.257785,0.07373323291540146,-0.06246494501829147,0.3360871374607086,0.6675969362258911,-0.3542216122150421,-9.814570426940918
1745738057.2615705,0.0824013352394104,-0.05265851691365242,0.336945116519928,0.6106001734733582,-0.25160330533981323,-9.742172241210938
1745738057.2963383,0.06965163350105286,-0.06389392912387848,0.33204519748687744,0.6238166093826294,-0.3761782944202423,-9.821803092956543
1745738057.2986107,0.09495768696069717,-0.06048646569252014,0.33229437470436096,0.5863378047943115,-0.18791846930980682,-9.68981647491455
1745738057.3007085,0.07858206331729889,-0.05412527918815613,0.3324809968471527,0.7081858515739441,-0.5161193013191223,-9.956365585327148
1745738057.3057547,0.09872026741504669,-0.06377552449703217,0.3325381875038147,0.5024362802505493,-0.23303766548633575,-9.83703327178955
1745738057.3343763,0.039320893585681915,-0.044132813811302185,0.32006514072418213,0.39638596773147583,-0.3492429852485657,-9.702682495117188
1745738057.337361,0.030818859115242958,-0.03699036315083504,0.31914395093917847,0.3705083727836609,-0.7216501235961914,-9.745223999023438
1745738057.3386273,0.028752395883202553,-0.039329610764980316,0.31808221340179443,0.44145187735557556,-0.5655380487442017,-9.544946670532227
1745738057.339992,0.037018291652202606,-0.03448189049959183,0.32224684953689575,0.39879369735717773,-0.6139239072799683,-9.726262092590332
1745738057.376621,0.027735481038689613,-0.0355224683880806,0.32279008626937866,0.5000913739204407,-0.6729157567024231,-9.843871116638184
1745738057.3800037,0.039538316428661346,-0.040763892233371735,0.3242541253566742,0.3965834081172943,-0.4608325958251953,-9.802026748657227
1745738057.381107,0.020405743271112442,-0.03413676470518112,0.3249831795692444,0.45103707909584045,-0.8408367037773132,-9.71699047088623
1745738057.3842447,0.021882103756070137,-0.03849002718925476,0.3253893256187439,0.31641215085983276,-0.49558916687965393,-9.6450834274292
1745738057.3861768,0.019000690430402756,-0.03668040782213211,0.32364392280578613,0.3516433537006378,-0.7673695683479309,-9.754636764526367
1745738057.424113,-0.0026229661889374256,-0.0422675684094429,0.3230816423892975,0.42742982506752014,-0.5362375974655151,-9.755353927612305
1745738057.4281306,0.019752727821469307,-0.03220677748322487,0.32310301065444946,0.3925571143627167,-0.6664667129516602,-9.684980392456055
1745738057.4323952,-0.015853967517614365,-0.0386674627661705,0.32411643862724304,0.3917946219444275,-0.6084679365158081,-9.694581985473633
1745738057.4380815,0.007925590500235558,-0.04035418853163719,0.32299336791038513,0.3019973933696747,-0.6793923377990723,-9.76231575012207
1745738057.4673197,8.782725490164012e-05,-0.030359694734215736,0.3272409737110138,0.45452412962913513,-0.6139068603515625,-9.670698165893555
1745738057.4711645,0.0039213174022734165,-0.0322214737534523,0.32937750220298767,0.15415145456790924,-0.41643276810646057,-9.623723983764648
1745738057.476169,0.017393724992871284,-0.032699309289455414,0.32860830426216125,0.3969299793243408,-0.6158685684204102,-9.583192825317383
1745738057.4794548,0.008918993175029755,-0.030349139124155045,0.3286803066730499,0.3372725546360016,-0.39621949195861816,-9.683526992797852
1745738057.5090919,0.020448971539735794,-0.02435746230185032,0.32939642667770386,0.1934007704257965,-0.7227541208267212,-9.82225513458252
1745738057.5109668,-0.001780818565748632,-0.03002043068408966,0.3280234932899475,0.3863302171230316,-0.6925625801086426,-9.645383834838867
1745738057.5132952,0.015115837566554546,-0.01992552913725376,0.32877546548843384,0.16668649017810822,-0.6539894342422485,-9.588719367980957
1745738057.5148077,-0.013842863962054253,-0.02468963712453842,0.3261047303676605,0.4870716631412506,-0.769956111907959,-9.66454029083252
1745738057.516143,-0.01004926860332489,-0.023963529616594315,0.32796400785446167,0.33053654432296753,-0.6739462614059448,-9.774662017822266
1745738057.5521584,-0.02291574701666832,-0.0230382289737463,0.32722359895706177,0.4149830937385559,-0.5310827493667603,-9.768003463745117
1745738057.5559554,0.01069566234946251,-0.016977276653051376,0.330317884683609,0.19172878563404083,-0.46016693115234375,-9.753043174743652
1745738057.5625963,-0.01256028562784195,-0.01249966211616993,0.3280203342437744,0.2991531491279602,-0.6216761469841003,-9.657031059265137
1745738057.5626767,0.001759490231052041,-0.02279624529182911,0.3293616771697998,0.3131137490272522,-0.6569646000862122,-9.713225364685059
1745738057.594858,-0.004458432085812092,-0.008962547406554222,0.3317020535469055,0.3444378972053528,-0.6389666199684143,-9.712284088134766
1745738057.6056085,-0.013909533619880676,-0.01054022554308176,0.33229994773864746,0.3481178283691406,-0.7388299703598022,-9.755186080932617
1745738057.610258,-0.0003008302301168442,-0.010378921404480934,0.3321376442909241,0.12866422533988953,-0.5865879654884338,-9.601751327514648
1745738057.6130655,-0.03465252369642258,-0.008680686354637146,0.33000341057777405,0.3580857217311859,-0.8150097727775574,-9.670654296875
1745738057.6363156,-0.01432068832218647,0.0015707628335803747,0.32951343059539795,0.1629284918308258,-0.5173198580741882,-9.685640335083008
1745738057.6383934,-0.03654375672340393,-0.0008739203331060708,0.32816487550735474,0.23665261268615723,-0.7850983738899231,-9.700506210327148
1745738057.641446,-0.02526230178773403,-0.0010067644761875272,0.3276994824409485,0.2586143910884857,-0.46873903274536133,-9.618337631225586
1745738057.6425111,-0.028429388999938965,0.005934870336204767,0.326221227645874,0.29721829295158386,-0.8177579641342163,-9.868704795837402
1745738057.6449556,-0.04065296798944473,-0.0007707708864472806,0.3290281891822815,0.27058976888656616,-0.6414033770561218,-9.75192928314209
1745738057.6807272,-0.030019868165254593,0.012812787666916847,0.3292604684829712,0.28698164224624634,-0.6777724027633667,-9.62824821472168
1745738057.6837099,-0.06133579462766647,0.02848522737622261,0.33847537636756897,0.3446551561355591,-0.3522416949272156,-9.816570281982422
1745738057.6869512,-0.049819111824035645,0.035660237073898315,0.3386310338973999,0.1753721684217453,-0.3947964310646057,-9.828339576721191
1745738057.6888497,-0.04931686818599701,0.034025561064481735,0.3400952219963074,0.374884694814682,-0.5530346035957336,-9.70460319519043
1745738057.728838,-0.03187570720911026,0.029704565182328224,0.34175997972488403,0.2088818997144699,-0.2639642059803009,-9.693729400634766
1745738057.728917,-0.0442020520567894,0.03339403495192528,0.3427308201789856,0.34780827164649963,-0.7475615739822388,-9.944108963012695
1745738057.729211,-0.02472635917365551,0.02965587005019188,0.3444438874721527,0.32594794034957886,-0.2863060534000397,-9.855430603027344
1745738057.7319071,-0.031480010598897934,0.03238169103860855,0.3463936448097229,0.2643643319606781,-0.6987835168838501,-9.774155616760254
1745738057.7355645,-0.05061822384595871,0.02733330987393856,0.3444436490535736,0.3892975449562073,-0.4696105420589447,-9.640106201171875
1745738057.7684772,-0.03298371285200119,0.03310626000165939,0.3442299962043762,0.28540998697280884,-0.6947067975997925,-9.904579162597656
1745738057.771011,-0.05988270044326782,0.028283586725592613,0.3443228602409363,0.3594791889190674,-0.6867584586143494,-9.914804458618164
1745738057.772459,-0.05497989058494568,0.02833576500415802,0.34691694378852844,0.17383190989494324,-0.6698170900344849,-9.772104263305664
1745738057.7749188,-0.07188340276479721,0.03237979859113693,0.3485947251319885,0.30277132987976074,-0.7805685997009277,-9.665865898132324
1745738057.8094347,-0.07208701223134995,0.02770325168967247,0.35050439834594727,0.12330107390880585,-0.4864874482154846,-9.707441329956055
1745738057.8212807,-0.07292690873146057,0.03305971622467041,0.351786732673645,0.34246280789375305,-0.6552623510360718,-9.858877182006836
1745738057.8213327,-0.07682541757822037,0.02712279185652733,0.3523081839084625,0.3326638340950012,-0.40616726875305176,-9.906946182250977
