timestamp,angular_vel_x,angular_vel_y,angular_vel_z,linear_acc_x,linear_acc_y,linear_acc_z
1745738072.67321,-0.01977202668786049,-0.009705081582069397,-0.36766180396080017,0.5511420965194702,-1.0976979732513428,-9.723344802856445
1745738072.6822844,-0.009273793548345566,-0.01691393367946148,-0.36826127767562866,0.6555361747741699,-0.7503699064254761,-9.54429817199707
1745738072.6842017,-0.019500765949487686,-0.01593836024403572,-0.3698323667049408,0.5795148611068726,-0.7753465175628662,-9.7940092086792
1745738072.6894748,-0.012953761033713818,-0.012464659288525581,-0.36846110224723816,0.731286883354187,-0.9828751683235168,-9.818028450012207
1745738072.7026584,-0.002829876495525241,-0.01141008548438549,-0.36719271540641785,0.4547120928764343,-0.6188744306564331,-9.585306167602539
1745738072.7048123,-0.014406658709049225,-0.013108866289258003,-0.36759045720100403,0.7077115178108215,-1.1144264936447144,-9.670450210571289
1745738072.7089448,-0.0005547133041545749,-0.0144205866381526,-0.36250579357147217,0.578766942024231,-0.6731342673301697,-9.73753833770752
1745738072.7099948,-0.003913781605660915,-0.011724548414349556,-0.36226019263267517,0.5983308553695679,-0.9745227098464966,-9.879620552062988
1745738072.7505608,-0.011080439202487469,-0.01805390603840351,-0.3628464341163635,0.7130516171455383,-0.8291479349136353,-9.676692962646484
1745738072.7506194,-0.006106322165578604,-0.014126257970929146,-0.36316627264022827,0.5560604333877563,-0.8721135258674622,-9.64928913116455
1745738072.7517142,-0.01200683694332838,-0.016562489792704582,-0.3629456162452698,0.7426982522010803,-0.9699171185493469,-9.662805557250977
1745738072.751764,-0.017894001677632332,-0.011921554803848267,-0.3587920069694519,0.5380886197090149,-0.731863260269165,-9.740766525268555
1745738072.7891154,-0.01968340203166008,-0.011800287291407585,-0.3619159460067749,0.6946717500686646,-1.1584872007369995,-9.78169059753418
1745738072.7974312,-0.015875572338700294,-0.01840306632220745,-0.3593520522117615,0.5713836550712585,-0.5912868976593018,-9.653297424316406
1745738072.80041,-0.02286534570157528,-0.015468177385628223,-0.35812488198280334,0.5940440893173218,-1.0656232833862305,-9.829103469848633
1745738072.804283,-0.012731941416859627,-0.013832713477313519,-0.3585028052330017,0.6681743264198303,-0.6948971152305603,-9.743453025817871
1745738072.8176804,-0.015698745846748352,-0.017814552411437035,-0.3566845655441284,0.5629854202270508,-0.8720194697380066,-9.697233200073242
1745738072.8338327,-0.018010463565587997,-0.016285717487335205,-0.35665345191955566,0.738371729850769,-0.9238229990005493,-9.671055793762207
1745738072.8363073,-0.018359551206231117,-0.013988399878144264,-0.35037821531295776,0.6837732791900635,-1.0326507091522217,-9.877707481384277
1745738072.8422158,-0.02272007055580616,-0.021680479869246483,-0.3508687913417816,0.5968738794326782,-0.623888373374939,-9.68356990814209
1745738072.8463886,-0.013037070631980896,-0.019471941515803337,-0.3514910638332367,0.5978185534477234,-1.0085439682006836,-9.741549491882324
1745738072.8742373,-0.017705220729112625,-0.019904369488358498,-0.3505343794822693,0.6662976145744324,-0.5770927667617798,-9.624499320983887
1745738072.8765094,-0.019914215430617332,-0.0170762799680233,-0.3523835837841034,0.5958830714225769,-0.8996162414550781,-9.748320579528809
1745738072.8784947,-0.010953121818602085,-0.019221106544137,-0.3510424792766571,0.7152186632156372,-0.8179680109024048,-9.690089225769043
1745738072.8819077,-0.01577063649892807,-0.02111027017235756,-0.3481687307357788,0.49499353766441345,-0.7201632857322693,-9.807962417602539
1745738072.916475,-0.010959958657622337,-0.015925832092761993,-0.34737396240234375,0.6550225019454956,-1.0292139053344727,-9.8552885055542
1745738072.9271731,-0.00937072467058897,-0.02075018174946308,-0.34479695558547974,0.5225404500961304,-0.6443797945976257,-9.623985290527344
1745738072.929514,-0.00796707533299923,-0.019155096262693405,-0.3449609875679016,0.6713387370109558,-0.9273266792297363,-9.66323471069336
1745738072.9351566,-0.015658635646104813,-0.02374160662293434,-0.3462927043437958,0.6730515956878662,-0.7440813779830933,-9.805997848510742
1745738072.9398866,-0.0014063960406929255,-0.017704147845506668,-0.3431490659713745,0.507689356803894,-0.8378514051437378,-9.847651481628418
1745738072.9606001,-0.020844481885433197,-0.019720938056707382,-0.34522953629493713,0.7587131857872009,-0.9027414321899414,-9.603930473327637
1745738072.961767,-0.025356853380799294,-0.02980928122997284,-0.32068467140197754,0.45149722695350647,-0.7630811333656311,-9.583416938781738
1745738072.96416,-0.03625950962305069,-0.02712450921535492,-0.3203378915786743,0.5930525064468384,-0.7176538705825806,-9.607504844665527
1745738072.966874,-0.03280431777238846,-0.03294062614440918,-0.31895193457603455,0.5770007967948914,-0.6336762309074402,-9.896744728088379
1745738073.0185666,-0.020198343321681023,-0.023167844861745834,-0.3191611170768738,0.5103039741516113,-0.7035771608352661,-9.895429611206055
1745738073.0186262,-0.028244495391845703,-0.0329778753221035,-0.3212188482284546,0.5332693457603455,-0.6431354880332947,-9.702438354492188
1745738073.0186796,-0.01963186264038086,-0.02889062836766243,-0.3194834589958191,0.4419972896575928,-0.7841939330101013,-9.674137115478516
1745738073.0187397,-0.040415819734334946,-0.03089562989771366,-0.3185770511627197,0.6372357606887817,-0.7736765742301941,-9.774432182312012
1745738073.0464265,-0.018968915566802025,-0.030400538817048073,-0.3198915123939514,0.48802080750465393,-0.7190454602241516,-9.860261917114258
1745738073.0490277,-0.0402463898062706,-0.02525591291487217,-0.31873488426208496,0.6316297650337219,-0.7649242281913757,-9.642403602600098
1745738073.0509965,-0.036638371646404266,-0.030982065945863724,-0.31723305583000183,0.5905329585075378,-0.7192220687866211,-9.718146324157715
1745738073.052461,-0.026033535599708557,-0.026516344398260117,-0.3183734714984894,0.5248333215713501,-0.6789131164550781,-9.873296737670898
1745738073.0541947,-0.04451363533735275,-0.03361416980624199,-0.31872236728668213,0.5649647116661072,-0.6758440136909485,-9.855292320251465
1745738073.0900874,-0.01193961687386036,-0.021586988121271133,-0.3183078467845917,0.42912355065345764,-0.6280050277709961,-9.68775749206543
1745738073.0934489,-0.03894558921456337,-0.03165782615542412,-0.3177490234375,0.5737186670303345,-0.6811265349388123,-9.551352500915527
1745738073.0984414,-0.014883691444993019,-0.02932567335665226,-0.3174353837966919,0.44117146730422974,-0.5432611703872681,-9.758983612060547
1745738073.1045787,-0.029784629121422768,-0.023970207199454308,-0.31819891929626465,0.6207793951034546,-0.8135408163070679,-9.925283432006836
1745738073.1302986,-0.018642187118530273,-0.024880459532141685,-0.31817370653152466,0.4965275824069977,-0.5628885626792908,-9.759572982788086
1745738073.1326065,-0.023208145052194595,-0.02259921468794346,-0.31744441390037537,0.5828391313552856,-0.7601674795150757,-9.612005233764648
1745738073.1349134,-0.034666649997234344,-0.030532870441675186,-0.3168252110481262,0.555444598197937,-0.7833932042121887,-9.790985107421875
1745738073.1391346,-0.011012399569153786,-0.02089902013540268,-0.3165712058544159,0.4064856171607971,-0.6054626703262329,-9.799020767211914
1745738073.1424391,-0.04461412876844406,-0.025641998276114464,-0.31821247935295105,0.6851786375045776,-0.7211951017379761,-9.675424575805664
1745738073.1749191,-0.008736146613955498,-0.02068648487329483,-0.3147660791873932,0.4352458417415619,-0.5785356760025024,-9.637539863586426
1745738073.177706,-0.02720102109014988,-0.02199370227754116,-0.31790855526924133,0.5618110299110413,-0.5748010873794556,-9.750072479248047
1745738073.1812983,-0.008421918377280235,-0.023569270968437195,-0.3168819844722748,0.49520444869995117,-0.5748060345649719,-9.894386291503906
1745738073.1851392,-0.00533666368573904,-0.015749922022223473,-0.3174668550491333,0.49852728843688965,-0.692314624786377,-9.753724098205566
1745738073.2201118,-0.011244239285588264,-0.02876906469464302,-0.3169158101081848,0.5668513178825378,-0.6163991689682007,-9.604923248291016
1745738073.2233484,-0.003639864968135953,-0.019353989511728287,-0.31478768587112427,0.4702659249305725,-0.7709561586380005,-9.784387588500977
1745738073.2273512,-0.019489530473947525,-0.02132495865225792,-0.3148028552532196,0.6451263427734375,-0.7522560358047485,-9.796960830688477
1745738073.229242,-0.0013944648671895266,-0.019878115504980087,-0.3155314326286316,0.49138307571411133,-0.6157398819923401,-9.626252174377441
1745738073.2320464,-0.029570888727903366,-0.022060906514525414,-0.3150087296962738,0.632911741733551,-0.7598403096199036,-9.71711254119873
1745738073.2618327,-0.006893014069646597,-0.020561039447784424,-0.31665173172950745,0.4938774108886719,-0.6116989850997925,-9.836969375610352
1745738073.2640302,-0.014823468402028084,-0.017367420718073845,-0.31639689207077026,0.4633254110813141,-0.6546536087989807,-9.749666213989258
1745738073.2843156,-0.0230319332331419,-0.023625271394848824,-0.31781917810440063,0.5225666165351868,-0.6683602333068848,-9.65086841583252
1745738073.284368,0.0004498325870372355,-0.015163980424404144,-0.315226674079895,0.44166356325149536,-0.560261070728302,-9.723562240600586
1745738073.309016,-0.024083178490400314,-0.022216856479644775,-0.3159548342227936,0.6642448902130127,-0.728646993637085,-9.755845069885254
1745738073.3095627,0.0036792736500501633,-0.017606409266591072,-0.31596383452415466,0.5012795329093933,-0.5805202722549438,-9.750776290893555
1745738073.3126574,-0.00784364528954029,-0.01572003960609436,-0.3200598359107971,0.40244340896606445,-0.4929139018058777,-9.805132865905762
1745738073.3185127,-0.01930379867553711,-0.017170244827866554,-0.31957167387008667,0.5469692945480347,-0.8719965815544128,-9.71947193145752
1745738073.347619,0.0025853628758341074,-0.02041425183415413,-0.3235694468021393,0.3979831039905548,-0.35641902685165405,-9.527970314025879
1745738073.3521657,-0.02524469792842865,-0.019247815012931824,-0.3236289918422699,0.619131863117218,-0.8297756314277649,-9.807591438293457
1745738073.3549585,0.000338211830239743,-0.017142940312623978,-0.32096296548843384,0.5465537309646606,-0.5597833395004272,-9.813943862915039
1745738073.3555224,-0.007384848780930042,-0.015622155740857124,-0.32408326864242554,0.4288255572319031,-0.6558091044425964,-9.764244079589844
1745738073.3974783,-0.01375753153115511,-0.02181391417980194,-0.3202587068080902,0.6178829073905945,-0.8082298040390015,-9.708536148071289
1745738073.3976963,-0.005093042738735676,-0.01819121465086937,-0.32007330656051636,0.4091320037841797,-0.5301817655563354,-9.749101638793945
1745738073.3979857,-0.02078552171587944,-0.021083002910017967,-0.32210129499435425,0.6052894592285156,-0.8149347305297852,-9.829045295715332
1745738073.4013762,-0.010814548470079899,-0.02154429629445076,-0.32227450609207153,0.42864304780960083,-0.4814274311065674,-9.714932441711426
1745738073.4067745,-0.021304473280906677,-0.01892198994755745,-0.3241032063961029,0.5843023061752319,-0.8432368040084839,-9.662127494812012
1745738073.4346511,-0.013476287014782429,-0.025681566447019577,-0.3236202895641327,0.5242898464202881,-0.4224386215209961,-9.68636703491211
1745738073.4368098,-0.025803443044424057,-0.015896398574113846,-0.32298099994659424,0.4546334147453308,-0.6960874795913696,-9.940762519836426
1745738073.4403894,-0.011847482062876225,-0.020322076976299286,-0.3256900906562805,0.6077033281326294,-0.6549292802810669,-9.724222183227539
1745738073.4414492,-0.009811812080442905,-0.023042920976877213,-0.32324856519699097,0.3595975339412689,-0.4247968792915344,-9.634054183959961
1745738073.4785633,-0.019236648455262184,-0.02232867106795311,-0.32231125235557556,0.607652485370636,-0.8311570286750793,-9.772195816040039
1745738073.4797614,0.0036698919720947742,-0.01740214414894581,-0.32697492837905884,0.412578821182251,-0.2932271361351013,-9.808369636535645
1745738073.482247,-0.014022359624505043,-0.017687663435935974,-0.32312244176864624,0.6085801124572754,-0.8579882383346558,-9.780508041381836
1745738073.4840302,-0.003386791329830885,-0.02409159019589424,-0.32370635867118835,0.5239030122756958,-0.5110448002815247,-9.629094123840332
1745738073.5226011,-0.007339012809097767,-0.019519025459885597,-0.32358333468437195,0.4365324079990387,-0.7440327405929565,-9.898439407348633
1745738073.526282,-0.014945685863494873,-0.02212364785373211,-0.32364320755004883,0.5498368144035339,-0.6499295830726624,-9.812963485717773
1745738073.5263524,-0.013152805157005787,-0.017445705831050873,-0.32513538002967834,0.4090979993343353,-0.5661388635635376,-9.646352767944336
1745738073.5354598,-0.01946962997317314,-0.025019541382789612,-0.32367587089538574,0.6264446973800659,-0.849244236946106,-9.686965942382812
1745738073.562068,0.0017914226045832038,-0.01871732994914055,-0.3249967098236084,0.46963900327682495,-0.3174189627170563,-9.559328079223633
1745738073.5633883,-0.015743955969810486,-0.020433882251381874,-0.3238132894039154,0.4728938043117523,-0.6401413083076477,-9.812390327453613
1745738073.567488,0.0018217820907011628,-0.01957281492650509,-0.3252682685852051,0.5790767669677734,-0.5474982261657715,-9.917112350463867
1745738073.5675805,0.0014766125241294503,-0.01615559682250023,-0.32490837574005127,0.3514789938926697,-0.49199455976486206,-9.77820873260498
1745738073.5714693,-0.0013301402796059847,-0.01906108297407627,-0.32516583800315857,0.6235398650169373,-0.7452801465988159,-9.555757522583008
1745738073.6059768,-0.00011569857451831922,-0.023226022720336914,-0.3255859911441803,0.46468615531921387,-0.46906715631484985,-9.738243103027344
1745738073.609577,-0.0049294037744402885,-0.015779908746480942,-0.3247610330581665,0.5673067569732666,-0.858812153339386,-10.032630920410156
1745738073.6134455,-0.00529752392321825,-0.01925846002995968,-0.3225127160549164,0.519037127494812,-0.46435022354125977,-9.760356903076172
1745738073.6172318,-0.016089556738734245,-0.016016405075788498,-0.32515794038772583,0.40885019302368164,-0.8535016775131226,-9.694706916809082
1745738073.6491513,-0.004559549503028393,-0.02192099392414093,-0.32568010687828064,0.5389338731765747,-0.512858510017395,-9.634317398071289
1745738073.650556,-0.017041362822055817,-0.02105400711297989,-0.326223224401474,0.436077356338501,-0.5159122347831726,-9.915635108947754
1745738073.6525636,-0.008091810159385204,-0.014697973616421223,-0.32476896047592163,0.6034109592437744,-0.732589840888977,-9.873119354248047
1745738073.6536298,-0.006046396680176258,-0.01829427108168602,-0.3256516456604004,0.35226908326148987,-0.3393579423427582,-9.625408172607422
1745738073.6564314,0.029186684638261795,-0.008539221249520779,-0.33422720432281494,0.5792509317398071,-0.5034526586532593,-9.781641006469727
1745738073.6925051,0.025404036045074463,-0.010968120768666267,-0.3328770399093628,0.3697647452354431,-0.5650638937950134,-9.843282699584961
1745738073.6972685,0.024638378992676735,-0.009540127590298653,-0.3328487277030945,0.5003067255020142,-0.7373579740524292,-9.795385360717773
1745738073.7008698,0.016785651445388794,-0.012892618775367737,-0.3360843360424042,0.4425085186958313,-0.39717596769332886,-9.675175666809082
1745738073.7009585,0.02786523662507534,-0.01037740707397461,-0.3341323733329773,0.4760587215423584,-0.8134124875068665,-9.810505867004395
1745738073.7363553,0.018169155344367027,-0.011480516754090786,-0.3373575508594513,0.49043455719947815,-0.2502349317073822,-9.683067321777344
1745738073.7386534,0.021670563146471977,-0.008335473947227001,-0.3388497233390808,0.4759989380836487,-0.731997549533844,-9.807958602905273
1745738073.7408197,0.030387412756681442,-0.007720769848674536,-0.33773839473724365,0.5166634321212769,-0.5000615119934082,-9.64809799194336
1745738073.7443297,0.022209081798791885,-0.014324277639389038,-0.34063100814819336,0.38825616240501404,-0.536649227142334,-9.787020683288574
1745738073.746226,0.035003699362277985,-0.007146341260522604,-0.338954359292984,0.5533705949783325,-0.7360770106315613,-9.868082046508789
1745738073.7797112,0.024599187076091766,-0.012776355259120464,-0.33946359157562256,0.3509792983531952,-0.42154890298843384,-9.739282608032227
1745738073.7839482,0.03510841727256775,-0.00633980194106698,-0.33997002243995667,0.5179041624069214,-0.7844333648681641,-9.670565605163574
1745738073.7880402,0.018692875280976295,-0.012290934100747108,-0.3399086594581604,0.5191319584846497,-0.49508222937583923,-9.682629585266113
1745738073.793224,0.03009452298283577,-0.009454325772821903,-0.34259679913520813,0.4543956220149994,-0.7625374794006348,-9.890176773071289
1745738073.8203459,0.019114652648568153,-0.011443959549069405,-0.3429778218269348,0.6038516759872437,-0.5274187326431274,-9.736711502075195
1745738073.8235586,0.012294762767851353,-0.011282271705567837,-0.34390339255332947,0.34806278347969055,-0.6992601752281189,-9.811861991882324
1745738073.8283079,0.027853306382894516,-0.009176601655781269,-0.34134167432785034,0.5397055745124817,-0.6823430061340332,-9.698339462280273
1745738073.8327143,0.005673648789525032,-0.018226992338895798,-0.346432626247406,0.41566914319992065,-0.40210142731666565,-9.70854377746582
1745738073.863865,0.023223381489515305,-0.00794075708836317,-0.3447284996509552,0.5014756321907043,-0.7942761182785034,-9.828447341918945
1745738073.8663967,0.01857921853661537,-0.01292611937969923,-0.34786075353622437,0.4334579110145569,-0.2472040206193924,-9.698016166687012
1745738073.8680518,0.027160849422216415,-0.011617918498814106,-0.3496074080467224,0.505878746509552,-0.7636310458183289,-9.793414115905762
1745738073.8699074,0.02400166727602482,-0.01083598006516695,-0.3463534116744995,0.5436912775039673,-0.46820640563964844,-9.675657272338867
1745738073.8715038,0.03127720206975937,-0.015904303640127182,-0.3506436049938202,0.40160202980041504,-0.6338441371917725,-9.841043472290039
1745738073.907058,0.03285244479775429,-0.012568125501275063,-0.35038018226623535,0.553666889667511,-0.8021191358566284,-9.691743850708008
1745738073.9090748,0.011319602839648724,-0.01878761686384678,-0.35086002945899963,0.4557075500488281,-0.37234169244766235,-9.672895431518555
1745738073.9116316,0.024696141481399536,-0.008255725726485252,-0.3535504639148712,0.46488872170448303,-0.7835229635238647,-9.839876174926758
1745738073.9157643,0.02223624661564827,-0.015290859155356884,-0.35402125120162964,0.4920220375061035,-0.4083116948604584,-9.652172088623047
1745738073.9504836,0.01870478130877018,-0.016207633540034294,-0.35544759035110474,0.40728360414505005,-0.723425030708313,-9.79206371307373
1745738073.9553604,0.023147892206907272,-0.0117568364366889,-0.354059636592865,0.5682764649391174,-0.6935607194900513,-9.771570205688477
1745738073.9616644,0.010195523500442505,-0.020736396312713623,-0.35534578561782837,0.3821055293083191,-0.6487262845039368,-9.812396049499512
1745738073.9632788,0.018011044710874557,-0.013127252459526062,-0.3557465672492981,0.558165431022644,-0.7447353601455688,-9.71799373626709
1745738073.9918127,0.004194583743810654,-0.019744854420423508,-0.35590770840644836,0.48599356412887573,-0.4763149321079254,-9.665225982666016
1745738073.9942124,0.023199230432510376,-0.014577281661331654,-0.35599756240844727,0.48033300042152405,-0.6676273345947266,-9.842499732971191
1745738074.0037913,0.006852957420051098,-0.01892484724521637,-0.357990562915802,0.5789186954498291,-0.4130231440067291,-9.772453308105469
1745738074.0060282,0.018064478412270546,-0.017077915370464325,-0.35819655656814575,0.3434826135635376,-0.7647128105163574,-9.83128547668457
1745738074.0092642,0.022262059152126312,-0.017833497375249863,-0.35799214243888855,0.48911866545677185,-0.5559967756271362,-9.666375160217285
1745738074.039183,0.021148666739463806,-0.029434939846396446,-0.36706680059432983,0.466557115316391,-0.4464767575263977,-9.691549301147461
1745738074.043683,0.04174696281552315,-0.022503206506371498,-0.3641505837440491,0.3914058208465576,-0.825602650642395,-9.730731964111328
1745738074.0479307,0.038995418697595596,-0.026058673858642578,-0.36440926790237427,0.51092129945755,-0.4094133973121643,-9.665353775024414
1745738074.0540476,0.04666859656572342,-0.024405837059020996,-0.3667391240596771,0.4318818151950836,-0.6563700437545776,-9.790572166442871
1745738074.0767806,0.048387233167886734,-0.021983319893479347,-0.36445480585098267,0.5345686674118042,-0.6242263913154602,-9.782907485961914
1745738074.0805347,0.052131928503513336,-0.027110958471894264,-0.3653756082057953,0.40411949157714844,-0.560663104057312,-9.805489540100098
1745738074.0830944,0.05466513708233833,-0.022030964493751526,-0.362815797328949,0.4781323969364166,-0.7677213549613953,-9.77253532409668
1745738074.086314,0.04218705743551254,-0.02633495256304741,-0.3637925982475281,0.44655537605285645,-0.5312338471412659,-9.644281387329102
1745738074.0884213,0.0600372739136219,-0.0215810127556324,-0.3627309203147888,0.42696672677993774,-0.8541380167007446,-9.729634284973145
1745738074.1280324,0.043414901942014694,-0.026018183678388596,-0.363185852766037,0.5164836645126343,-0.542296290397644,-9.708816528320312
1745738074.128069,0.049861326813697815,-0.02153068780899048,-0.36328381299972534,0.454639196395874,-0.772845447063446,-9.823724746704102
1745738074.1280954,0.05892007797956467,-0.01858115755021572,-0.36096081137657166,0.465944766998291,-0.5940240025520325,-9.687860488891602
1745738074.1298532,0.05025740712881088,-0.025264298543334007,-0.3614100515842438,0.3621252477169037,-0.5285186767578125,-9.701866149902344
1745738074.1665628,0.06594247370958328,-0.016935886815190315,-0.36088356375694275,0.49933677911758423,-0.78704434633255,-9.800189018249512
1745738074.1689084,0.05252227932214737,-0.026584740728139877,-0.3589489459991455,0.3954024612903595,-0.5551565289497375,-9.797083854675293
1745738074.1703508,0.06841803342103958,-0.018278557807207108,-0.3601152300834656,0.44092950224876404,-0.7804497480392456,-9.753365516662598
1745738074.173346,0.04848666861653328,-0.023286711424589157,-0.358548104763031,0.5101991891860962,-0.7109549641609192,-9.678545951843262
1745738074.20805,0.0630783885717392,-0.021116670221090317,-0.3594485819339752,0.41379815340042114,-0.7713330388069153,-9.783864974975586
1745738074.2131922,0.045920874923467636,-0.02215493470430374,-0.357147753238678,0.629905641078949,-0.7270420789718628,-9.777310371398926
1745738074.2228682,0.04426415637135506,-0.025182131677865982,-0.35947757959365845,0.32626134157180786,-0.7238082885742188,-9.840147972106934
1745738074.2229285,0.05978917330503464,-0.017365915700793266,-0.35697945952415466,0.4719141125679016,-0.7965036630630493,-9.711069107055664
1745738074.2253952,0.03359168767929077,-0.02967659756541252,-0.3577250838279724,0.4581359326839447,-0.48949581384658813,-9.639395713806152
1745738074.2501016,0.059866249561309814,-0.019248180091381073,-0.35832393169403076,0.4238104224205017,-0.8264894485473633,-9.854260444641113
1745738074.2519314,0.06291627138853073,-0.025399550795555115,-0.3518686294555664,0.35059094429016113,-0.6498017311096191,-9.874628067016602
1745738074.2546167,0.05824067443609238,-0.020686594769358635,-0.3529761731624603,0.47777098417282104,-0.8369876742362976,-9.933135986328125
1745738074.2557511,0.05531155318021774,-0.0195319801568985,-0.3517244756221771,0.38290005922317505,-0.5563691258430481,-9.59614372253418
1745738074.2978892,0.06809252500534058,-0.016960054636001587,-0.35054898262023926,0.4618958532810211,-0.8319123983383179,-9.545429229736328
1745738074.2983587,0.04566539078950882,-0.024672772735357285,-0.35377374291419983,0.4599902033805847,-0.5182529091835022,-9.762029647827148
1745738074.3008623,0.0632292777299881,-0.01448890846222639,-0.3524174392223358,0.3958509564399719,-0.8030338287353516,-9.981139183044434
1745738074.3022015,0.05980877950787544,-0.015089685097336769,-0.3533284068107605,0.4272361397743225,-0.6558343172073364,-9.687023162841797
1745738074.3353772,0.058164775371551514,-0.02169661596417427,-0.34897488355636597,0.34916406869888306,-0.7158789038658142,-9.60409927368164
1745738074.3367507,0.06670799106359482,-0.016165127977728844,-0.3504751920700073,0.4923282563686371,-0.7506805062294006,-9.808771133422852
1745738074.3392003,0.05877998471260071,-0.0197802372276783,-0.3468339145183563,0.3389826714992523,-0.5942464470863342,-9.873031616210938
1745738074.359947,0.07400641590356827,-0.01248526107519865,-0.3470246195793152,0.4643494188785553,-0.8067822456359863,-9.691316604614258
1745738074.3600028,0.058690667152404785,-0.024502145126461983,-0.3474944233894348,0.5164583325386047,-0.697715163230896,-9.637760162353516
1745738074.3817582,0.07662998139858246,-0.018230076879262924,-0.34386110305786133,0.3876095414161682,-0.8468790054321289,-9.948488235473633
1745738074.3851159,0.02844858169555664,-0.02111949399113655,-0.3207748830318451,0.5366522669792175,-0.9086364507675171,-9.814654350280762
1745738074.387932,0.02183561772108078,-0.022235317155718803,-0.3233194351196289,0.3638489246368408,-0.6242084503173828,-9.85590934753418
1745738074.3902814,0.03420640900731087,-0.011578544974327087,-0.3217920660972595,0.4178708493709564,-0.9867488145828247,-9.773655891418457
1745738074.4232116,0.02502240240573883,-0.024693893268704414,-0.32116562128067017,0.39775022864341736,-0.595538854598999,-9.58006477355957
1745738074.426463,0.03176535293459892,-0.01958560384809971,-0.3185841143131256,0.35912027955055237,-0.9424708485603333,-9.86633014678955
1745738074.4279385,0.030954942107200623,-0.017527567222714424,-0.3173520863056183,0.5100303888320923,-0.7595969438552856,-9.876581192016602
1745738074.429676,0.034593142569065094,-0.019566411152482033,-0.31837350130081177,0.2890746593475342,-0.76478111743927,-9.644514083862305
1745738074.4666092,0.02641008235514164,-0.019063862040638924,-0.3185526430606842,0.5144054293632507,-0.9273064732551575,-9.485490798950195
1745738074.470218,0.0236603282392025,-0.02274646796286106,-0.3160058856010437,0.36554232239723206,-0.7970616817474365,-9.840359687805176
1745738074.4753482,0.030596930533647537,-0.014360102824866772,-0.3169229328632355,0.4221276640892029,-0.9253219366073608,-9.999455451965332
1745738074.4802132,0.011024726554751396,-0.022545089945197105,-0.31748586893081665,0.43050676584243774,-0.7107318639755249,-9.707571029663086
1745738074.4856489,0.020708229392766953,-0.018879445269703865,-0.3165106475353241,0.3305148482322693,-1.0671756267547607,-9.670267105102539
1745738074.510549,0.012275206856429577,-0.02272312343120575,-0.31375041604042053,0.44811105728149414,-0.7657148241996765,-9.701486587524414
1745738074.5218334,0.00867940578609705,-0.02035544253885746,-0.31605616211891174,0.37364882230758667,-0.822562038898468,-9.899386405944824
1745738074.5311902,0.017357241362333298,-0.013906965032219887,-0.31206244230270386,0.47918906807899475,-0.9089797735214233,-9.675338745117188
1745738074.5312579,0.011764389462769032,-0.023674288764595985,-0.3120875656604767,0.3183401823043823,-0.5191794037818909,-9.534896850585938
1745738074.5546439,0.020106442272663116,-0.019114511087536812,-0.31351715326309204,0.44598135352134705,-0.9806421399116516,-9.921205520629883
1745738074.5570316,0.01693456992506981,-0.020963570103049278,-0.31061118841171265,0.38535499572753906,-0.536931037902832,-9.938170433044434
1745738074.5593188,0.02796006202697754,-0.017274651676416397,-0.3120068311691284,0.3343026638031006,-0.9169043302536011,-9.730212211608887
1745738074.5617833,0.005799268372356892,-0.022972138598561287,-0.3106731176376343,0.42782020568847656,-0.8463199734687805,-9.535449028015137
1745738074.5947473,0.017900090664625168,-0.02027689851820469,-0.3121167719364166,0.3446067273616791,-0.813262939453125,-9.717677116394043
1745738074.6074305,0.010045900009572506,-0.01622217707335949,-0.3095872700214386,0.5493248105049133,-0.8685721158981323,-9.81469440460205
1745738074.6106005,0.005731760524213314,-0.018516575917601585,-0.3103596270084381,0.35054439306259155,-0.6466679573059082,-9.727232933044434
1745738074.6152804,0.011146764270961285,-0.015316913835704327,-0.30810219049453735,0.44055646657943726,-0.6609395146369934,-9.663186073303223
1745738074.6173391,0.01771376095712185,-0.01829812303185463,-0.3049803078174591,0.2877389192581177,-0.8814958333969116,-9.577582359313965
1745738074.6399426,0.007713820785284042,-0.015646161511540413,-0.3062461316585541,0.5155752897262573,-0.8766231536865234,-9.708593368530273
1745738074.6412487,0.009274277836084366,-0.017913872376084328,-0.3049929738044739,0.3705679476261139,-0.8509378433227539,-9.97872257232666
1745738074.6425076,0.004318267107009888,-0.013225424103438854,-0.3055141866207123,0.4592878222465515,-0.9932656288146973,-9.841188430786133
1745738074.643885,-0.008914070203900337,-0.022114552557468414,-0.3022249639034271,0.4086087644100189,-0.6854836940765381,-9.569219589233398
1745738074.6869266,0.0005167715135030448,-0.0164130087941885,-0.30366194248199463,0.3799370527267456,-1.033583402633667,-9.756242752075195
1745738074.6869977,-0.007084743585437536,-0.01945682428777218,-0.3021989166736603,0.4050425887107849,-0.5840755105018616,-9.744016647338867
1745738074.688707,-0.0046235620975494385,-0.01597932167351246,-0.3044527769088745,0.40538159012794495,-0.8255122303962708,-9.773173332214355
1745738074.6887658,-0.0008380465442314744,-0.014188343659043312,-0.30347156524658203,0.4838995933532715,-0.7697919607162476,-9.64528751373291
1745738074.688812,0.000874289486091584,-0.021789757534861565,-0.3023294508457184,0.3131095767021179,-0.6206161379814148,-9.778711318969727
1745738074.7265835,0.003717878833413124,-0.014690163545310497,-0.3008800148963928,0.47712770104408264,-1.0119903087615967,-9.929375648498535
1745738074.7276752,0.0058565447106957436,-0.020473113283514977,-0.2986241281032562,0.3040558695793152,-0.5926937460899353,-9.732259750366211
1745738074.7319543,0.010409170761704445,-0.010884864255785942,-0.2925770580768585,0.30423736572265625,-0.810691237449646,-9.739944458007812
1745738074.734113,0.0028101839125156403,-0.00906254444271326,-0.29094141721725464,0.4948752522468567,-0.8179507255554199,-9.691774368286133
1745738074.7700512,0.000177756417542696,-0.01657981425523758,-0.29266637563705444,0.32695215940475464,-0.5788370370864868,-9.775688171386719
1745738074.773417,0.006019260734319687,-0.011775234714150429,-0.29331064224243164,0.4857311248779297,-0.980007529258728,-9.866231918334961
1745738074.7763696,0.0040265582501888275,-0.013856545090675354,-0.295296311378479,0.35414546728134155,-0.5179206132888794,-9.611160278320312
1745738074.7789629,-0.008761070668697357,-0.008043450303375721,-0.2931250035762787,0.4533326029777527,-1.005022406578064,-9.679778099060059
1745738074.8104894,-0.000776156026404351,-0.011132056824862957,-0.29538437724113464,0.5004621148109436,-0.6657801866531372,-9.739371299743652
1745738074.812919,-0.0031540226191282272,-0.010765333659946918,-0.2913089394569397,0.34155863523483276,-0.7520443201065063,-9.91671371459961
1745738074.8161929,-0.003792736679315567,-0.00852954387664795,-0.29330888390541077,0.49721282720565796,-0.8512783050537109,-9.78384017944336
1745738074.8203633,0.004194838460534811,-0.012961087748408318,-0.2911497950553894,0.3073858916759491,-0.5958391427993774,-9.645136833190918
1745738074.8523822,-0.0013799767475575209,-0.01276898942887783,-0.2913578152656555,0.5057970285415649,-0.8667999505996704,-9.722417831420898
1745738074.856054,-0.002013907302170992,-0.014421609230339527,-0.2920548617839813,0.37069809436798096,-0.5837838649749756,-9.834128379821777
1745738074.8592832,0.007083254866302013,-0.00739535316824913,-0.29164841771125793,0.3833615183830261,-0.8451253771781921,-9.78914737701416
1745738074.860322,-0.001997385174036026,-0.011961712501943111,-0.29237955808639526,0.4521748423576355,-0.5275669097900391,-9.49799919128418
1745738074.8629565,-0.0013231451157480478,-0.010356217622756958,-0.2942769527435303,0.3727179765701294,-0.7938021421432495,-9.792186737060547
1745738074.9012432,0.006951208226382732,-0.009122123941779137,-0.2920476198196411,0.5709333419799805,-0.786878228187561,-9.919275283813477
1745738074.901369,-0.000398227566620335,-0.01240163017064333,-0.29311659932136536,0.30726534128189087,-0.5972006320953369,-9.846136093139648
1745738074.9028566,-0.00010278262197971344,-0.01003208477050066,-0.29323309659957886,0.4738842844963074,-1.0458433628082275,-9.669598579406738
1745738074.904245,0.0042854538187384605,-0.010887609794735909,-0.29208889603614807,0.3488044738769531,-0.45349550247192383,-9.54539680480957
1745738074.9387028,-0.00030555707053281367,-0.007864130660891533,-0.29203519225120544,0.4549611210823059,-0.9550281763076782,-9.86468505859375
1745738074.9407449,0.005610347725450993,-0.010335701517760754,-0.2911013960838318,0.4518499970436096,-0.5327178239822388,-9.795282363891602
1745738074.9419298,0.012492580339312553,-0.008230587467551231,-0.2907431721687317,0.33626121282577515,-0.7969645261764526,-9.833761215209961
1745738074.946819,-0.0010327480267733335,-0.006688511464744806,-0.29160627722740173,0.5262529850006104,-1.0044963359832764,-9.773252487182617
1745738074.9824302,0.012587660923600197,-0.01062829326838255,-0.2925664484500885,0.43908363580703735,-0.4765080511569977,-9.814447402954102
1745738074.9849494,0.005119337700307369,-0.009341592900454998,-0.2910870909690857,0.3719622492790222,-0.7515023350715637,-9.92221736907959
1745738074.986203,0.01676035486161709,-0.009724589996039867,-0.2927168905735016,0.5452643036842346,-0.6824314594268799,-9.722363471984863
1745738074.9873552,0.019003603607416153,-0.014129653573036194,-0.2907528877258301,0.32262760400772095,-0.639435350894928,-9.67315673828125
1745738074.9891112,0.016662713140249252,-0.01178763061761856,-0.2896932363510132,0.5461668968200684,-0.8976033329963684,-9.757848739624023
1745738075.0274205,0.01856406405568123,-0.016464127227663994,-0.2879585325717926,0.3662031888961792,-0.5990275144577026,-9.871335983276367
1745738075.033122,0.02179863676428795,-0.00708163995295763,-0.28713563084602356,0.4200802743434906,-0.9534441232681274,-9.755334854125977
1745738075.0357568,0.01557440496981144,-0.0161423496901989,-0.2889629006385803,0.4194682538509369,-0.4735049605369568,-9.546180725097656
1745738075.0383253,0.01530765276402235,-0.013068659231066704,-0.28903070092201233,0.39013391733169556,-0.8397701978683472,-9.923515319824219
1745738075.0695066,0.025786209851503372,-0.012819739989936352,-0.29049962759017944,0.5197221040725708,-0.5981566309928894,-9.890670776367188
1745738075.0734353,0.020638931542634964,-0.014899780042469501,-0.29225993156433105,0.33006834983825684,-0.6481215357780457,-9.7192964553833
1745738075.0758412,0.017992351204156876,-0.012507203035056591,-0.292287677526474,0.5397694706916809,-0.993524432182312,-9.581640243530273
1745738075.0783312,0.01700853742659092,-0.013825724832713604,-0.29116320610046387,0.31928426027297974,-0.5406144261360168,-9.721240043640137
1745738075.117905,0.03558151051402092,-0.016213826835155487,-0.28438612818717957,0.46279364824295044,-0.978449821472168,-9.888282775878906
1745738075.1193693,0.04337389022111893,-0.01954004354774952,-0.28365176916122437,0.4633049964904785,-0.6121017932891846,-9.753000259399414
1745738075.1206634,0.03918830305337906,-0.01869131065905094,-0.2852717638015747,0.3057094216346741,-0.8854867815971375,-9.69675064086914
1745738075.1228092,0.03104366734623909,-0.019200842827558517,-0.28479984402656555,0.48736152052879333,-0.7744897603988647,-9.653045654296875
1745738075.1248264,0.03511907905340195,-0.016166532412171364,-0.2847725450992584,0.35133177042007446,-0.7659329175949097,-9.8063325881958
1745738075.155091,0.02660905197262764,-0.016666416078805923,-0.28379133343696594,0.5373817086219788,-0.8591748476028442,-9.801788330078125
1745738075.1585786,0.02687237784266472,-0.02268875762820244,-0.2874153256416321,0.42665600776672363,-0.5461215972900391,-9.715285301208496
1745738075.160379,0.02888534963130951,-0.01914525218307972,-0.28480228781700134,0.45393285155296326,-1.0862929821014404,-9.86196517944336
1745738075.1644812,0.03722419589757919,-0.021114418283104897,-0.28321588039398193,0.36566975712776184,-0.5353696942329407,-9.694376945495605
1745738075.1980639,0.030855247750878334,-0.018012672662734985,-0.28226929903030396,0.42522531747817993,-0.8905081748962402,-9.692744255065918
1745738075.1992881,0.03813737630844116,-0.01895754598081112,-0.28025227785110474,0.4931904673576355,-0.7136937975883484,-9.653037071228027
1745738075.201816,0.03977903723716736,-0.020831089466810226,-0.28354188799858093,0.2458665370941162,-0.5614069700241089,-9.80938720703125
1745738075.2033527,0.03847981616854668,-0.017796553671360016,-0.2824144959449768,0.5392308235168457,-0.9130294919013977,-9.86265754699707
1745738075.2062564,0.04369131103157997,-0.019133390858769417,-0.28518569469451904,0.34458357095718384,-0.6020045876502991,-9.711526870727539
1745738075.2417111,0.036311931908130646,-0.021923843771219254,-0.2833230793476105,0.4966072142124176,-1.0843212604522705,-9.757791519165039
1745738075.243953,0.02064437046647072,-0.026216119527816772,-0.2829359173774719,0.4554106593132019,-0.7815008163452148,-9.805442810058594
1745738075.2460487,0.02661903202533722,-0.017934802919626236,-0.2823489010334015,0.421015202999115,-1.019714593887329,-9.785857200622559
1745738075.2484505,0.01881057396531105,-0.024911697953939438,-0.2821696102619171,0.5575530529022217,-0.7419441342353821,-9.535829544067383
1745738075.2833395,0.015172267332673073,-0.022660665214061737,-0.2806573808193207,0.3824140429496765,-0.7393910884857178,-9.697641372680664
1745738075.2873244,0.019120026379823685,-0.020546630024909973,-0.28063398599624634,0.5317885279655457,-0.9144463539123535,-9.97285270690918
1745738075.2901971,0.030155057087540627,-0.026118909940123558,-0.281907856464386,0.22592727839946747,-0.45306986570358276,-9.8455228805542
1745738075.2946117,0.025116270408034325,-0.021143950521945953,-0.28210851550102234,0.41706013679504395,-0.9766589403152466,-9.615260124206543
1745738075.3274002,0.01222768984735012,-0.030395885929465294,-0.27822479605674744,0.33141976594924927,-0.6018550992012024,-9.806381225585938
1745738075.3318424,0.010544471442699432,-0.024923834949731827,-0.28073111176490784,0.4704999029636383,-1.002368688583374,-9.848530769348145
1745738075.3362486,0.021507825702428818,-0.027653809636831284,-0.2813918888568878,0.3161829113960266,-0.40840935707092285,-9.522747993469238
1745738075.3416257,0.008542602881789207,-0.026724305003881454,-0.28283506631851196,0.4621849060058594,-0.9213941693305969,-9.710594177246094
1745738075.347246,0.024292904883623123,-0.027637392282485962,-0.28365230560302734,0.4408547878265381,-0.6436874866485596,-9.810965538024902
1745738075.3694751,0.02332405187189579,-0.022859815508127213,-0.28135088086128235,0.30036258697509766,-0.7558247447013855,-9.861063003540039
1745738075.3719075,0.023097923025488853,-0.028704743832349777,-0.2807192802429199,0.5407743453979492,-0.9153794050216675,-9.650753021240234
1745738075.3737261,0.029866725206375122,-0.027638068422675133,-0.2775973677635193,0.3510758876800537,-0.6924998164176941,-9.671060562133789
1745738075.374797,0.022901665419340134,-0.02985689602792263,-0.27796024084091187,0.5605379343032837,-1.0336500406265259,-9.88024616241455
1745738075.411846,0.018057554960250854,-0.031706519424915314,-0.27975812554359436,0.3702774941921234,-0.6812575459480286,-9.850461959838867
1745738075.414094,0.01689755544066429,-0.024295078590512276,-0.27789634466171265,0.4068440794944763,-0.9892473220825195,-9.651257514953613
1745738075.416162,0.01461523212492466,-0.03150629624724388,-0.2809496521949768,0.42764416337013245,-0.6104981899261475,-9.471184730529785
1745738075.417144,0.006814979948103428,-0.028015946969389915,-0.27845335006713867,0.3283797800540924,-0.7852916717529297,-9.84290885925293
1745738075.4549253,0.013236040249466896,-0.026440009474754333,-0.28385406732559204,0.48646077513694763,-0.7890084981918335,-9.902966499328613
1745738075.4588988,0.007236063480377197,-0.022018929943442345,-0.2762705683708191,0.3019115626811981,-0.5872818231582642,-9.562128067016602
1745738075.461144,-0.014124703593552113,-0.01988992840051651,-0.2770155370235443,0.5400539636611938,-1.0223920345306396,-9.787419319152832
1745738075.4623718,0.009112253785133362,-0.0202547125518322,-0.27728813886642456,0.3360106647014618,-0.45868778228759766,-9.81578254699707
1745738075.4645965,-0.0066279941238462925,-0.01689416542649269,-0.28087735176086426,0.3459239602088928,-0.8213850259780884,-9.799695014953613
1745738075.500443,0.006733403541147709,-0.02126741036772728,-0.27980196475982666,0.40163373947143555,-0.5682661533355713,-9.607708930969238
1745738075.5019321,0.010275514796376228,-0.01641036570072174,-0.2799072265625,0.2955181896686554,-0.7282565832138062,-9.785394668579102
1745738075.5046751,0.006722354330122471,-0.019446436315774918,-0.28007271885871887,0.5284754633903503,-0.8085917234420776,-9.8349027633667
1745738075.5115142,0.014193737879395485,-0.016833584755659103,-0.2784457206726074,0.27569735050201416,-0.7091819643974304,-9.782734870910645
1745738075.5503511,0.009175777435302734,-0.011785529553890228,-0.2784019112586975,0.44631123542785645,-0.9639285802841187,-9.609965324401855
1745738075.5504475,0.014249660074710846,-0.016924772411584854,-0.27729418873786926,0.344540536403656,-0.4808080792427063,-9.533807754516602
1745738075.5505323,0.0018707601120695472,-0.013117343187332153,-0.2786179184913635,0.48478659987449646,-0.924622654914856,-9.967594146728516
1745738075.5505893,0.018334893509745598,-0.014681609347462654,-0.28057852387428284,0.4482289254665375,-0.5790075063705444,-9.929924011230469
1745738075.5535407,0.011800810694694519,-0.012616733089089394,-0.28069213032722473,0.29008927941322327,-0.7784129977226257,-9.731968879699707
1745738075.5862403,0.007202559616416693,-0.014498251490294933,-0.28086432814598083,0.44948267936706543,-0.8911069631576538,-9.54570198059082
1745738075.5892522,0.017971429973840714,-0.009804166853427887,-0.28017979860305786,0.2608245611190796,-0.5949242115020752,-9.698689460754395
1745738075.5921955,0.0026373681612312794,-0.012542279437184334,-0.2813109755516052,0.560185968875885,-0.9589848518371582,-9.865077018737793
1745738075.596149,0.021236874163150787,-0.010670480318367481,-0.27790307998657227,0.31173449754714966,-0.46630018949508667,-9.704970359802246
1745738075.626533,0.013431412167847157,-0.01039742212742567,-0.2798102796077728,0.4621187150478363,-0.985827624797821,-9.809810638427734
1745738075.6298018,0.020376184955239296,-0.015532242134213448,-0.2774427831172943,0.385647714138031,-0.5837305188179016,-9.797928810119629
1745738075.6340973,0.01726990006864071,-0.00838427059352398,-0.2792600989341736,0.37569814920425415,-0.8844955563545227,-9.84740161895752
1745738075.6341615,0.020100001245737076,-0.015104967169463634,-0.2788463532924652,0.397818386554718,-0.790249764919281,-9.67196273803711
1745738075.6402085,0.026263823732733727,-0.007932404056191444,-0.27608731389045715,0.20888352394104004,-0.5446686148643494,-9.548674583435059
1745738075.6740263,0.012086260132491589,-0.012394260615110397,-0.2750248610973358,0.5150012373924255,-0.7706062197685242,-9.603253364562988
1745738075.6781187,0.015696508809924126,-0.006152553018182516,-0.2755194306373596,0.3305954337120056,-0.8190239667892456,-9.855226516723633
1745738075.6820345,0.014033554121851921,-0.006214147433638573,-0.2755950093269348,0.45654016733169556,-0.7584449052810669,-9.79376220703125
1745738075.6830723,0.024940434843301773,-0.007866507396101952,-0.2765980660915375,0.3028804361820221,-0.48592084646224976,-9.62453842163086
1745738075.7185063,0.007306853774935007,-0.0063788266852498055,-0.2800842821598053,0.47612446546554565,-0.9359143972396851,-9.846035957336426
1745738075.7199767,0.035931654274463654,-0.009211120195686817,-0.2796633541584015,0.37135377526283264,-0.5719262957572937,-9.837869644165039
1745738075.7240644,0.01815076544880867,-0.006111958995461464,-0.27901628613471985,0.36618128418922424,-0.9015833735466003,-9.779540061950684
1745738075.727042,0.02002023532986641,-0.008345764130353928,-0.27713096141815186,0.46983200311660767,-0.8393085598945618,-9.574983596801758
1745738075.7570012,0.026569802314043045,-0.0028767245821654797,-0.27677255868911743,0.34823060035705566,-0.7021394968032837,-9.658449172973633
1745738075.7582734,0.008855998516082764,-0.010873143561184406,-0.27624356746673584,0.6155409812927246,-0.9324690699577332,-9.920171737670898
1745738075.760838,0.030251432210206985,-0.004643026273697615,-0.27684271335601807,0.35125410556793213,-0.5829075574874878,-9.872749328613281
1745738075.7620075,0.012797774747014046,-0.007880708202719688,-0.27785396575927734,0.49505099654197693,-0.9924918413162231,-9.769918441772461
1745738075.8013418,0.022080162540078163,-0.011972653679549694,-0.2782779633998871,0.28629356622695923,-0.6362549066543579,-9.674440383911133
1745738075.8063965,0.010461969301104546,-0.0056525468826293945,-0.276836097240448,0.37270477414131165,-0.9743093252182007,-9.77894115447998
1745738075.8065367,0.001744393608532846,-0.01850053481757641,-0.27536287903785706,0.4518710672855377,-0.7216438055038452,-9.841448783874512
1745738075.8077838,-0.0009400300914421678,-0.013297317549586296,-0.2755733132362366,0.3520272374153137,-0.7607609629631042,-9.716482162475586
1745738075.8107088,-0.011521536856889725,-0.01971011981368065,-0.27594417333602905,0.4627659320831299,-0.9273855090141296,-9.624273300170898
1745738075.8429875,0.01507788896560669,-0.017275705933570862,-0.27788257598876953,0.27037906646728516,-0.5254327058792114,-9.66055679321289
1745738075.84555,-0.014459935948252678,-0.018020164221525192,-0.27838021516799927,0.5601612329483032,-0.9140203595161438,-9.871404647827148
1745738075.846783,0.014800049364566803,-0.014785009436309338,-0.27761730551719666,0.3650888502597809,-0.6025013327598572,-9.755799293518066
1745738075.8484511,0.0012229583226144314,-0.014071364887058735,-0.2779012620449066,0.38588306307792664,-0.8033326268196106,-9.680431365966797
1745738075.8848782,0.0031206849962472916,-0.022621480748057365,-0.2776901423931122,0.49747976660728455,-0.7159236073493958,-9.702959060668945
1745738075.8869786,0.010591113939881325,-0.014891977421939373,-0.27543720602989197,0.3796098828315735,-0.8139398694038391,-9.858851432800293
1745738075.8937435,-0.0008071585325524211,-0.0214066319167614,-0.2751222252845764,0.5514644384384155,-0.8441672325134277,-9.78346061706543
1745738075.8981802,0.006109846290200949,-0.02169089764356613,-0.2770586907863617,0.3196929097175598,-0.703883171081543,-9.740509033203125
1745738075.9014552,-0.012982519343495369,-0.01633392833173275,-0.2765786647796631,0.5243051648139954,-0.9510302543640137,-9.692753791809082
1745738075.9305458,0.009761622175574303,-0.023832688108086586,-0.27683189511299133,0.36043840646743774,-0.5328729748725891,-9.679853439331055
1745738075.9350755,-0.01569729670882225,-0.01870856061577797,-0.27908623218536377,0.45772480964660645,-0.8827813863754272,-9.826065063476562
1745738075.9394164,0.00014137681864667684,-0.020315298810601234,-0.27756163477897644,0.44479990005493164,-0.6816993951797485,-9.767339706420898
1745738075.9434104,0.005431029014289379,-0.018262270838022232,-0.2773641049861908,0.33302825689315796,-0.7529563903808594,-9.699699401855469
1745738075.9733315,-0.008227395825088024,-0.024481795728206635,-0.2772519290447235,0.475766122341156,-0.7786795496940613,-9.732748985290527
1745738075.9761424,0.021921413019299507,-0.01708671823143959,-0.2749597728252411,0.33555498719215393,-0.5536559820175171,-9.787610054016113
1745738075.9795732,-0.0006213040906004608,-0.021125156432390213,-0.27521398663520813,0.5151320695877075,-0.900030791759491,-9.743562698364258
1745738075.981382,0.018052909523248672,-0.022365713492035866,-0.27477315068244934,0.36705875396728516,-0.553795576095581,-9.65506362915039
1745738075.9835467,0.0010192047338932753,-0.018828818574547768,-0.27502983808517456,0.46540531516075134,-0.9736894369125366,-9.834549903869629
1745738076.0148287,0.010103130713105202,-0.02111327461898327,-0.2755485475063324,0.3858179450035095,-0.5662329792976379,-9.741656303405762
1745738076.0179167,0.0006155004957690835,-0.020365681499242783,-0.27676814794540405,0.46512049436569214,-0.7898467779159546,-9.72132682800293
1745738076.018731,0.02120216190814972,-0.025154436007142067,-0.2764127254486084,0.42753735184669495,-0.6098438501358032,-9.885255813598633
1745738076.0207841,0.019155725836753845,-0.01590774953365326,-0.27694782614707947,0.37205618619918823,-0.8353503942489624,-9.878668785095215
1745738076.0596924,0.011405271477997303,-0.02598002552986145,-0.2762037515640259,0.47088566422462463,-0.7824355363845825,-9.613225936889648
1745738076.0618014,0.01314854621887207,-0.025892183184623718,-0.2761336863040924,0.354933500289917,-0.8405225872993469,-9.704320907592773
1745738076.0681462,-0.006585533730685711,-0.02508533000946045,-0.27747154235839844,0.5216735601425171,-0.9256501197814941,-9.864181518554688
1745738076.068212,0.012335394509136677,-0.021617889404296875,-0.27543261647224426,0.3678896427154541,-0.6780816316604614,-9.779382705688477
1745738076.1026087,-0.024783087894320488,-0.023901039734482765,-0.27607837319374084,0.47411173582077026,-0.9418041110038757,-9.628837585449219
1745738076.1046958,-1.2873299056082033e-05,-0.027336368337273598,-0.27691078186035156,0.41753822565078735,-0.6591845750808716,-9.68467903137207
1745738076.1062272,-0.005660317838191986,-0.02127521112561226,-0.2765885293483734,0.39660534262657166,-0.7516968846321106,-9.95103645324707
1745738076.108244,-0.006800636649131775,-0.0280085988342762,-0.2770525813102722,0.4309893250465393,-0.7000565528869629,-9.842782974243164
1745738076.1464386,0.015139907598495483,-0.018694790080189705,-0.27410200238227844,0.33029642701148987,-0.6332759261131287,-9.64262866973877
1745738076.1494567,-0.005241150502115488,-0.029515966773033142,-0.2758578062057495,0.4927040636539459,-0.8321670293807983,-9.648824691772461
1745738076.1514857,0.020423736423254013,-0.023994149640202522,-0.27361586689949036,0.3183988034725189,-0.594110369682312,-9.80435562133789
1745738076.1547768,0.01595361903309822,-0.028425604104995728,-0.2736452519893646,0.39794668555259705,-0.6295968294143677,-9.812100410461426
1745738076.1893764,0.006853410508483648,-0.02182980813086033,-0.273476779460907,0.37520235776901245,-0.8898321986198425,-9.938776969909668
1745738076.1925287,0.008213979192078114,-0.02039211429655552,-0.2740201950073242,0.319160521030426,-0.6668175458908081,-9.618263244628906
1745738076.1938698,0.022536639124155045,-0.016494739800691605,-0.2753438353538513,0.3216397762298584,-0.6263269782066345,-9.432222366333008
1745738076.1956747,-0.009408673271536827,-0.024657461792230606,-0.2752581238746643,0.5305801630020142,-0.7472493052482605,-9.771839141845703
1745738076.197016,0.02547192946076393,-0.018920104950666428,-0.2796095013618469,0.366557240486145,-0.6485811471939087,-10.042011260986328
1745738076.2322543,0.0033998277503997087,-0.016790086403489113,-0.2781049311161041,0.4093611240386963,-0.7746844291687012,-9.806711196899414
1745738076.2358072,0.00957249291241169,-0.02036541886627674,-0.2786065638065338,0.2958482801914215,-0.7595946192741394,-9.477241516113281
1745738076.2368522,0.010398616082966328,-0.014707368798553944,-0.27848559617996216,0.44515323638916016,-0.7889233231544495,-9.67974853515625
1745738076.242313,0.0036955545656383038,-0.023576581850647926,-0.2768665552139282,0.5109781622886658,-0.6845393180847168,-9.946264266967773
1745738076.2786324,0.025928398594260216,-0.011859187856316566,-0.2766481339931488,0.3126787841320038,-0.7237810492515564,-9.824037551879883
1745738076.2787082,0.006181064061820507,-0.019266817718744278,-0.276174932718277,0.4291566014289856,-0.7675948143005371,-9.543801307678223
1745738076.279652,0.028242874890565872,-0.017640922218561172,-0.27604588866233826,0.2701669931411743,-0.6218953132629395,-9.701041221618652
1745738076.283119,0.004886202048510313,-0.020992165431380272,-0.27806270122528076,0.47546595335006714,-0.8055087924003601,-9.968222618103027
1745738076.2837794,0.026898261159658432,-0.013997750356793404,-0.27669039368629456,0.3345005214214325,-0.6347848176956177,-9.878020286560059
1745738076.3178496,0.018621206283569336,-0.011356968432664871,-0.28061461448669434,0.383051335811615,-0.766365110874176,-9.487117767333984
1745738076.3230085,0.002921121660619974,-0.022576402872800827,-0.27923113107681274,0.5224104523658752,-0.7522517442703247,-9.5661039352417
1745738076.3269668,0.023052945733070374,-0.01522201020270586,-0.2794641852378845,0.44684386253356934,-0.8743830919265747,-9.986982345581055
1745738076.3297863,-0.0033020726405084133,-0.016964387148618698,-0.27925872802734375,0.5081629753112793,-0.7192598581314087,-10.010037422180176
1745738076.358589,0.021962609142065048,-0.014933397062122822,-0.2769602835178375,0.31243079900741577,-0.7350567579269409,-9.634057998657227
1745738076.3601937,-0.0008195473928935826,-0.02074367180466652,-0.2758103013038635,0.4414721429347992,-0.7800172567367554,-9.593832015991211
1745738076.3616946,0.025797944515943527,-0.02150828391313553,-0.27671605348587036,0.31559285521507263,-0.4953869879245758,-9.812443733215332
1745738076.361746,0.010699668899178505,-0.01235691737383604,-0.276601105928421,0.37830623984336853,-0.8219396471977234,-9.92427921295166
1745738076.362835,0.03798297792673111,-0.010537601076066494,-0.27844780683517456,0.3695661127567291,-0.7869091033935547,-10.055517196655273
1745738076.4031088,0.0029908313881605864,-0.01723257452249527,-0.27876371145248413,0.48662567138671875,-0.8502413034439087,-9.62718677520752
1745738076.4049368,0.020392877981066704,-0.016235819086432457,-0.2767208218574524,0.33364397287368774,-0.7281148433685303,-9.455122947692871
1745738076.4083915,0.012028954923152924,-0.01344488374888897,-0.2805729806423187,0.48157206177711487,-0.7490345239639282,-9.806700706481934
1745738076.4091,0.010348452255129814,-0.017751449719071388,-0.28011035919189453,0.4295411705970764,-0.6627238392829895,-9.948808670043945
1745738076.4457889,0.01854621432721615,-0.01140361838042736,-0.2794087827205658,0.3590671122074127,-0.79597008228302,-9.768189430236816
1745738076.4474392,0.0034767251927405596,-0.019418802112340927,-0.27993157505989075,0.42067503929138184,-0.784859299659729,-9.65522575378418
1745738076.4493177,0.020813971757888794,-0.013066749088466167,-0.2779146432876587,0.26163190603256226,-0.7351967692375183,-9.78377914428711
1745738076.451377,-0.002630669390782714,-0.016111360862851143,-0.2777690291404724,0.5008748769760132,-0.7757694721221924,-9.796046257019043
1745738076.4872074,0.02578108012676239,-0.016053413972258568,-0.2787941098213196,0.3489293158054352,-0.6662153005599976,-9.705465316772461
1745738076.4906712,0.0052733407355844975,-0.014050883240997791,-0.2793360650539398,0.4613795280456543,-0.7822277545928955,-9.645479202270508
1745738076.4907365,0.00889531522989273,-0.018604477867484093,-0.2793150544166565,0.46774134039878845,-0.7048598527908325,-9.769063949584961
1745738076.4921,0.01500034611672163,-0.009173659607768059,-0.2810651361942291,0.3965788781642914,-0.8310005068778992,-9.888718605041504
1745738076.5321214,0.019459443166851997,-0.011229747906327248,-0.27464598417282104,0.4532635807991028,-0.862034022808075,-9.579139709472656
1745738076.5338724,0.0228203646838665,-0.020857548341155052,-0.27086615562438965,0.39349278807640076,-0.6766878366470337,-9.811396598815918
1745738076.5360456,0.023533960804343224,-0.013252967968583107,-0.27454647421836853,0.41439205408096313,-0.8353211283683777,-10.013757705688477
1745738076.5377731,0.008965589106082916,-0.01760428585112095,-0.27337318658828735,0.43624234199523926,-0.6498242616653442,-9.71918773651123
1745738076.5394404,0.03486555442214012,-0.011604363098740578,-0.27546343207359314,0.34222570061683655,-0.7792680859565735,-9.517532348632812
1745738076.5858557,0.00579095259308815,-0.020476769655942917,-0.27322664856910706,0.4755648970603943,-0.6903828382492065,-9.615232467651367
1745738076.5879567,0.020213644951581955,-0.013362700119614601,-0.27399197220802307,0.3908698260784149,-0.8342077136039734,-9.989056587219238
1745738076.5938256,0.022258777171373367,-0.013292551040649414,-0.27290332317352295,0.4465722143650055,-0.7611029744148254,-9.872101783752441
1745738076.5993454,0.01485632173717022,-0.018712248653173447,-0.27177438139915466,0.38398510217666626,-0.6572198867797852,-9.638423919677734
1745738076.618453,0.0321136899292469,-0.01385846920311451,-0.2722987234592438,0.4225844442844391,-0.8015475273132324,-9.70615291595459
1745738076.6211061,0.011191047728061676,-0.022316351532936096,-0.2703500986099243,0.43982720375061035,-0.6835804581642151,-9.82294750213623
1745738076.6230266,0.03611110895872116,-0.015294985845685005,-0.2719554305076599,0.37223005294799805,-0.7784894704818726,-9.800943374633789
1745738076.6345677,0.0048758238554000854,-0.018217850476503372,-0.2699548602104187,0.4631323218345642,-0.7955408692359924,-9.652603149414062
1745738076.6347468,0.03140287846326828,-0.015522720292210579,-0.2706235945224762,0.30426913499832153,-0.7150985598564148,-9.651590347290039
1745738076.6631105,0.009680638089776039,-0.015005314722657204,-0.26992934942245483,0.49814373254776,-0.7343867421150208,-9.763548851013184
1745738076.6672504,0.01292866189032793,-0.021198969334363937,-0.270964652299881,0.3409702777862549,-0.7017222046852112,-9.91887092590332
1745738076.669128,0.0303649865090847,-0.010383820161223412,-0.2691912055015564,0.4254694879055023,-0.7705357074737549,-9.725923538208008
1745738076.672814,0.010707688517868519,-0.023320240899920464,-0.2717673182487488,0.4297006130218506,-0.6073392033576965,-9.626397132873535
1745738076.704472,0.034394703805446625,-0.012621712870895863,-0.2702763080596924,0.35597676038742065,-0.8252013325691223,-9.763969421386719
1745738076.7072437,0.01999722421169281,-0.016256708651781082,-0.2676421105861664,0.43550926446914673,-0.6031686067581177,-9.727947235107422
1745738076.7083147,0.04120462387800217,-0.0159460362046957,-0.26909470558166504,0.3759557604789734,-0.7657202482223511,-9.775687217712402
1745738076.7094223,0.021283810958266258,-0.015453164465725422,-0.2657446265220642,0.4657016396522522,-0.7886658906936646,-9.757851600646973
1745738076.7474282,0.034370921552181244,-0.019721755757927895,-0.266061395406723,0.3452894389629364,-0.7110268473625183,-9.788385391235352
1745738076.750546,0.0326949767768383,-0.010730210691690445,-0.2686595022678375,0.4345816969871521,-0.8479070663452148,-9.619380950927734
1745738076.7537713,0.0056439852342009544,-0.021577760577201843,-0.2674267292022705,0.4832488000392914,-0.6703692674636841,-9.710144996643066
1745738076.7582283,0.021414700895547867,-0.013941293582320213,-0.2693292200565338,0.3798906207084656,-0.8500898480415344,-9.92197322845459
1745738076.7963967,0.013745228759944439,-0.01437146682292223,-0.2663898468017578,0.4407733380794525,-0.7522804141044617,-9.793479919433594
1745738076.7972713,0.021107744425535202,-0.01881391368806362,-0.2652682662010193,0.3009350895881653,-0.6638656258583069,-9.657444953918457
1745738076.7990365,0.026345854625105858,-0.013639059849083424,-0.26648205518722534,0.4702834486961365,-0.7885469198226929,-9.727400779724121
1745738076.8020852,0.021998967975378036,-0.020111383870244026,-0.26443320512771606,0.33678412437438965,-0.5699118375778198,-9.818567276000977
1745738076.8033834,0.03930639103055,-0.012652173638343811,-0.2653239667415619,0.3980082869529724,-0.7628853917121887,-9.734620094299316
1745738076.8349462,0.019364163279533386,-0.017779719084501266,-0.26658836007118225,0.44203439354896545,-0.6993380784988403,-9.64700984954834
1745738076.838811,0.04118448495864868,-0.013205337338149548,-0.2672070562839508,0.3164970278739929,-0.7809492349624634,-9.759069442749023
1745738076.842474,0.014127182774245739,-0.016285184770822525,-0.26642900705337524,0.5163882374763489,-0.7876952290534973,-9.815206527709961
1745738076.8466952,0.023282790556550026,-0.01583905890583992,-0.26680076122283936,0.3042715787887573,-0.8387738466262817,-9.863936424255371
1745738076.8769712,0.02330784872174263,-0.01082785613834858,-0.2676352858543396,0.49576836824417114,-0.8813028335571289,-9.693885803222656
1745738076.8795655,-0.003331877291202545,-0.021229611709713936,-0.26719552278518677,0.37872156500816345,-0.6787391901016235,-9.875844955444336
1745738076.881168,-0.007356102578341961,-0.018426425755023956,-0.264201283454895,0.3620031476020813,-0.9455922842025757,-9.665152549743652
1745738076.8830924,-0.007380677852779627,-0.02191052958369255,-0.2660970091819763,0.5101074576377869,-0.6980718374252319,-9.558215141296387
1745738076.8866942,-0.0018352875486016273,-0.025936538353562355,-0.2681434750556946,0.28157728910446167,-0.5965861082077026,-9.881370544433594
1745738076.9189541,-0.001148780109360814,-0.018438026309013367,-0.2676289677619934,0.47180843353271484,-0.7279475331306458,-9.899871826171875
1745738076.9205143,0.001802949933335185,-0.023282935842871666,-0.2700982391834259,0.3490857183933258,-0.5760656595230103,-9.625626564025879
1745738076.9217973,0.007930180057883263,-0.01912710629403591,-0.2699807584285736,0.4434681832790375,-0.8774210810661316,-9.661259651184082
1745738076.9235728,-0.00426391139626503,-0.026308199390769005,-0.2679882049560547,0.45562800765037537,-0.5997703075408936,-9.875082015991211
1745738076.9642384,0.0027625057846307755,-0.019908234477043152,-0.26900824904441833,0.33419257402420044,-1.02574622631073,-9.989419937133789
1745738076.9670033,0.0038169636391103268,-0.02257559448480606,-0.2666846811771393,0.4713050425052643,-0.6591914892196655,-9.556469917297363
1745738076.968951,-0.006419888231903315,-0.025141220539808273,-0.2692257761955261,0.382791668176651,-0.6672030687332153,-9.574289321899414
1745738076.9713032,0.0005566364270634949,-0.020461849868297577,-0.26959580183029175,0.5313626527786255,-0.7867403030395508,-9.836152076721191
1745738077.0117137,5.005300045013428e-05,-0.023417672142386436,-0.272386372089386,0.2941182255744934,-0.4223317503929138,-9.855812072753906
1745738077.0151567,0.003760559018701315,-0.017461087554693222,-0.2727193236351013,0.45613545179367065,-0.9557304382324219,-9.73962116241455
1745738077.017871,-3.8079917885625036e-06,-0.024326598271727562,-0.2727731764316559,0.3750939667224884,-0.5352689027786255,-9.56304931640625
1745738077.020979,0.0075599150732159615,-0.021660935133695602,-0.2705613374710083,0.3634219169616699,-0.8918976783752441,-9.857416152954102
1745738077.0221586,-0.0038216416724026203,-0.02308787778019905,-0.2708384394645691,0.470024973154068,-0.7265284657478333,-9.824300765991211
1745738077.0508733,0.008191002532839775,-0.019942164421081543,-0.27196937799453735,0.3772420287132263,-0.7006856203079224,-9.65066909790039
1745738077.0581024,0.004112968686968088,-0.02045300602912903,-0.2729650139808655,0.5453977584838867,-0.7292612791061401,-9.582353591918945
1745738077.0594053,-0.0012400622945278883,-0.02395842969417572,-0.27264243364334106,0.33120763301849365,-0.5617638826370239,-9.783468246459961
1745738077.0614305,0.008171796798706055,-0.016898855566978455,-0.2726314663887024,0.47996944189071655,-0.9394222497940063,-9.902458190917969
1745738077.0905788,0.0013978719944134355,-0.02208852767944336,-0.2750633955001831,0.30413368344306946,-0.47270089387893677,-9.647523880004883
1745738077.0946925,0.0023193415254354477,-0.019693344831466675,-0.27393537759780884,0.37152156233787537,-0.9069420099258423,-9.699014663696289
1745738077.0994153,-0.002197361085563898,-0.02232389524579048,-0.27587181329727173,0.35403552651405334,-0.7414283156394958,-9.752042770385742
1745738077.102711,-0.0054398332722485065,-0.018624942749738693,-0.2754918932914734,0.4369957447052002,-0.8777602910995483,-9.856799125671387
1745738077.1342337,-0.012224831618368626,-0.024496514350175858,-0.2772495150566101,0.3732592463493347,-0.5094326138496399,-9.690503120422363
1745738077.135711,0.002573160920292139,-0.019532764330506325,-0.27686214447021484,0.35709041357040405,-0.934344470500946,-9.766046524047852
1745738077.1426027,-0.0006771102780476213,-0.02286979928612709,-0.2786599099636078,0.3570716977119446,-0.41244179010391235,-9.638595581054688
1745738077.1430693,-0.0013609405141323805,-0.01953412964940071,-0.2836882472038269,0.33979132771492004,-0.7399986386299133,-9.796138763427734
1745738077.14318,0.0062765390612185,-0.01774344965815544,-0.2816040813922882,0.5044261813163757,-0.6892520189285278,-9.64233112335205
1745738077.1786804,0.00633973628282547,-0.020381014794111252,-0.2810940742492676,0.2982722222805023,-0.5530957579612732,-9.689196586608887
1745738077.1821008,0.005139642860740423,-0.017960943281650543,-0.2818322777748108,0.5501400232315063,-0.9312753677368164,-9.866174697875977
1745738077.1863935,0.007672091014683247,-0.02090861089527607,-0.280199259519577,0.3529910445213318,-0.5710315704345703,-9.827520370483398
1745738077.206901,0.009659921750426292,-0.01425034087151289,-0.2788323760032654,0.4186655879020691,-0.936719536781311,-9.722804069519043
1745738077.2233176,-0.0023455992341041565,-0.025530759245157242,-0.2802504003047943,0.4205191731452942,-0.6202360391616821,-9.614198684692383
1745738077.225214,0.012235762551426888,-0.014684815891087055,-0.2795984148979187,0.33271294832229614,-0.7848612666130066,-9.804723739624023
1745738077.2275536,-0.00740462401881814,-0.020776426419615746,-0.28216370940208435,0.5161967873573303,-1.0360634326934814,-9.880681037902832
1745738077.2309709,-0.0018976728897541761,-0.017663899809122086,-0.27981120347976685,0.26603204011917114,-0.4287375509738922,-9.736810684204102
1745738077.2343764,-0.012644504196941853,-0.015747973695397377,-0.2831157445907593,0.49060994386672974,-1.017093539237976,-9.708356857299805
1745738077.2650871,-0.0006107477238401771,-0.01672874391078949,-0.28250449895858765,0.4239581525325775,-0.5333287119865417,-9.630380630493164
1745738077.2664325,-0.002768963109701872,-0.018050607293844223,-0.27957862615585327,0.31674420833587646,-0.7783632278442383,-9.98137378692627
1745738077.2695043,-0.0012510858941823244,-0.018917063251137733,-0.28218311071395874,0.45100149512290955,-0.7038814425468445,-9.854804992675781
1745738077.2715335,0.00536381546407938,-0.015035104937851429,-0.2804446816444397,0.2448274791240692,-0.618048906326294,-9.648141860961914
1745738077.3080647,-0.0023599318228662014,-0.020283088088035583,-0.2805597186088562,0.5445636510848999,-0.8521954417228699,-9.593111038208008
1745738077.3109438,-0.0034811266232281923,-0.023042012006044388,-0.28065863251686096,0.40487152338027954,-0.607495903968811,-9.87542724609375
1745738077.3178883,-0.0063872626051306725,-0.015401053242385387,-0.2812405824661255,0.4908652901649475,-0.9802861213684082,-10.013233184814453
1745738077.3181014,-0.0053824628703296185,-0.01958359219133854,-0.28053897619247437,0.3960121273994446,-0.543804943561554,-9.561992645263672
1745738077.3490517,-0.015446138568222523,-0.015683257952332497,-0.2795165479183197,0.3502180576324463,-0.85670405626297,-9.605522155761719
1745738077.350326,-0.005297240801155567,-0.021966811269521713,-0.2803332209587097,0.4929281175136566,-0.6483278870582581,-9.828171730041504
1745738077.350349,-0.0001836208684835583,-0.01632976159453392,-0.2802237868309021,0.2767859101295471,-0.505678653717041,-9.986396789550781
1745738077.3551354,0.0001971013844013214,-0.01563674584031105,-0.2801472246646881,0.42120641469955444,-0.8241445422172546,-9.684240341186523
1745738077.355188,0.015112867578864098,-0.017361775040626526,-0.28085634112358093,0.25996676087379456,-0.3940325081348419,-9.499963760375977
1745738077.3935678,0.0037292800843715668,-0.017983291298151016,-0.27975600957870483,0.4984997808933258,-0.9662827253341675,-9.838678359985352
1745738077.3969648,0.012339907698333263,-0.017908994108438492,-0.279694139957428,0.39968734979629517,-0.48586922883987427,-9.924287796020508
1745738077.401373,0.008767662569880486,-0.01242735330015421,-0.2781454622745514,0.4056735038757324,-0.9759700894355774,-9.863004684448242
1745738077.404691,0.00339239533059299,-0.018337363377213478,-0.27717167139053345,0.45913010835647583,-0.6834414601325989,-9.566068649291992
1745738077.4361343,-0.0010373250115662813,-0.018430054187774658,-0.27572357654571533,0.34755998849868774,-0.7136680483818054,-9.77177619934082
1745738077.4400322,-0.002884871093556285,-0.018811214715242386,-0.27763479948043823,0.5453040599822998,-0.8809925317764282,-9.954429626464844
1745738077.4429579,0.00697171688079834,-0.014783145859837532,-0.278466135263443,0.2128722220659256,-0.40043896436691284,-9.718812942504883
1745738077.4465427,0.0010779702570289373,-0.01565130427479744,-0.2791336178779602,0.3806551992893219,-0.8158561587333679,-9.985990524291992
1745738077.4852781,0.015170462429523468,-0.01641153357923031,-0.2766532003879547,0.4524877965450287,-0.6106879711151123,-9.84298324584961
1745738077.4854372,0.01281807105988264,-0.015354476869106293,-0.27627867460250854,0.279289573431015,-0.768039882183075,-9.703067779541016
1745738077.488318,0.0076732998713850975,-0.018546003848314285,-0.2759860157966614,0.5351961851119995,-0.7997085452079773,-9.63697624206543
1745738077.492693,0.009417938999831676,-0.017698723822832108,-0.2745041847229004,0.32514485716819763,-0.6274511218070984,-9.837055206298828
1745738077.5217834,4.438347968971357e-05,-0.013488857075572014,-0.27580803632736206,0.5003280639648438,-0.9196439981460571,-9.795434951782227
1745738077.5246494,0.007767952047288418,-0.0177212655544281,-0.27646684646606445,0.3627587556838989,-0.45255589485168457,-9.535947799682617
1745738077.5260968,-0.010006438009440899,-0.015569424256682396,-0.2767368257045746,0.46381011605262756,-0.910357654094696,-9.864347457885742
1745738077.5297453,0.00737836305052042,-0.018807366490364075,-0.2739919424057007,0.44072961807250977,-0.5775319337844849,-9.934215545654297
1745738077.531991,0.00507016247138381,-0.01440856046974659,-0.27573126554489136,0.2607504725456238,-0.6632676124572754,-9.800577163696289
1745738077.5644605,0.003464567009359598,-0.0166473351418972,-0.2753681540489197,0.439174085855484,-0.7468951940536499,-9.490827560424805
1745738077.5667794,0.022180870175361633,-0.016648780554533005,-0.2750396132469177,0.3112998604774475,-0.3985339403152466,-9.597360610961914
1745738077.570342,0.01187528669834137,-0.018542015925049782,-0.2705913782119751,0.33082035183906555,-0.536479115486145,-9.663139343261719
1745738077.6063197,-0.011529063805937767,-0.021000873297452927,-0.2733389139175415,0.5261646509170532,-0.919739842414856,-9.838516235351562
1745738077.6095152,0.014234000816941261,-0.01986081898212433,-0.27164483070373535,0.3837308883666992,-0.48876866698265076,-9.809488296508789
1745738077.609607,-0.0073238881304860115,-0.021763039752840996,-0.27368950843811035,0.43794313073158264,-0.762543797492981,-9.821949005126953
1745738077.6120808,0.005165731068700552,-0.021712740883231163,-0.271835058927536,0.3840755224227905,-0.557376503944397,-9.631817817687988
1745738077.6134865,0.012494318187236786,-0.01274685375392437,-0.27400660514831543,0.29504263401031494,-0.5438140630722046,-9.671876907348633
1745738077.651328,0.001528367167338729,-0.022567199543118477,-0.2714528441429138,0.5445118546485901,-0.7316726446151733,-9.768826484680176
1745738077.6540895,0.022749554365873337,-0.015945028513669968,-0.27233371138572693,0.2885987162590027,-0.46830540895462036,-9.820669174194336
1745738077.660669,0.010620235465466976,-0.02143985405564308,-0.2713344693183899,0.4696928560733795,-0.8661420941352844,-9.83155632019043
1745738077.6607308,0.021813498809933662,-0.0209329966455698,-0.2709411084651947,0.27732813358306885,-0.4637705683708191,-9.682099342346191
1745738077.6988068,0.0096712876111269,-0.017209937795996666,-0.27054446935653687,0.4382222592830658,-0.85527503490448,-9.70146369934082
1745738077.7017477,0.020833220332860947,-0.02259458787739277,-0.2713937759399414,0.40268072485923767,-0.588586151599884,-9.667989730834961
1745738077.705948,0.017120547592639923,-0.014978560619056225,-0.2722497582435608,0.3240906894207001,-0.6485193967819214,-9.763448715209961
1745738077.7086525,0.004059209488332272,-0.01639261282980442,-0.2728325426578522,0.5093875527381897,-0.726908802986145,-9.71927547454834
1745738077.7110302,0.029592767357826233,-0.011094922199845314,-0.2742727994918823,0.2807392179965973,-0.5525203943252563,-9.717485427856445
1745738077.7410367,-0.0009198832558467984,-0.02004588022828102,-0.2730262279510498,0.5189287662506104,-0.8226655721664429,-9.80323600769043
1745738077.7500136,0.03129225969314575,-0.015351901762187481,-0.27353939414024353,0.3528946042060852,-0.47722578048706055,-9.816402435302734
1745738077.7500887,0.009587456472218037,-0.013230192475020885,-0.2733226716518402,0.4116177558898926,-0.8747385144233704,-9.767065048217773
1745738077.7501302,0.023674430325627327,-0.018648872151970863,-0.2712624669075012,0.4076334834098816,-0.5204692482948303,-9.5639009475708
1745738077.7813816,0.018737727776169777,-0.013194265775382519,-0.2709808647632599,0.39021793007850647,-0.7702332139015198,-9.7943115234375
1745738077.7846582,0.02000964991748333,-0.018029868602752686,-0.27136173844337463,0.4116576313972473,-0.5892351269721985,-9.837702751159668
1745738077.7883992,0.031652405858039856,-0.010193994268774986,-0.27196893095970154,0.28728923201560974,-0.5120099782943726,-9.692567825317383
1745738077.7922146,0.007542546838521957,-0.014885015785694122,-0.2746860086917877,0.5087574124336243,-0.8169061541557312,-9.689882278442383
1745738077.7945008,0.039109986275434494,-0.016035471111536026,-0.2737964689731598,0.3207213580608368,-0.5120199918746948,-9.794617652893066
1745738077.826613,0.011562447063624859,-0.017363470047712326,-0.2755570113658905,0.45898476243019104,-0.804780125617981,-9.869560241699219
1745738077.8267403,0.02879650518298149,-0.013462349772453308,-0.2736026346683502,0.37531524896621704,-0.6423220634460449,-9.660136222839355
1745738077.828911,0.024902034550905228,-0.008804455399513245,-0.2713106572628021,0.3534614145755768,-0.677929699420929,-9.565159797668457
1745738077.8305318,0.019670352339744568,-0.02041156217455864,-0.2726305425167084,0.538500189781189,-0.704227089881897,-9.791584014892578
1745738077.8674183,0.03599764406681061,-0.006354811601340771,-0.27251607179641724,0.2607342600822449,-0.5801147222518921,-9.969305038452148
1745738077.872562,0.02229621633887291,-0.012554602697491646,-0.271389365196228,0.43673843145370483,-0.7881643176078796,-9.763148307800293
1745738077.8763392,0.03636015206575394,-0.015006018802523613,-0.2730042040348053,0.25926223397254944,-0.516034722328186,-9.543203353881836
1745738077.8780932,0.02080855518579483,-0.012075571343302727,-0.27167263627052307,0.46107691526412964,-0.805815577507019,-9.733981132507324
1745738077.917447,0.043783627450466156,-0.013496262952685356,-0.27277910709381104,0.3535171151161194,-0.4817427098751068,-9.818402290344238
1745738077.9176054,0.03424961492419243,-0.006341408006846905,-0.2750924527645111,0.38945022225379944,-0.7223992347717285,-9.714556694030762
1745738077.9176724,0.030986497178673744,-0.013047340326011181,-0.27453291416168213,0.5370720028877258,-0.6925718784332275,-9.581747055053711
1745738077.9211128,0.05006910488009453,-0.009045911952853203,-0.27292346954345703,0.3216454088687897,-0.5721518397331238,-9.851831436157227
1745738077.9524183,0.053788863122463226,-0.0076620690524578094,-0.26858872175216675,0.3840312361717224,-0.86329585313797,-9.748013496398926
1745738077.9550426,0.0491645522415638,-0.020295217633247375,-0.2675836384296417,0.48097553849220276,-0.7590920925140381,-9.660955429077148
1745738077.9577203,0.05728727579116821,-0.014454702846705914,-0.266018807888031,0.34748026728630066,-0.7877243757247925,-9.827947616577148
1745738077.9598713,0.04036170244216919,-0.013757887296378613,-0.2697506844997406,0.5139997005462646,-0.8951250314712524,-9.785252571105957
1745738077.9610043,0.06490099430084229,-0.012811069376766682,-0.2677837908267975,0.31981077790260315,-0.6761013865470886,-9.64116382598877
1745738078.0032132,0.03258361294865608,-0.013412246480584145,-0.268660306930542,0.44658422470092773,-0.9264211654663086,-9.680755615234375
1745738078.006021,0.04752688109874725,-0.015780815854668617,-0.2684725522994995,0.4100729823112488,-0.7310887575149536,-9.813277244567871
1745738078.009079,0.04706592857837677,-0.009295700117945671,-0.26794588565826416,0.38070473074913025,-0.8205019235610962,-9.864912033081055
1745738078.010468,0.032738082110881805,-0.019498148933053017,-0.2677314877510071,0.49605926871299744,-0.7896848917007446,-9.71477222442627
1745738078.0388308,0.05619518831372261,-0.013490934856235981,-0.26790904998779297,0.43180376291275024,-0.7948181629180908,-9.758966445922852
1745738078.0430229,0.028583263978362083,-0.02018185518682003,-0.266185998916626,0.5159826278686523,-0.9199833869934082,-9.821125030517578
1745738078.0489037,0.05327761173248291,-0.013850226998329163,-0.26405444741249084,0.3279719352722168,-0.6595565676689148,-9.733501434326172
1745738078.050227,0.032148491591215134,-0.014899276196956635,-0.26418885588645935,0.4722258150577545,-0.9824367761611938,-9.686206817626953
1745738078.0518825,0.04977891594171524,-0.017301449552178383,-0.26181504130363464,0.34158486127853394,-0.5565510988235474,-9.649433135986328
1745738078.0818539,0.03792015463113785,-0.015446843579411507,-0.26561352610588074,0.4350445866584778,-0.8146927952766418,-9.875641822814941
1745738078.083095,0.03954082354903221,-0.01949116215109825,-0.26347261667251587,0.3593701422214508,-0.7721462249755859,-9.849268913269043
1745738078.0848465,0.05969992280006409,-0.011575316078960896,-0.26860037446022034,0.29170694947242737,-0.6862481832504272,-9.605382919311523
1745738078.0859065,0.024623846635222435,-0.021939782425761223,-0.2671962082386017,0.6122912168502808,-0.9028338193893433,-9.616653442382812
1745738078.126358,0.055169712752103806,-0.014325032010674477,-0.265354186296463,0.3998229503631592,-0.8438747525215149,-9.887385368347168
1745738078.127949,0.024235965684056282,-0.015172409825026989,-0.2624005079269409,0.47058868408203125,-0.9686872363090515,-9.846780776977539
1745738078.1298363,0.038459885865449905,-0.019390081986784935,-0.2592828869819641,0.3837558329105377,-0.8501278162002563,-9.63929557800293
1745738078.131162,0.027467936277389526,-0.014792094007134438,-0.2588476538658142,0.44795292615890503,-0.9422687292098999,-9.671618461608887
1745738078.1674922,0.030319994315505028,-0.022786283865571022,-0.2597060203552246,0.4244285523891449,-0.6611883044242859,-9.854196548461914
1745738078.170281,0.040807586163282394,-0.018327657133340836,-0.2633126378059387,0.3485339879989624,-0.77105712890625,-9.573944091796875
1745738078.1725333,0.003083104733377695,-0.020779309794306755,-0.2611733376979828,0.5170376896858215,-1.0582613945007324,-9.912434577941895
1745738078.1744182,0.026682669296860695,-0.017525697126984596,-0.2593345046043396,0.39779695868492126,-0.8063974380493164,-9.93625259399414
1745738078.211566,0.015269642695784569,-0.014869089238345623,-0.2609921991825104,0.43718618154525757,-0.8503990173339844,-9.669755935668945
1745738078.2148697,0.012956912629306316,-0.025629941374063492,-0.2595727741718292,0.48925328254699707,-0.7061445713043213,-9.597097396850586
1745738078.2171373,0.03065689466893673,-0.019670207053422928,-0.26014700531959534,0.4298950731754303,-0.7437596321105957,-9.895502090454102
1745738078.2225652,0.010951383039355278,-0.02387482486665249,-0.25954800844192505,0.45902714133262634,-0.8078487515449524,-9.901676177978516
1745738078.22626,0.03430451080203056,-0.017059117555618286,-0.25903093814849854,0.2687971889972687,-0.681316077709198,-9.605173110961914
1745738078.255556,0.00974714569747448,-0.023071056231856346,-0.2601511478424072,0.4810759127140045,-0.9705425500869751,-9.578084945678711
1745738078.2574,0.03034948743879795,-0.022898882627487183,-0.2587909996509552,0.34628739953041077,-0.6719615459442139,-9.858844757080078
1745738078.2601714,0.008323739282786846,-0.019096646457910538,-0.25970458984375,0.5133131146430969,-0.9581335783004761,-9.974420547485352
1745738078.2618344,0.017026973888278008,-0.023317677900195122,-0.25755733251571655,0.39939048886299133,-0.814494788646698,-9.684956550598145
1745738078.2985768,0.0211574025452137,-0.01712358370423317,-0.2586788535118103,0.3645057678222656,-0.8590822219848633,-9.532964706420898
1745738078.3003044,-0.02053753286600113,-0.026689935475587845,-0.26379621028900146,0.375137060880661,-0.8066584467887878,-9.714632034301758
1745738078.302467,-0.019786015152931213,-0.015278443694114685,-0.2669389843940735,0.4610980153083801,-0.7824277877807617,-9.90104866027832
1745738078.3040752,-0.025570431724190712,-0.02179495058953762,-0.2656644582748413,0.4296392798423767,-0.6464858055114746,-9.697257041931152
1745738078.3157358,-0.014363947324454784,-0.015290017239749432,-0.26871567964553833,0.37811580300331116,-0.7674835324287415,-9.589380264282227
1745738078.3433306,-0.03279764950275421,-0.027647877112030983,-0.269540935754776,0.49331194162368774,-0.805223286151886,-9.817802429199219
1745738078.3455713,-0.017451409250497818,-0.018721947446465492,-0.26821422576904297,0.28853002190589905,-0.7377708554267883,-10.038129806518555
1745738078.3494205,-0.04131215810775757,-0.01829386129975319,-0.2696133553981781,0.42208385467529297,-0.8314744234085083,-9.689623832702637
1745738078.3528388,-0.019440004602074623,-0.021341761574149132,-0.2695842385292053,0.3259509205818176,-0.7279083132743835,-9.449159622192383
1745738078.3854506,-0.029960235580801964,-0.017728334292769432,-0.26918357610702515,0.4831417202949524,-0.7354961633682251,-9.627065658569336
1745738078.389633,-0.0361965149641037,-0.022956544533371925,-0.27032724022865295,0.49695929884910583,-0.6918842792510986,-10.022109985351562
1745738078.3979516,-0.009395839646458626,-0.01059726718813181,-0.2714187800884247,0.39845019578933716,-0.7887783646583557,-9.885533332824707
1745738078.4024196,-0.03722905367612839,-0.02214609459042549,-0.2706529200077057,0.44346338510513306,-0.712832510471344,-9.511495590209961
1745738078.425742,-0.010496203787624836,-0.019923167303204536,-0.2705656886100769,0.3176916241645813,-0.7770881056785583,-9.692967414855957
1745738078.4292214,-0.03500683605670929,-0.020762110128998756,-0.270358145236969,0.4269382357597351,-0.7723453640937805,-9.932707786560059
1745738078.4319565,-0.014682603068649769,-0.016691604629158974,-0.27143436670303345,0.33390408754348755,-0.6062175035476685,-9.737627983093262
1745738078.4357111,-0.03101869486272335,-0.016141416504979134,-0.2730415463447571,0.5037047266960144,-0.8908401727676392,-9.525411605834961
1745738078.4699917,-0.027261605486273766,-0.0245860256254673,-0.27336129546165466,0.43555015325546265,-0.6576095819473267,-9.71725845336914
1745738078.4717808,-0.02534007653594017,-0.01318212877959013,-0.2731643319129944,0.4173259735107422,-0.8009179830551147,-9.982110977172852
1745738078.4767184,-0.0454493947327137,-0.017252745106816292,-0.2740688621997833,0.4425489008426666,-0.7565460205078125,-9.773019790649414
1745738078.4768298,-0.014248216524720192,-0.011945257894694805,-0.2734723687171936,0.35545647144317627,-0.7719923853874207,-9.490102767944336
1745738078.480022,-0.04074639454483986,-0.02291882038116455,-0.2731560170650482,0.4832187592983246,-0.6508197784423828,-9.684229850769043
1745738078.5171077,-0.015472417697310448,-0.01328809093683958,-0.27347904443740845,0.3122562766075134,-0.6463194489479065,-10.016496658325195
1745738078.518949,-0.0269941296428442,-0.017030715942382812,-0.2770591378211975,0.4214645326137543,-0.7942234873771667,-9.988139152526855
1745738078.5213733,-0.011157680302858353,-0.00751772616058588,-0.27369508147239685,0.3215290904045105,-0.7472295165061951,-9.773199081420898
1745738078.5247252,-0.041809629648923874,-0.0172489695250988,-0.27539318799972534,0.5353596210479736,-0.7465241551399231,-9.507753372192383
1745738078.5588443,-0.011118719354271889,-0.01761592924594879,-0.276693195104599,0.34496942162513733,-0.6953065395355225,-9.826977729797363
1745738078.5606754,-0.027228346094489098,-0.01180287916213274,-0.2787186801433563,0.48175540566444397,-0.610977053642273,-9.918275833129883
1745738078.5740418,-0.024100948125123978,-0.01371752005070448,-0.2808033227920532,0.40302982926368713,-0.6411544680595398,-9.698623657226562
1745738078.5741706,-0.009662759490311146,-0.0050438689067959785,-0.27899184823036194,0.3800447881221771,-0.6915580630302429,-9.504814147949219
1745738078.600079,-0.02317209541797638,-0.018804099410772324,-0.2787233591079712,0.3961160480976105,-0.5523066520690918,-9.71854305267334
1745738078.6016972,0.006806377321481705,-0.008336309343576431,-0.2779180407524109,0.34565529227256775,-0.7497097253799438,-10.03761100769043
1745738078.6044288,-0.012867817655205727,-0.010667271912097931,-0.27894333004951477,0.4541502892971039,-0.6418489217758179,-9.771025657653809
1745738078.6055734,0.011300211772322655,-0.011854803189635277,-0.27590665221214294,0.3387337923049927,-0.5857697129249573,-9.504521369934082
1745738078.6497009,-0.009601849131286144,-0.012217603623867035,-0.2795390486717224,0.4935567378997803,-0.7935941815376282,-9.703266143798828
1745738078.6498046,0.011309817433357239,-0.007868948392570019,-0.28001388907432556,0.349414587020874,-0.5772048234939575,-9.901237487792969
1745738078.6498585,0.05315835028886795,-0.01689162477850914,-0.28843918442726135,0.3776635527610779,-0.7353392839431763,-9.927003860473633
1745738078.6499085,0.01863165572285652,-0.018231797963380814,-0.2886568605899811,0.4447321891784668,-0.6586689352989197,-9.672479629516602
1745738078.6883132,0.043668366968631744,-0.014919874258339405,-0.2880166471004486,0.39653390645980835,-0.8186742067337036,-9.590612411499023
1745738078.688571,0.030704686418175697,-0.021846575662493706,-0.2860250771045685,0.509790301322937,-0.7120140790939331,-9.769612312316895
1745738078.6914876,0.030926313251256943,-0.02370426431298256,-0.288788378238678,0.38781672716140747,-0.7103545069694519,-10.056577682495117
1745738078.6949503,0.048522770404815674,-0.012948872521519661,-0.2831515669822693,0.42900794744491577,-0.7495735287666321,-9.800889015197754
1745738078.6987355,0.029149174690246582,-0.023454289883375168,-0.28662601113319397,0.3995264172554016,-0.6478990316390991,-9.402154922485352
1745738078.7275224,0.04887862876057625,-0.01869913376867771,-0.28457188606262207,0.38176172971725464,-0.7585633993148804,-9.656240463256836
1745738078.7313297,0.0296306274831295,-0.02370053343474865,-0.2852599620819092,0.4576820433139801,-0.749232828617096,-10.025115966796875
1745738078.7350552,0.056372713297605515,-0.012985579669475555,-0.2838418185710907,0.2639303505420685,-0.6182819604873657,-9.859187126159668
1745738078.7385902,0.02970712259411812,-0.020110681653022766,-0.2842811942100525,0.4884982705116272,-0.7797556519508362,-9.438108444213867
1745738078.771602,0.04608290642499924,-0.024217918515205383,-0.28348883986473083,0.36228349804878235,-0.7564371228218079,-9.72215747833252
1745738078.7730813,0.04756392166018486,-0.01758115366101265,-0.2855660915374756,0.43200722336769104,-0.7875520586967468,-9.960951805114746
1745738078.7748945,0.02961709164083004,-0.021057583391666412,-0.2832951545715332,0.4976623058319092,-0.7798861265182495,-9.829598426818848
1745738078.7763305,0.057491980493068695,-0.01212100125849247,-0.2840477526187897,0.3155727684497833,-0.7993510365486145,-9.493034362792969
1745738078.777734,0.027563434094190598,-0.02455575205385685,-0.28084200620651245,0.45979148149490356,-0.6373966932296753,-9.607954978942871
1745738078.8154538,0.05632661655545235,-0.01602580025792122,-0.2828685939311981,0.3631250560283661,-0.6756575703620911,-10.06428337097168
1745738078.8186312,0.041830070316791534,-0.016685564070940018,-0.28361815214157104,0.44507211446762085,-0.7419506311416626,-9.903486251831055
1745738078.8237658,0.056969307363033295,-0.02243218570947647,-0.28414711356163025,0.3362165093421936,-0.6323277354240417,-9.48845386505127
1745738078.8287716,0.04002470150589943,-0.019880464300513268,-0.2829465866088867,0.4624345898628235,-0.9406707882881165,-9.636008262634277
1745738078.8554425,0.043611012399196625,-0.022905612364411354,-0.2824459671974182,0.3992803692817688,-0.7768607139587402,-9.913182258605957
1745738078.8591332,0.04898541793227196,-0.011045357212424278,-0.28144824504852295,0.426151841878891,-0.8127328157424927,-9.805728912353516
1745738078.862938,0.022803448140621185,-0.023812228813767433,-0.2820099890232086,0.4215533137321472,-0.8437966108322144,-9.648533821105957
1745738078.8661902,0.04122435674071312,-0.014807495288550854,-0.28281456232070923,0.38460773229599,-0.6979061961174011,-9.519083023071289
1745738078.8676903,0.038196396082639694,-0.02381400391459465,-0.2840355336666107,0.3880903422832489,-0.7328276634216309,-9.633378982543945
1745738078.901519,0.051266394555568695,-0.015432934276759624,-0.2789803147315979,0.39943259954452515,-0.7853086590766907,-9.923056602478027
1745738078.9025419,0.04223748296499252,-0.0213620625436306,-0.28288522362709045,0.4205794930458069,-0.7058684825897217,-9.887105941772461
1745738078.9055128,0.05668839067220688,-0.016136568039655685,-0.2788611054420471,0.3002554178237915,-0.757723867893219,-9.693717956542969
1745738078.9082491,0.03424546867609024,-0.02204083278775215,-0.2804991602897644,0.5208209753036499,-0.8042087554931641,-9.55286979675293
1745738078.9452763,0.06742212176322937,-0.018169859424233437,-0.28296059370040894,0.3160098195075989,-0.5863530039787292,-9.70119571685791
1745738078.9492726,0.031050315126776695,-0.014451888389885426,-0.2830248177051544,0.47391241788864136,-0.8121470212936401,-9.857926368713379
1745738078.9537132,0.05890270322561264,-0.01587049849331379,-0.2835420072078705,0.3605394959449768,-0.6995558738708496,-9.738588333129883
1745738078.957741,0.05698059871792793,-0.015749355778098106,-0.28481578826904297,0.3693440556526184,-0.7113118767738342,-9.662050247192383
1745738078.9858553,0.039338480681180954,-0.022568760439753532,-0.2847593426704407,0.45696061849594116,-0.859207272529602,-9.816186904907227
1745738078.9882307,0.06862086057662964,-0.013082319870591164,-0.2829832434654236,0.36157116293907166,-0.7476509213447571,-9.926582336425781
1745738078.9904542,0.03764042630791664,-0.01882077008485794,-0.2840220630168915,0.5417903661727905,-0.9602845907211304,-9.717517852783203
1745738078.9932375,0.02421935461461544,-0.024347487837076187,-0.2868073582649231,0.2969014346599579,-0.6137444376945496,-9.7996187210083
1745738079.0272815,0.016858475282788277,-0.020256489515304565,-0.2839410901069641,0.45497775077819824,-1.0487751960754395,-9.850664138793945
1745738079.0293102,0.004967381712049246,-0.027522459626197815,-0.284060001373291,0.4311029314994812,-0.7827022671699524,-9.76977252960205
1745738079.0310743,0.013138247653841972,-0.01986047998070717,-0.2826026976108551,0.3231382966041565,-0.9679698944091797,-9.738183975219727
1745738079.032142,0.006356541998684406,-0.0254442747682333,-0.28226786851882935,0.44236093759536743,-0.7560158967971802,-9.620729446411133
1745738079.0333707,0.0025184338446706533,-0.022469092160463333,-0.2808639109134674,0.22792410850524902,-0.7448456287384033,-9.799482345581055
1745738079.0714126,0.013486492447555065,-0.025549599900841713,-0.2826559841632843,0.4503268301486969,-0.8318756818771362,-9.767427444458008
1745738079.0750806,0.0026978938840329647,-0.02963424287736416,-0.2843671441078186,0.3612939119338989,-0.5643977522850037,-9.763922691345215
1745738079.0781128,0.016352998092770576,-0.019744763150811195,-0.2830449938774109,0.36128929257392883,-1.0512101650238037,-9.836641311645508
1745738079.0813732,0.009904304519295692,-0.030017603188753128,-0.2811371386051178,0.38158583641052246,-0.598091721534729,-9.648158073425293
1745738079.1139603,0.013939430937170982,-0.02306760475039482,-0.2800867557525635,0.3886536955833435,-0.9837464094161987,-9.793985366821289
1745738079.1171482,0.008522523567080498,-0.029218444600701332,-0.27817997336387634,0.4096812307834625,-0.762285053730011,-9.770567893981934
1745738079.1198606,0.02013659104704857,-0.025401264429092407,-0.27942895889282227,0.3210592567920685,-0.757199764251709,-9.684385299682617
1745738079.1235363,-0.0039027337916195393,-0.02880789339542389,-0.277843177318573,0.483553409576416,-1.0300332307815552,-9.78015422821045
1745738079.1262896,0.010532472282648087,-0.0319833867251873,-0.27747616171836853,0.27316004037857056,-0.6860625743865967,-9.848184585571289
1745738079.158178,0.003897532820701599,-0.026159435510635376,-0.28039470314979553,0.42327722907066345,-0.8815208673477173,-9.773965835571289
1745738079.1600907,-0.004857418593019247,-0.029065150767564774,-0.27801498770713806,0.27177318930625916,-0.7685067653656006,-9.689943313598633
1745738079.162526,0.01132124476134777,-0.024858012795448303,-0.28053027391433716,0.3794509768486023,-0.8145458102226257,-9.558229446411133
1745738079.1660345,-0.015922050923109055,-0.030235618352890015,-0.2775784134864807,0.4998472332954407,-0.8025433421134949,-9.788965225219727
1745738079.2030594,0.020635847002267838,-0.026339223608374596,-0.27719345688819885,0.2354736030101776,-0.7884992361068726,-9.9907865524292
1745738079.2051377,-0.006163252051919699,-0.029740983620285988,-0.27673396468162537,0.5058931708335876,-0.8143688440322876,-9.685493469238281
1745738079.2079868,0.013394942507147789,-0.028751831501722336,-0.2758065164089203,0.3071519732475281,-0.6624938249588013,-9.67747974395752
1745738079.2127652,0.014275428839027882,-0.02921929396688938,-0.275153249502182,0.286056250333786,-0.8301362991333008,-9.903180122375488
1745738079.242681,0.0023842002265155315,-0.03032400645315647,-0.27137506008148193,0.3587118983268738,-1.0131657123565674,-9.77747917175293
1745738079.2447817,0.002604877110570669,-0.025990936905145645,-0.2707248628139496,0.1899959295988083,-0.8052614331245422,-9.497578620910645
1745738079.2478669,-0.01016776729375124,-0.027841245755553246,-0.26797813177108765,0.33409079909324646,-1.1725869178771973,-9.767866134643555
1745738079.2479174,-0.004032454919070005,-0.034718107432127,-0.2690519094467163,0.12621256709098816,-0.5117067098617554,-9.796177864074707
1745738079.2852724,-0.01736820861697197,-0.019417131319642067,-0.26493218541145325,0.25278618931770325,-1.0086089372634888,-9.801969528198242
1745738079.2878547,-0.013939219526946545,-0.03169848769903183,-0.26697292923927307,0.3221219778060913,-0.6450471878051758,-9.586343765258789
1745738079.291359,-0.005982408300042152,-0.03128878027200699,-0.267122358083725,0.28924378752708435,-0.7716926336288452,-9.771726608276367
1745738079.2944756,-0.027424057945609093,-0.029100963845849037,-0.26595374941825867,0.3678480088710785,-0.8370709419250488,-9.964017868041992
1745738079.2989218,0.001814293093048036,-0.028070058673620224,-0.26333194971084595,0.21488742530345917,-0.8403110504150391,-9.709578514099121
1745738079.3300571,-0.0322856642305851,-0.027546320110559464,-0.2585793435573578,0.3921283185482025,-0.996044933795929,-9.515023231506348
1745738079.333105,-0.02204481139779091,-0.03786458820104599,-0.2592342495918274,0.3153035640716553,-0.6997536420822144,-9.789350509643555
1745738079.3342957,-0.01235868874937296,-0.02761925384402275,-0.2581261694431305,0.37191420793533325,-0.8374202847480774,-10.024327278137207
1745738079.3363373,-0.029169607907533646,-0.0295949038118124,-0.25769102573394775,0.21904206275939941,-0.5859549641609192,-9.676597595214844
1745738079.3759792,-0.020930835977196693,-0.016518525779247284,-0.2484602928161621,0.3364121913909912,-0.7828534841537476,-9.861543655395508
1745738079.380244,-0.03593776002526283,-0.021061573177576065,-0.24779638648033142,0.3649161756038666,-0.6090388298034668,-9.843562126159668
1745738079.3832214,-0.014863977208733559,-0.017583027482032776,-0.24946120381355286,0.2163587361574173,-0.6482959389686584,-9.744451522827148
1745738079.388021,-0.03272464871406555,-0.017568234354257584,-0.24751850962638855,0.3825947642326355,-0.7934540510177612,-9.67757797241211
1745738079.4167304,-0.02405500039458275,-0.02423134446144104,-0.2466737926006317,0.29484355449676514,-0.6539559364318848,-9.835811614990234
1745738079.419533,-0.018015045672655106,-0.01472626905888319,-0.24814605712890625,0.3178180754184723,-0.6716999411582947,-9.845962524414062
1745738079.4211965,-0.03723523020744324,-0.021541088819503784,-0.2470909059047699,0.26816803216934204,-0.659324586391449,-9.72568130493164
1745738079.422584,-0.0047399671748280525,-0.013001644983887672,-0.2473316192626953,0.27437615394592285,-0.7416847944259644,-9.60416316986084
1745738079.457406,-0.04780472815036774,-0.024106279015541077,-0.24894209206104279,0.49418264627456665,-0.604674220085144,-9.857213973999023
1745738079.4589546,-0.011700019240379333,-0.016789451241493225,-0.2468951940536499,0.24321627616882324,-0.7680314183235168,-10.078348159790039
1745738079.4601166,-0.030931899324059486,-0.017289021983742714,-0.24918946623802185,0.2958104908466339,-0.5961745381355286,-9.604243278503418
1745738079.4653082,-0.030882904306054115,-0.020114094018936157,-0.24895644187927246,0.2886088788509369,-0.7728919982910156,-9.483965873718262
1745738079.472079,-0.023633906617760658,-0.014966604299843311,-0.24769794940948486,0.39180684089660645,-0.6601792573928833,-9.813090324401855
1745738079.504798,-0.029635408893227577,-0.019626762717962265,-0.24800904095172882,0.32476606965065,-0.5744078755378723,-10.04897403717041
1745738079.5077372,-0.015404882840812206,-0.008798293769359589,-0.24697387218475342,0.22281906008720398,-0.6304848790168762,-9.73784351348877
1745738079.5123053,-0.03308402746915817,-0.016855701804161072,-0.24944660067558289,0.35082870721817017,-0.6771435141563416,-9.457088470458984
1745738079.5175724,-0.007336490787565708,-0.015829112380743027,-0.24604985117912292,0.26893994212150574,-0.644241213798523,-9.775148391723633
1745738079.546237,-0.03439720347523689,-0.013714300468564034,-0.24810096621513367,0.3874892294406891,-0.6447094678878784,-10.080818176269531
1745738079.5496154,-0.004090982489287853,-0.009328914806246758,-0.248477503657341,0.21663537621498108,-0.6081640124320984,-9.760767936706543
1745738079.5524437,-0.02370564267039299,-0.008974829688668251,-0.24677129089832306,0.3253306448459625,-0.6675223112106323,-9.391716003417969
1745738079.5559292,-0.02350299432873726,-0.017278844490647316,-0.24678198993206024,0.39064139127731323,-0.7041581273078918,-9.749380111694336
1745738079.5910113,-0.00505639985203743,-0.012816396541893482,-0.24734839797019958,0.25875964760780334,-0.4242919087409973,-9.414175033569336
1745738079.592836,-0.006098700221627951,-0.012302855961024761,-0.24363529682159424,0.24327850341796875,-0.8026765584945679,-9.693588256835938
1745738079.5960536,-0.009059893898665905,-0.01747256889939308,-0.23867802321910858,0.1847458779811859,-0.7135550379753113,-10.057522773742676
1745738079.5988822,-0.003374433144927025,-0.00890947412699461,-0.23791959881782532,0.15795083343982697,-0.7912806868553162,-9.822652816772461
1745738079.6315858,-0.035752881318330765,-0.018325582146644592,-0.22983436286449432,-0.057256054133176804,-0.9475704431533813,-9.67613697052002
1745738079.6316266,-0.014558231458067894,-0.016203325241804123,-0.23187553882598877,-0.05866022780537605,-0.5164461135864258,-9.46953010559082
1745738079.6354542,-0.0489252507686615,-0.01117861457169056,-0.22689612209796906,0.19039851427078247,-0.7231510877609253,-9.808049201965332
1745738079.6354878,-0.03263361379504204,-0.02203293889760971,-0.230899378657341,0.16903774440288544,-0.46013885736465454,-9.998579025268555
1745738079.6365519,-0.03025544062256813,-0.015660790726542473,-0.22759990394115448,0.2851499915122986,-0.674039900302887,-9.872312545776367
1745738079.6752899,-0.038725510239601135,-0.025531724095344543,-0.22099843621253967,0.07014897465705872,-0.6113593578338623,-9.726556777954102
1745738079.676883,-0.014368471689522266,-0.01980586349964142,-0.21679982542991638,0.1661446988582611,-0.8483350872993469,-9.609468460083008
1745738079.6787815,-0.043855126947164536,-0.022985834628343582,-0.20775601267814636,0.14535224437713623,-0.5550386905670166,-9.747353553771973
1745738079.6817093,-0.0041768234223127365,-0.02587723731994629,-0.20648689568042755,0.030840914696455002,-0.42558544874191284,-9.89454174041748
1745738079.7161813,-0.0072750733233988285,-0.019295040518045425,-0.20810285210609436,0.1648489087820053,-0.37566787004470825,-9.721086502075195
1745738079.7203178,-0.0795401781797409,-0.02261761575937271,-0.14123143255710602,0.31711095571517944,-0.8203393816947937,-9.909921646118164
1745738079.723017,-0.05052478238940239,-0.026754755526781082,-0.13736489415168762,0.16748090088367462,-0.5565521121025085,-10.19298267364502
1745738079.7309854,-0.07143901288509369,-0.01346501987427473,-0.13127681612968445,0.4028046727180481,-0.6129825115203857,-9.671194076538086
1745738079.760627,-0.05528124421834946,-0.02091231197118759,-0.12196838855743408,0.253339946269989,-0.4737327992916107,-9.503711700439453
1745738079.7625515,-0.03744400292634964,-0.024962911382317543,-0.11597223579883575,0.308117538690567,-0.16090597212314606,-9.84595012664795
1745738079.7651627,-0.026926225051283836,-0.019875627011060715,-0.11371240764856339,0.3080698847770691,-0.28819602727890015,-10.223950386047363
1745738079.7680912,0.006293162703514099,-0.014831945300102234,-0.11326958984136581,0.04041394591331482,0.1396569311618805,-9.74874210357666
1745738079.7682066,-0.002243418712168932,-0.022066054865717888,-0.1138567179441452,0.15271984040737152,-0.43467170000076294,-9.482937812805176
1745738079.8026233,0.018813839182257652,-0.023604437708854675,-0.1119864359498024,0.12884818017482758,-0.06807654350996017,-9.715749740600586
1745738079.8044374,0.0067707872949540615,-0.014938108623027802,-0.11467476189136505,0.2750876545906067,-0.8012239336967468,-10.25446891784668
1745738079.8092048,0.013509439304471016,-0.024619130417704582,-0.11139507591724396,0.2284332811832428,-0.41994714736938477,-9.792437553405762
1745738079.8131857,-0.01010484155267477,-0.013502495363354683,-0.10548031330108643,0.27608156204223633,-0.9669767618179321,-9.515067100524902
1745738079.8455563,-0.01799100637435913,-0.023632533848285675,-0.10200092941522598,0.3083266019821167,-0.769127607345581,-9.685739517211914
1745738079.8472705,-0.029608339071273804,-0.017149824649095535,-0.09755764901638031,0.19395700097084045,-0.8264452219009399,-10.117265701293945
1745738079.8487654,-0.031656257808208466,-0.016775798052549362,-0.0940776914358139,0.21346184611320496,-0.6924337148666382,-9.838175773620605
1745738079.851389,-0.03977460414171219,-0.013032197952270508,-0.09068990498781204,-0.08144920319318771,-0.41028743982315063,-9.512903213500977
1745738079.8545535,-0.040109001100063324,-0.016371987760066986,-0.09042765200138092,0.08048684895038605,-0.6474801898002625,-9.605241775512695
1745738079.892405,-0.04212193936109543,-0.013281670399010181,-0.08996938169002533,0.11197837442159653,-0.20832841098308563,-9.884893417358398
1745738079.8947532,-0.02997220680117607,-0.004459993913769722,-0.09011877328157425,0.07866351306438446,-0.589434027671814,-9.956751823425293
1745738079.8983173,-0.041395753622055054,-0.010241327807307243,-0.08731462061405182,0.1743532121181488,-0.33137068152427673,-9.583572387695312
1745738079.9009728,-0.022435761988162994,-0.008135976269841194,-0.08283964544534683,0.3098810613155365,-0.5908603072166443,-9.586894035339355
1745738079.9342618,-0.04199504479765892,-0.0068215192295610905,-0.07951541244983673,0.3287390172481537,-0.5430634021759033,-9.944509506225586
1745738079.9377837,-0.03357430920004845,-0.006736387964338064,-0.06588961184024811,0.18626555800437927,-0.68263840675354,-9.63145637512207
1745738079.9417887,-0.018073489889502525,-0.007437123451381922,-0.06458602100610733,0.20438846945762634,-0.5281269550323486,-9.79622745513916
1745738079.9438725,-0.04177524149417877,-0.00021120355813764036,-0.05778400972485542,0.2757883667945862,-0.8191238641738892,-10.019279479980469
1745738079.9780102,-0.03457289934158325,-0.005154306534677744,-0.05769861862063408,0.14976896345615387,-0.46846142411231995,-9.697783470153809
1745738079.9801195,-0.04846778139472008,-0.0013286920730024576,-0.054272692650556564,0.25049638748168945,-0.6855406761169434,-9.607217788696289
1745738079.9830427,-0.04958411306142807,-0.004750862717628479,-0.05351343750953674,0.12180527299642563,-0.32256069779396057,-9.795096397399902
1745738079.9858305,-0.04908028990030289,0.0030803631525486708,-0.05339705944061279,0.052692510187625885,-0.4982113242149353,-9.899863243103027
1745738079.9893188,-0.05933570861816406,-4.1211722418665886e-05,-0.051130007952451706,0.2272685319185257,-0.38369160890579224,-9.651188850402832
1745738080.0226958,-0.03958120569586754,0.005844536237418652,-0.05232171341776848,0.10672640800476074,-0.3197506070137024,-9.602193832397461
1745738080.022746,-0.05436175316572189,0.0035969794262200594,-0.048054225742816925,0.27323850989341736,-0.4432472288608551,-9.859793663024902
1745738080.0238147,-0.03591129556298256,0.0015121126780286431,-0.044231243431568146,0.15788671374320984,-0.23026008903980255,-9.903529167175293
1745738080.0266001,-0.037540871649980545,0.010593917220830917,-0.04391751438379288,0.31119105219841003,-0.5469737648963928,-9.74390983581543
1745738080.0613627,-0.03055630624294281,0.0012904290342703462,-0.040843382477760315,0.2105388194322586,-0.2369149923324585,-9.60586166381836
1745738080.0628119,-0.022795919328927994,0.008288027718663216,-0.037906043231487274,0.1758001744747162,-0.5552411079406738,-9.862135887145996
1745738080.0674772,-0.046333275735378265,0.010735292918980122,0.007425590418279171,0.17152878642082214,-0.29480138421058655,-9.728719711303711
1745738080.0675437,-0.06288652867078781,0.012674441561102867,0.00707967346534133,0.2812668979167938,-0.39051732420921326,-9.75232219696045
1745738080.105963,-0.05790778249502182,0.008036786690354347,0.011574946343898773,0.16547027230262756,-0.30980387330055237,-9.777894973754883
1745738080.1093183,-0.05566365644335747,0.011176057159900665,0.01121949590742588,0.339359313249588,-0.44515499472618103,-9.750312805175781
1745738080.1140578,-0.06844629347324371,0.010038655251264572,0.01125025562942028,0.31843048334121704,-0.1360938847064972,-9.755906105041504
1745738080.1165326,-0.06668440252542496,0.007493871264159679,0.014526116661727428,0.1442597508430481,-0.5374889373779297,-9.937901496887207
1745738080.120297,-0.06436219811439514,0.011049248278141022,0.015041053295135498,0.15616364777088165,-0.20900726318359375,-9.615755081176758
1745738080.1486619,-0.08449597656726837,0.013189641758799553,0.021980902180075645,0.43847131729125977,-0.7136024236679077,-9.549789428710938
1745738080.1525,-0.08765742927789688,0.005053261294960976,0.02985873818397522,0.3010127544403076,-0.43121951818466187,-9.991083145141602
1745738080.1555953,-0.09346151351928711,0.011905549094080925,0.03212788328528404,0.3954530954360962,-0.4068373739719391,-9.910825729370117
1745738080.15896,-0.10361269861459732,0.020670592784881592,0.03807934373617172,0.6481127142906189,-0.4217587411403656,-9.557870864868164
1745738080.1914504,-0.10403820127248764,-0.002047607908025384,0.041278254240751266,0.5360785126686096,0.07133235037326813,-9.787047386169434
1745738080.1994061,-0.10196094214916229,0.0018139902967959642,0.042505692690610886,0.5115753412246704,-0.29082855582237244,-10.18697452545166
1745738080.2025995,-0.0980568379163742,0.01269742101430893,0.04539890214800835,0.2887360453605652,0.19302816689014435,-9.830005645751953
1745738080.206946,-0.07906268537044525,0.013982528820633888,0.049359746277332306,0.23817606270313263,-0.02707970142364502,-9.333135604858398
1745738080.2320895,-0.0820351392030716,-0.0012869720812886953,0.05400054529309273,0.38439303636550903,0.08089993894100189,-9.53272819519043
1745738080.2361083,-0.049090199172496796,0.008754382841289043,0.054389458149671555,0.20035938918590546,0.1451786309480667,-10.263001441955566
1745738080.2397027,-0.04025427997112274,0.02017201855778694,0.05833210423588753,0.2627178728580475,-0.045464642345905304,-9.88691234588623
1745738080.2418303,-0.03786841034889221,0.013549220748245716,0.06020936369895935,0.2295266091823578,-0.1278512328863144,-9.190515518188477
1745738080.2429333,-0.03517547994852066,0.011454565450549126,0.0653906911611557,0.49199390411376953,-0.46823644638061523,-9.608431816101074
1745738080.2801058,-0.05541152507066727,0.007365441415458918,0.06949685513973236,0.3524477779865265,-0.4235672056674957,-10.347883224487305
1745738080.2903407,-0.054704952985048294,0.0278642438352108,0.07319322228431702,0.20721857249736786,-0.7083805799484253,-9.923677444458008
1745738080.2942152,-0.11615519225597382,0.01357906311750412,0.08303835242986679,0.37257862091064453,-0.3047967851161957,-9.200033187866211
1745738080.2999983,-0.13708552718162537,0.011403779499232769,0.08895529806613922,0.38121387362480164,0.036728017032146454,-9.377326011657715
1745738080.318943,-0.09976426512002945,0.01342571247369051,0.09173066914081573,0.2612486481666565,-0.122867152094841,-10.379897117614746
1745738080.3212514,-0.11241990327835083,0.009138906374573708,0.09737202525138855,0.44117769598960876,0.11857321113348007,-10.024353981018066
1745738080.3250442,-0.07096044719219208,0.01916476897895336,0.09926694631576538,0.3138308525085449,0.10556807368993759,-9.373673439025879
1745738080.3271716,-0.08317876607179642,0.010252180509269238,0.1019633412361145,0.3506278991699219,0.22616994380950928,-9.528406143188477
1745738080.3640718,-0.06970053911209106,0.0047996873036026955,0.09787531197071075,0.3400927186012268,0.0029741956386715174,-10.17228889465332
1745738080.367185,-0.060419417917728424,0.018360532820224762,0.10029760748147964,0.4805515706539154,-0.055664002895355225,-9.960966110229492
1745738080.370277,-0.08603869378566742,0.010765401646494865,0.10114028304815292,0.1841215044260025,-0.20481963455677032,-9.533910751342773
1745738080.3754897,-0.0782957524061203,0.008987253531813622,0.10579538345336914,0.3043298125267029,-0.4698720872402191,-9.458673477172852
1745738080.3764806,-0.10250697284936905,0.016576847061514854,0.10948032140731812,0.47716808319091797,-0.3006824851036072,-9.879294395446777
1745738080.4105482,-0.09695522487163544,0.020287644118070602,0.11321084201335907,0.2873982787132263,-0.12832212448120117,-10.065404891967773
1745738080.4123774,-0.11677131801843643,0.005011063069105148,0.11350592225790024,0.47515279054641724,-0.38916635513305664,-9.71871280670166
1745738080.4221447,-0.09432979673147202,0.016738206148147583,0.11674453318119049,0.24579045176506042,0.05291784927248955,-9.53465461730957
1745738080.4226756,-0.08092357963323593,-0.003722385037690401,0.13736620545387268,0.3408909738063812,-0.16705858707427979,-9.662964820861816
1745738080.448901,-0.10376129299402237,-0.015025878325104713,0.13801009953022003,0.28901535272598267,0.07023035734891891,-9.683505058288574
1745738080.4505942,-0.09764282405376434,-0.008439498022198677,0.14033429324626923,0.30168503522872925,-0.25449731945991516,-9.921941757202148
1745738080.4523873,-0.11592010408639908,-0.007366059813648462,0.14145486056804657,0.43437427282333374,0.06747542321681976,-9.73934555053711
1745738080.45502,-0.10307955741882324,-0.009370672516524792,0.1458992063999176,0.18369722366333008,0.09282922744750977,-9.75820255279541
1745738080.4918797,-0.10411713272333145,-0.00660213828086853,0.14348724484443665,0.4021347165107727,0.23887161910533905,-9.700142860412598
1745738080.495781,-0.09529328346252441,-0.007661324925720692,0.14490915834903717,0.1907033920288086,0.5032390356063843,-9.86989974975586
1745738080.4997203,-0.07609830051660538,-0.012401359155774117,0.14266768097877502,0.38955095410346985,0.28762245178222656,-9.805418014526367
1745738080.504315,-0.0655805766582489,-0.008667604997754097,0.14357531070709229,0.39764514565467834,0.539446234703064,-9.739970207214355
1745738080.5148544,-0.056808214634656906,-0.009868308901786804,0.1414300501346588,0.16097374260425568,0.16158780455589294,-9.919966697692871
1745738080.5347333,-0.059106480330228806,-0.01535861473530531,0.1441502422094345,0.43093252182006836,0.10696883499622345,-9.689441680908203
1745738080.538444,-0.053128860890865326,-0.004102656152099371,0.1462450474500656,0.24975192546844482,0.25719112157821655,-9.716323852539062
1745738080.5412068,-0.061763547360897064,-0.012204078957438469,0.1461087167263031,0.39133572578430176,-0.04972340539097786,-9.84657096862793
1745738080.5441515,-0.05735664442181587,-0.018237877637147903,0.14514078199863434,0.357415109872818,0.2669927775859833,-9.831838607788086
1745738080.584946,-0.07225899398326874,-0.0067918733693659306,0.1446949690580368,0.38057926297187805,-0.12054729461669922,-9.88380241394043
1745738080.5850675,-0.06607133895158768,-0.016801301389932632,0.14487189054489136,0.21413418650627136,0.2550351023674011,-9.688592910766602
1745738080.587473,-0.08363191038370132,-0.010812319815158844,0.14773084223270416,0.24585609138011932,-0.1858872026205063,-9.75096607208252
1745738080.5876148,-0.0812414139509201,-0.011936662718653679,0.14752618968486786,0.355062335729599,0.09245610237121582,-9.747236251831055
1745738080.5877585,-0.0883370190858841,-0.00967071671038866,0.15133973956108093,0.17252080142498016,0.12579624354839325,-9.821493148803711
1745738080.622212,-0.08350913226604462,-0.008694762364029884,0.15392765402793884,0.5793330073356628,-0.13935241103172302,-9.695637702941895
1745738080.6248872,-0.07678584009408951,-0.0061941249296069145,0.16040712594985962,0.39757007360458374,0.44565391540527344,-9.777002334594727
1745738080.6262293,-0.10010837018489838,-0.007264032028615475,0.16120222210884094,0.5290154814720154,-0.20039018988609314,-9.995267868041992
1745738080.627836,-0.0766356959939003,-0.008465932682156563,0.16628141701221466,0.6852119565010071,0.42185527086257935,-9.570394515991211
1745738080.6658864,-0.07913406193256378,0.0026909064035862684,0.16765300929546356,0.44726696610450745,0.46770477294921875,-9.430538177490234
1745738080.6674623,-0.04039639234542847,-0.012384593486785889,0.16802117228507996,0.3033050298690796,0.6561099886894226,-9.719709396362305
1745738080.6698773,-0.046359553933143616,-0.01017257384955883,0.17010071873664856,0.5708624124526978,0.2109057456254959,-10.189240455627441
1745738080.6739047,-0.02202678471803665,0.0011696905130520463,0.17151644825935364,0.3108330965042114,0.43046894669532776,-9.963125228881836
1745738080.7097118,-0.021497627720236778,0.0030933297239243984,0.17934927344322205,0.38263851404190063,-0.04237449914216995,-9.380282402038574
1745738080.711879,-0.0329812690615654,-0.011377958580851555,0.1836473047733307,0.44215458631515503,0.03727336972951889,-9.514078140258789
1745738080.7155073,-0.03678825497627258,-0.0009954223642125726,0.18313321471214294,0.4391482472419739,-0.05582491308450699,-10.215397834777832
1745738080.7194073,-0.06013072282075882,0.0034856009297072887,0.1897992193698883,0.4562984108924866,-0.17344775795936584,-10.005338668823242
1745738080.7218585,-0.05868978425860405,0.005830065347254276,0.1889503002166748,0.23104074597358704,0.11276745796203613,-9.36448860168457
1745738080.7527783,-0.10771994292736053,-0.00668349489569664,0.18757851421833038,0.49472570419311523,-0.1451205015182495,-9.533563613891602
1745738080.7549646,-0.09365218877792358,-0.007562422193586826,0.1868557184934616,0.5053927898406982,0.1654481440782547,-10.154829025268555
1745738080.7595212,-0.11330165714025497,0.01495875883847475,0.18764369189739227,0.4485648572444916,0.1485377699136734,-10.159342765808105
1745738080.7614937,-0.11440670490264893,-0.0033385097049176693,0.19128689169883728,0.30732521414756775,0.2558835446834564,-9.45579719543457
1745738080.797031,-0.11573239415884018,-0.009594528004527092,0.20111039280891418,0.049327559769153595,0.48612064123153687,-9.669721603393555
1745738080.7998357,-0.0992133766412735,-0.01906515471637249,0.20006689429283142,0.36226731538772583,0.6187809109687805,-9.40081787109375
1745738080.8041737,-0.08774417638778687,-0.014016695320606232,0.20015358924865723,0.35909414291381836,0.9969205856323242,-9.89615249633789
1745738080.8077655,-0.061624281108379364,-0.01680607907474041,0.19787512719631195,0.33773118257522583,0.6404837965965271,-10.292160034179688
1745738080.8461478,-0.019791387021541595,-0.017709670588374138,0.19969774782657623,0.3018093407154083,0.9452436566352844,-9.613309860229492
1745738080.8462815,-0.014791528694331646,-0.01013610977679491,0.1998254805803299,0.2693397104740143,0.5676410794258118,-9.342580795288086
1745738080.8463662,-0.0038406490348279476,-0.026860341429710388,0.20193323493003845,0.31896430253982544,0.4615449905395508,-9.839635848999023
1745738080.8464286,0.012516866438090801,-0.02087123692035675,0.20033197104930878,0.26430457830429077,0.4577702581882477,-10.140985488891602
1745738080.8464675,-0.017094628885388374,-0.014056885614991188,0.19620470702648163,0.30801716446876526,0.05320914834737778,-9.836041450500488
1745738080.8810146,-0.015154777094721794,-0.022343508899211884,0.19495868682861328,0.11743953078985214,0.3283941149711609,-9.37724494934082
1745738080.8828323,-0.05332086235284805,-0.02625533938407898,0.19043084979057312,0.44270363450050354,-0.1669323444366455,-9.693609237670898
1745738080.8857706,-0.06630721688270569,-0.024962011724710464,0.19042766094207764,0.35793930292129517,0.16023018956184387,-10.15897274017334
1745738080.886592,-0.07915548235177994,-0.017435787245631218,0.18980568647384644,0.2957034111022949,-0.07120741903781891,-9.933481216430664
1745738080.9226296,-0.09160976111888885,-0.03084592893719673,0.1936364769935608,0.38622885942459106,0.17518705129623413,-9.300936698913574
1745738080.92515,-0.0925130844116211,-0.023514937609434128,0.19583143293857574,0.18811337649822235,0.32470405101776123,-9.709482192993164
1745738080.9285917,-0.08474433422088623,-0.02820003405213356,0.19962885975837708,0.36352160573005676,0.4749801754951477,-10.080360412597656
1745738080.9315965,-0.05835326388478279,-0.018465615808963776,0.19709572196006775,0.1673247069120407,0.8984054327011108,-9.793971061706543
1745738080.938151,-0.051179468631744385,-0.02324921265244484,0.1939225047826767,0.25070494413375854,0.6841341257095337,-9.526676177978516
1745738080.9655516,-0.029647886753082275,-0.03460267186164856,0.19050635397434235,0.2516944706439972,0.9070695042610168,-9.686661720275879
1745738080.9677818,-0.021078556776046753,-0.021757546812295914,0.188902348279953,0.3430938720703125,0.5445799231529236,-10.069053649902344
1745738080.9720752,-0.026951467618346214,-0.025173503905534744,0.188532754778862,0.28814128041267395,0.4599771499633789,-9.843096733093262
1745738080.9731874,-0.012071278877556324,-0.027105381712317467,0.18722449243068695,0.35984006524086,0.4343439042568207,-9.459061622619629
1745738081.0107832,-0.04367191717028618,-0.0291987843811512,0.18676432967185974,0.5017166137695312,0.19971588253974915,-9.771471977233887
1745738081.0109055,-0.03239241987466812,-0.02990460768342018,0.18718551099300385,0.16025078296661377,0.48736923933029175,-9.49315071105957
1745738081.014893,-0.04753552004694939,-0.028800945729017258,0.1849619597196579,0.1373441070318222,0.24467141926288605,-9.769250869750977
1745738081.0181458,-0.041583798825740814,-0.03061368130147457,0.18657466769218445,0.17598477005958557,0.28634268045425415,-9.921300888061523
1745738081.0501454,-0.04086003825068474,-0.011048106476664543,0.19159969687461853,0.35796189308166504,0.27620813250541687,-9.608391761779785
1745738081.0530818,-0.05642165616154671,-0.026990627869963646,0.19682052731513977,0.553547203540802,0.08373486250638962,-9.712888717651367
1745738081.0541356,-0.05287664383649826,-0.023048903793096542,0.20004689693450928,0.5022997856140137,0.3575071692466736,-9.950352668762207
1745738081.0564642,-0.07300925254821777,-0.011690190993249416,0.20490209758281708,0.8513852953910828,0.146183043718338,-9.84949016571045
1745738081.058592,-0.07648544013500214,-0.019240928813815117,0.20827558636665344,0.6987003684043884,0.6572221517562866,-9.661519050598145
1745738081.0969455,-0.06785623729228973,-0.02478010021150112,0.20696687698364258,0.7089858651161194,0.6017466187477112,-9.967424392700195
1745738081.0983033,-0.07568049430847168,-0.023408465087413788,0.20578578114509583,0.4227755069732666,0.8948453664779663,-10.014944076538086
1745738081.1005855,-0.03563181683421135,-0.012329230085015297,0.20626768469810486,0.3192039430141449,0.928611159324646,-9.605545043945312
1745738081.1037278,-0.04543779045343399,-0.01695086620748043,0.20552869141101837,0.3916759490966797,1.018842339515686,-9.425361633300781
1745738081.1392965,0.011339954100549221,-0.02026347815990448,0.20528241991996765,0.28148603439331055,0.9613263010978699,-9.948384284973145
