timestamp,angular_vel_x,angular_vel_y,angular_vel_z,linear_acc_x,linear_acc_y,linear_acc_z
1745732298.240805,0.003677602158859372,0.0005997954867780209,0.0002419229131191969,0.29758474230766296,0.13505354523658752,-9.800802230834961
1745732298.2408826,0.00037882645847275853,-0.003811455564573407,0.0002380289079155773,0.2400120049715042,0.47340115904808044,-9.73951530456543
1745732298.240954,0.010120814666152,-0.0010961864609271288,-0.0014700049068778753,0.2370670735836029,0.21970877051353455,-9.848017692565918
1745732298.2508512,-0.003037812188267708,-0.0019802029710263014,0.0022373732645064592,0.32014185190200806,0.3578086495399475,-9.773789405822754
1745732298.2509987,0.01297326572239399,-0.0017449905863031745,2.958365985250566e-05,0.1842489093542099,0.36960938572883606,-9.768488883972168
1745732298.2510755,-0.006756527815014124,-0.001768089598044753,0.0007587198633700609,0.337711364030838,0.21866333484649658,-9.7652587890625
1745732298.2511382,0.011346695944666862,-0.0029219486750662327,0.001332613406702876,0.18767213821411133,0.47838014364242554,-9.77728271484375
1745732298.2517009,-0.0006512454710900784,-0.0006812772480770946,0.00025597173953428864,0.3069721758365631,0.1230294331908226,-9.826692581176758
1745732298.2533321,0.0037386224139481783,-0.0022920742630958557,0.0015710934530943632,0.21049349009990692,0.5201427340507507,-9.737654685974121
1745732298.258529,0.006837422493845224,-0.0012913423124700785,0.0004220843256916851,0.2517031133174896,0.1529204547405243,-9.814706802368164
1745732298.2683566,-0.004210573621094227,-0.003214499680325389,-0.0002249172393931076,0.306338369846344,0.40946221351623535,-9.787056922912598
1745732298.2684255,0.01342298649251461,0.0005614738911390305,0.0001912675506900996,0.1962476223707199,0.31066566705703735,-9.827248573303223
1745732298.2684875,-0.0066980598494410515,-0.0016134362667798996,0.00015343939594458789,0.3427816927433014,0.26045745611190796,-9.740504264831543
1745732298.2704184,0.01262806635349989,-0.0017741458723321557,0.0008245445787906647,0.1654123067855835,0.451301634311676,-9.766139030456543
1745732298.273334,-0.003816993208602071,-0.0004421123303472996,-0.0020073186606168747,0.3371865451335907,0.14942243695259094,-9.84112548828125
1745732298.277369,-0.00048444682033732533,-5.285576844471507e-05,-0.0005334042944014072,0.3041274845600128,0.11034412682056427,-9.806736946105957
1745732298.2805796,-0.0004902269574813545,0.0006954154232516885,0.0021608849056065083,0.24578270316123962,0.47569531202316284,-9.740250587463379
1745732298.283753,0.007647468708455563,0.0015405419981107116,0.001987951807677746,0.2529296576976776,0.19948449730873108,-9.8021879196167
1745732298.2861676,-0.007015685550868511,-0.0010416473960503936,0.0005534972879104316,0.32160863280296326,0.3490082621574402,-9.771644592285156
1745732298.2862332,0.011137268505990505,0.002671065740287304,0.00030394145869649947,0.17885428667068481,0.35078293085098267,-9.805264472961426
1745732298.2888205,-0.009182525798678398,-7.987445860635489e-05,0.000990541186183691,0.342048704624176,0.20510978996753693,-9.758488655090332
1745732298.2910368,0.008944367989897728,-0.0005462343688122928,0.0010032460559159517,0.17743980884552002,0.43770694732666016,-9.747237205505371
1745732298.2953444,-0.0038129701279103756,0.004830793011933565,0.001467222347855568,0.32257765531539917,0.16015300154685974,-9.831750869750977
1745732298.2963831,0.0018941244343295693,-0.0019198363879695535,7.690237544011325e-05,0.22625906765460968,0.5011276006698608,-9.729742050170898
1745732298.3035185,0.0033006067387759686,0.0024195308797061443,0.0015183680225163698,0.2542235255241394,0.1442847102880478,-9.80844497680664
1745732298.3036208,-0.004801062401384115,-0.0004932752926833928,0.0015918726567178965,0.2767408788204193,0.4326988160610199,-9.758973121643066
1745732298.3037114,0.008393514901399612,0.003116000909358263,-0.00023394206073135138,0.20814022421836853,0.2396163046360016,-9.797452926635742
1745732298.304121,-0.006767459213733673,-0.0023448155261576176,0.001114248065277934,0.3515808582305908,0.3022546172142029,-9.760464668273926
1745732298.3058674,0.009779813699424267,0.002561242086812854,0.0023986143060028553,0.17244844138622284,0.42099729180336,-9.765864372253418
1745732298.3079193,-0.006875789258629084,0.001253715017810464,0.0002549493219703436,0.34758034348487854,0.13641655445098877,-9.795387268066406
1745732298.332346,0.007898419164121151,-0.0017134351655840874,0.002587725408375263,0.2055562436580658,0.5221033692359924,-9.772560119628906
1745732298.3324673,0.0005853306502103806,0.0036186273209750652,0.001391702564433217,0.30882352590560913,0.121892049908638,-9.813596725463867
1745732298.3325653,-0.0030082103330641985,-0.0001528785505797714,0.0014645394403487444,0.2755644917488098,0.47755366563796997,-9.725137710571289
1745732298.3326144,0.006511227693408728,0.0028533022850751877,0.0012118932791054249,0.23189127445220947,0.23959951102733612,-9.796989440917969
1745732298.3680122,-0.006285817828029394,0.0007915830938145518,0.002202135045081377,0.3214370310306549,0.3102194666862488,-9.775402069091797
1745732298.3723795,0.001549514359794557,-0.0010731976944953203,0.002659477759152651,0.2204144299030304,0.5039224028587341,-9.736457824707031
1745732298.3733704,0.0034660366363823414,0.004847496747970581,0.000440244737546891,0.28314605355262756,0.15557676553726196,-9.816776275634766
1745732298.3749027,-0.0065228589810431,-0.0015722516691312194,0.0021095960400998592,0.3118492662906647,0.4344482421875,-9.757646560668945
1745732298.3773246,0.008545642718672752,0.0038604610599577427,0.0005340282223187387,0.2411540448665619,0.2949693500995636,-9.801194190979004
1745732298.4114373,-0.006564614363014698,-0.0035500198137015104,0.0014449546579271555,0.36133337020874023,0.3341881036758423,-9.756296157836914
1745732298.4151664,0.01301873754709959,0.0016838129376992583,0.0020144651643931866,0.1953200399875641,0.4176042973995209,-9.788847923278809
1745732298.4179587,-0.006300660781562328,0.00016733244410715997,0.0019287370378151536,0.3502470850944519,0.21696047484874725,-9.803529739379883
1745732298.4180417,0.007740813307464123,-0.0012487906496971846,0.0012247307458892465,0.21866729855537415,0.49455732107162476,-9.740758895874023
1745732298.4552035,0.002606305293738842,-6.585124356206506e-05,-0.00019547471310943365,0.31498998403549194,0.15844929218292236,-9.805113792419434
1745732298.4560869,0.0024823357816785574,-0.0017327398527413607,0.0013357957359403372,0.25880640745162964,0.49130311608314514,-9.758552551269531
1745732298.4580665,0.010209617204964161,0.0012892138911411166,-0.0015403542201966047,0.24923834204673767,0.1920108050107956,-9.812070846557617
1745732298.4600754,-0.004023264162242413,-0.0008175073307938874,0.0016744626918807626,0.31881988048553467,0.3684850335121155,-9.739259719848633
1745732298.4973612,0.01260400004684925,-0.001911522587761283,0.0002206432109232992,0.18846413493156433,0.33418381214141846,-9.777339935302734
1745732298.4999154,-0.005652871914207935,-0.00017922250845003873,3.5203807783545926e-05,0.35684219002723694,0.20538723468780518,-9.782392501831055
1745732298.5027664,0.009309763088822365,-4.543475733953528e-05,0.0006159300683066249,0.17601339519023895,0.46180200576782227,-9.772539138793945
1745732298.507825,-0.0024717089254409075,0.0008704067440703511,0.00043465374619700015,0.3288773000240326,0.11290130764245987,-9.780023574829102
1745732298.5399306,0.0009717827779240906,-0.004144457168877125,0.0006355399964377284,0.22770456969738007,0.497013658285141,-9.717164039611816
1745732298.5444973,0.004462454468011856,0.002385223750025034,0.000890522263944149,0.26901739835739136,0.1732235848903656,-9.799537658691406
1745732298.5446186,-0.003514876589179039,-0.0029644561000168324,-4.147672007093206e-05,0.30468934774398804,0.4114055633544922,-9.781359672546387
1745732298.544757,0.010281230323016644,8.803503442322835e-05,0.0004368870868347585,0.20524123311042786,0.30383649468421936,-9.816727638244629
1745732298.5462499,-0.006889474578201771,-0.001730456599034369,0.0007552597089670599,0.36842235922813416,0.2392812967300415,-9.738019943237305
1745732298.5875766,0.010321353562176228,-0.003029335755854845,0.00010052249126601964,0.17433342337608337,0.4436662793159485,-9.763086318969727
1745732298.5942655,-0.0022423206828534603,0.0013209637254476547,0.0012139935279265046,0.3419325649738312,0.16691692173480988,-9.830653190612793
1745732298.5943177,0.004191915038973093,-0.0042424979619681835,0.00013894602307118475,0.20471295714378357,0.4948608875274658,-9.748038291931152
1745732298.597221,0.006422204431146383,0.0011256970465183258,5.199350562179461e-05,0.2678287923336029,0.16481518745422363,-9.782196044921875
1745732298.6260107,-0.0027567169163376093,-0.0035201318096369505,2.5527819161652587e-05,0.27986758947372437,0.44550520181655884,-9.748719215393066
1745732298.6293244,0.008877813816070557,-0.00017576459504198283,-0.0003021801239810884,0.20226404070854187,0.27254775166511536,-9.818394660949707
1745732298.6331615,-0.0045911455526947975,-0.0016728201881051064,-0.00032942043617367744,0.33546900749206543,0.31356367468833923,-9.77580738067627
1745732298.637971,0.00946556031703949,0.00028743952861987054,0.0018751698080450296,0.18427936732769012,0.3851422965526581,-9.761258125305176
1745732298.6414888,-0.006435939576476812,-0.002696738112717867,-0.00023585130111314356,0.34226804971694946,0.1935730278491974,-9.792158126831055
1745732298.6716936,0.009656937792897224,-0.002016146434471011,-0.0005357220070436597,0.195999413728714,0.49130430817604065,-9.772937774658203
1745732298.6755064,-0.0010487474501132965,0.0005967520992271602,0.0006839574198238552,0.3016301095485687,0.12750102579593658,-9.810104370117188
1745732298.6783543,0.001091756857931614,-0.0032721967436373234,1.6983762179734185e-05,0.2540648579597473,0.48142462968826294,-9.722391128540039
1745732298.68053,0.0087355375289917,-4.049262497574091e-05,5.2022260206285864e-05,0.24648351967334747,0.20859535038471222,-9.80390739440918
1745732298.7140234,-0.004122105427086353,-0.003157569793984294,0.0010106421541422606,0.32980087399482727,0.3632965087890625,-9.78795051574707
1745732298.7164252,0.010926861315965652,0.0005101565038785338,-0.0017365242820233107,0.17340904474258423,0.369284063577652,-9.787306785583496
1745732298.7183998,0.00037638359935954213,-0.004557082895189524,-0.0001476662582717836,0.2858508229255676,0.45628446340560913,-9.757306098937988
1745732298.71968,0.008940442465245724,-0.00035995006328448653,-0.0021629813127219677,0.2069350779056549,0.24580475687980652,-9.791276931762695
1745732298.7208753,-0.004385439213365316,-0.003812074661254883,0.0003524384810589254,0.3453328013420105,0.29837578535079956,-9.752744674682617
1745732298.7631924,0.011260801926255226,-0.0014454913325607777,0.00048159659490920603,0.17261460423469543,0.419744074344635,-9.798392295837402
1745732298.7633758,-0.0029234536923468113,-0.001244012382812798,0.0002022667758865282,0.33904188871383667,0.1731903851032257,-9.797500610351562
1745732298.7634604,0.007746682967990637,-0.004521707538515329,-0.0016465479275211692,0.1837398260831833,0.4983624815940857,-9.736897468566895
1745732298.7635374,0.0026250858791172504,-0.0008286785450764,-0.0004502418451011181,0.30299925804138184,0.15296222269535065,-9.82341194152832
1745732298.7985754,0.0001728009374346584,-0.004264866001904011,-0.0012810922926291823,0.26116201281547546,0.45503097772598267,-9.76566219329834
1745732298.8003976,0.010373935103416443,0.00042628683149814606,0.0003635546308942139,0.23903286457061768,0.22527353465557098,-9.800724983215332
1745732298.803817,-0.004916935693472624,-0.003812865586951375,-6.70898734824732e-05,0.3267265260219574,0.3731231391429901,-9.742963790893555
1745732298.8051796,0.013029761612415314,-0.0001382460759487003,-0.0008329846896231174,0.18236508965492249,0.3334617614746094,-9.801290512084961
1745732298.8419297,-0.004699948243796825,-0.0032757767476141453,-6.374320946633816e-05,0.3590988516807556,0.22124484181404114,-9.807138442993164
1745732298.8433475,0.009154287166893482,-0.0019934538286179304,-0.0004806961806025356,0.1886909008026123,0.47540730237960815,-9.746991157531738
1745732298.8453813,-0.00035132543416693807,-0.0007784788613207638,-0.0014877034118399024,0.32016873359680176,0.12738652527332306,-9.79354190826416
1745732298.8506265,0.004084320738911629,-0.006341333035379648,-0.0010442381026223302,0.23531746864318848,0.49753814935684204,-9.740167617797852
1745732298.8561006,0.0056726522743701935,0.0016898151952773333,0.0001666348398430273,0.26116400957107544,0.17279449105262756,-9.811890602111816
1745732298.8861623,-0.001381491543725133,-0.004440105985850096,0.0015087703941389918,0.28952762484550476,0.424736350774765,-9.745896339416504
1745732298.8879442,0.011736753396689892,-0.0013780189910903573,-0.00032486801501363516,0.19696637988090515,0.2851288318634033,-9.821996688842773
1745732298.8906198,-0.006330864038318396,-0.001403388218022883,0.0017766961827874184,0.33621931076049805,0.3009062707424164,-9.772233963012695
1745732298.8944993,0.013173865154385567,-0.002280641347169876,0.0012019521091133356,0.17584988474845886,0.41043275594711304,-9.741872787475586
1745732298.9336782,-0.0035058956127613783,-0.0018610358238220215,0.0010070607531815767,0.3360564112663269,0.1646888703107834,-9.792472839355469
1745732298.9357507,0.00631546089425683,-0.0032202128786593676,0.0015113898552954197,0.2116783857345581,0.5023958086967468,-9.771827697753906
1745732298.9380116,0.001836427254602313,-0.0013457133900374174,-0.0003920976596418768,0.2897530198097229,0.14658935368061066,-9.799356460571289
1745732298.9397757,-0.0011064891004934907,-0.0042778062634170055,0.0013567907735705376,0.2584628462791443,0.4799867272377014,-9.739852905273438
1745732298.9702382,0.00884743221104145,0.00010060083877760917,0.0006586767849512398,0.21739964187145233,0.23330314457416534,-9.8248291015625
1745732298.9740715,-0.004663162864744663,-0.003522255225107074,0.0016421342734247446,0.31755533814430237,0.33188602328300476,-9.754777908325195
1745732298.9767013,0.011784980073571205,0.00011936532973777503,0.0010663534048944712,0.1956927478313446,0.36862435936927795,-9.778969764709473
1745732298.9820552,-0.006337167229503393,-0.0013520385837182403,0.002106605563312769,0.34579187631607056,0.1965363323688507,-9.777260780334473
1745732298.9821103,0.008694382384419441,-0.0019894682336598635,0.0004790729726664722,0.17319324612617493,0.4834683835506439,-9.772720336914062
1745732299.0163746,-0.0003476493002381176,-0.00023448032152373344,0.0010084161767736077,0.30517616868019104,0.13102813065052032,-9.8123779296875
1745732299.019934,0.0014804505044594407,-0.003766226815059781,0.0011428298894315958,0.24056299030780792,0.4928814470767975,-9.717530250549316
1745732299.0218308,0.003981454763561487,0.0005385600961744785,0.0029942754190415144,0.23653452098369598,0.19761426746845245,-9.820439338684082
1745732299.0239396,-0.005745151080191135,-0.002217394532635808,-0.00021764291159342974,0.31728941202163696,0.36691945791244507,-9.767605781555176
1745732299.0584118,0.01099456287920475,0.002003917470574379,0.0011928912717849016,0.18839812278747559,0.32869189977645874,-9.779173851013184
1745732299.0623336,-0.006179402116686106,0.00010383557673776522,0.0023578342515975237,0.3307799696922302,0.23953929543495178,-9.773706436157227
1745732299.0641143,0.00857351254671812,-0.0034580447245389223,0.0013531192671507597,0.18246454000473022,0.44951000809669495,-9.799588203430176
1745732299.0678673,-0.005059429444372654,-0.0010914478916674852,-0.0005816593184135854,0.31824934482574463,0.3442847728729248,-9.748800277709961
1745732299.0695436,0.00819581001996994,0.002697830554097891,0.002048330381512642,0.18009145557880402,0.34677499532699585,-9.770195007324219
1745732299.1030297,-0.008563358336687088,-0.0010587878059595823,0.00254993443377316,0.3375558853149414,0.2045484334230423,-9.787643432617188
1745732299.1060364,0.0075059509836137295,0.00023127198801375926,0.001763039967045188,0.18811550736427307,0.45896396040916443,-9.78088665008545
1745732299.111113,-0.0032010083086788654,0.0034425959456712008,0.0021879319101572037,0.3124414384365082,0.148237407207489,-9.821996688842773
1745732299.1131136,0.00044814645661972463,-0.0031673226039856672,0.0011269968235865235,0.23033341765403748,0.49269095063209534,-9.724878311157227
1745732299.1494565,0.0051823449321091175,0.0045401426032185555,0.0025997632183134556,0.24134619534015656,0.17494046688079834,-9.800812721252441
1745732299.1495209,-0.007836722768843174,-0.0009423202136531472,0.0022951809223741293,0.3003946542739868,0.40107059478759766,-9.762740135192871
1745732299.149561,0.009684746153652668,0.0027372289914637804,0.00022199025261215866,0.20624646544456482,0.3039986491203308,-9.808520317077637
1745732299.1529272,-0.009836366400122643,0.0019259894033893943,0.0026459135115146637,0.3413427472114563,0.26129287481307983,-9.746167182922363
1745732299.1542933,0.010551417246460915,0.0007890444248914719,0.0012763331178575754,0.18965713679790497,0.4307073652744293,-9.772220611572266
1745732299.1954627,-0.007116294000297785,0.002283065114170313,0.0011233126278966665,0.3392486870288849,0.15169602632522583,-9.816177368164062
1745732299.1955774,0.0032590446062386036,-0.0008546909084543586,0.0027258917689323425,0.23413124680519104,0.4900934100151062,-9.753704071044922
1745732299.1956537,0.0009001133730635047,0.004290303215384483,0.00155206851195544,0.2938646674156189,0.13805946707725525,-9.796343803405762
1745732299.195703,-0.004173268564045429,-0.0024441604036837816,0.0014020425733178854,0.27832359075546265,0.4568300247192383,-9.75041675567627
1745732299.2304657,0.009174968115985394,0.0028703520074486732,0.0015347122680395842,0.20979325473308563,0.2768757939338684,-9.82643985748291
1745732299.2369957,-0.004329608287662268,0.0007523942622356117,-0.00029059071675874293,0.3372393548488617,0.300191730260849,-9.751078605651855
1745732299.2383516,0.012277524918317795,0.0022743958979845047,0.0013967474224045873,0.18081991374492645,0.38546621799468994,-9.790828704833984
1745732299.2406332,-0.006383673753589392,0.0007064485689625144,0.0027419249527156353,0.3433755040168762,0.19755563139915466,-9.75735855102539
1745732299.275091,0.007396443746984005,-0.0009213249431923032,-0.0005720578483305871,0.21583421528339386,0.468006432056427,-9.754858016967773
1745732299.2759204,0.0026172546204179525,0.0036163132172077894,0.00038238047272898257,0.31170356273651123,0.1452060490846634,-9.83642864227295
1745732299.2805626,-0.0007037261384539306,-0.0035523518454283476,0.0010285861790180206,0.2595748007297516,0.46480870246887207,-9.741056442260742
1745732299.2854185,0.006817513611167669,0.0036049424670636654,0.00017270600073970854,0.24729928374290466,0.20250770449638367,-9.783884048461914
1745732299.314164,-0.004764135926961899,-0.002209699945524335,-0.00017460601520724595,0.31658798456192017,0.3752703070640564,-9.757562637329102
1745732299.316073,0.012334183789789677,0.0007360129384323955,0.00026146910386160016,0.1972767412662506,0.3122002184391022,-9.808511734008789
1745732299.3180022,-0.00794654805213213,-0.0005841137608513236,0.0014089347096160054,0.344165563583374,0.229985311627388,-9.773927688598633
1745732299.32504,0.008737143129110336,0.00044921887456439435,0.0008618092397227883,0.182112455368042,0.47517937421798706,-9.730949401855469
1745732299.3251245,-0.001311017549596727,0.0007881054771132767,0.0010519183706492186,0.32903629541397095,0.1230316013097763,-9.796504020690918
1745732299.359443,0.002776241861283779,-0.0019521374488249421,0.0004182441043667495,0.22982411086559296,0.505337119102478,-9.748636245727539
1745732299.362196,0.00636336300522089,0.0018910437356680632,-0.00018182818894274533,0.2678684592247009,0.15932197868824005,-9.793190002441406
1745732299.3638835,-0.0031257786322385073,-0.0024523690808564425,0.0011734263971447945,0.3142860531806946,0.4127068519592285,-9.736906051635742
1745732299.3651679,0.010448314249515533,0.0013560501392930746,0.0009647977421991527,0.19642779231071472,0.30296260118484497,-9.800765991210938
1745732299.402617,-0.005019155330955982,-0.0005347609985619783,-5.997326297801919e-05,0.3515867292881012,0.25053995847702026,-9.761396408081055
1745732299.404942,0.010146264918148518,-0.0015533075202256441,0.0006749894237145782,0.18512468039989471,0.4238671660423279,-9.755587577819824
1745732299.4080026,-0.004432267043739557,0.0016561464872211218,0.001453813980333507,0.3370635509490967,0.17032308876514435,-9.795072555541992
1745732299.4102364,-0.005868027452379465,-0.00018405323498882353,-0.00018569672829471529,0.3511539399623871,0.22360023856163025,-9.77277660369873
1745732299.4527006,0.009105140343308449,-0.00044621265260502696,0.0007416921434924006,0.20130550861358643,0.45450925827026367,-9.768743515014648
1745732299.4527922,-0.0016916763270273805,-0.0007297290721908212,0.002917181933298707,0.3154641091823578,0.16286778450012207,-9.800122261047363
1745732299.4528418,0.00283316383138299,-0.005678784102201462,-0.0005794795579276979,0.23830819129943848,0.45862680673599243,-9.715887069702148
1745732299.4548082,0.0031531103886663914,0.0006573464488610625,0.0014515019720420241,0.26661720871925354,0.15331605076789856,-9.808752059936523
1745732299.4871123,-0.004858392756432295,-0.0033042386639863253,-0.0003179503546562046,0.29921671748161316,0.42839837074279785,-9.749432563781738
1745732299.489339,0.009901326149702072,0.002219177782535553,0.0005936685483902693,0.19899173080921173,0.26919475197792053,-9.80677318572998
1745732299.4913077,-0.005524762906134129,-0.0035828114487230778,0.0007347542559728026,0.3567841053009033,0.2767089009284973,-9.755422592163086
1745732299.4939432,0.009562840685248375,-0.0016261385753750801,0.0011498499661684036,0.1806207150220871,0.42326563596725464,-9.765433311462402
1745732299.4959698,-0.004738378804177046,-0.0012175459414720535,-0.0009357508970424533,0.34354132413864136,0.14636607468128204,-9.82796859741211
1745732299.5341973,0.0059258462861180305,-0.0030087758786976337,0.00036741304211318493,0.19570693373680115,0.5122872591018677,-9.722051620483398
1745732299.5416963,0.0026150743942707777,0.0008331433637067676,0.0009174395236186683,0.279941588640213,0.13515181839466095,-9.815164566040039
1745732299.541755,-0.0013787677744403481,-0.0037717283703386784,0.0014215431874617934,0.28753191232681274,0.4489242434501648,-9.759167671203613
1745732299.5503983,0.008541013114154339,-0.0001640923583181575,5.796283858217066e-06,0.2265285700559616,0.2289925515651703,-9.814119338989258
1745732299.5730498,-0.005357510410249233,-0.002567748539149761,0.002280013170093298,0.33053913712501526,0.3263770639896393,-9.76117992401123
1745732299.5776794,0.011374606750905514,7.745223410893232e-05,-0.00026825201348401606,0.18517056107521057,0.38949769735336304,-9.789094924926758
1745732299.5824227,-0.005246251355856657,-0.0031672604382038116,1.6717706330382498e-06,0.3367833197116852,0.1988905370235443,-9.773991584777832
1745732299.586888,0.012045446783304214,-0.0014703817432746291,0.0006763418205082417,0.18598683178424835,0.3596421778202057,-9.804594039916992
1745732299.5889828,-0.007437401916831732,-0.0008435422787442803,0.001976781291887164,0.3583233952522278,0.20800232887268066,-9.791607856750488
1745732299.6198,0.008833451196551323,-0.0026703584007918835,0.0013782649766653776,0.1939404159784317,0.4888944625854492,-9.744820594787598
1745732299.6226535,-0.0008068733150139451,1.3476424101099838e-05,-0.00033188462839461863,0.31210315227508545,0.13820482790470123,-9.816102981567383
1745732299.6257305,0.0032754610292613506,-0.0038962934631854296,0.00021249726705718786,0.22557349503040314,0.501656174659729,-9.756486892700195
1745732299.633319,0.00621336093172431,0.002548892516642809,0.0020923838019371033,0.25150924921035767,0.17650112509727478,-9.811548233032227
1745732299.6599202,-0.004008741118013859,-0.004650173708796501,-0.0009810636984184384,0.32144084572792053,0.37521791458129883,-9.729508399963379
1745732299.661146,0.011316542513668537,0.0003334579523652792,0.0028394281398504972,0.1793084740638733,0.3153885006904602,-9.805058479309082
1745732299.6640887,-0.006936530116945505,-0.0006853246013633907,0.000566858914680779,0.34771957993507385,0.26562613248825073,-9.79438304901123
1745732299.6667325,0.011378219351172447,-0.0009294655174016953,0.0009792986093088984,0.19218848645687103,0.4283258318901062,-9.783177375793457
1745732299.7044094,-0.004410553257912397,-0.0009449304197914898,0.00043186399852856994,0.3423076570034027,0.14535582065582275,-9.794565200805664
1745732299.7062309,0.00588899664580822,-0.0038514542393386364,0.0019317104015499353,0.2338094711303711,0.4982071816921234,-9.734736442565918
1745732299.7074044,0.001320593524724245,0.001864494988694787,-0.00023051751486491412,0.265878289937973,0.15305200219154358,-9.82019329071045
1745732299.7096202,-0.0012551710242405534,-0.004932907875627279,0.0016217438969761133,0.2662246823310852,0.45985689759254456,-9.756223678588867
1745732299.7131484,0.008628571406006813,0.0022689742036163807,0.0005995508399792016,0.2126554548740387,0.2632967531681061,-9.809329986572266
1745732299.7483525,-0.006987348198890686,-0.0024496365804225206,0.00365735637024045,0.33898866176605225,0.31565457582473755,-9.767887115478516
1745732299.7535462,0.010885125026106834,-0.0021854289807379246,-0.0016710171476006508,0.17913596332073212,0.4040931165218353,-9.781014442443848
1745732299.7551215,-0.0037149072159081697,-0.0011327500687912107,0.002084861509501934,0.3374519944190979,0.18148081004619598,-9.796161651611328
1745732299.7582958,0.007480716798454523,-0.0036293044686317444,0.0010050132405012846,0.20249395072460175,0.47990113496780396,-9.755525588989258
1745732299.7909622,-0.004828415345400572,0.0004602340923156589,0.0006144280778244138,0.3460160791873932,0.14682957530021667,-9.782514572143555
1745732299.7944703,0.007087096571922302,-0.004079430364072323,0.00045241578482091427,0.20626676082611084,0.5103127360343933,-9.736628532409668
1745732299.796816,0.001550163491629064,0.0035951752215623856,-0.00015237703337334096,0.28904470801353455,0.14521008729934692,-9.84553050994873
1745732299.8038497,-0.0012068720534443855,-0.005011444445699453,0.0015033413656055927,0.2659919857978821,0.43856269121170044,-9.745545387268066
1745732299.8328931,0.010232437402009964,0.0027310363948345184,0.0015258548082783818,0.2274516373872757,0.23430219292640686,-9.788737297058105
1745732299.8361096,-0.007624649442732334,-0.004165282938629389,6.978632995924272e-07,0.32085680961608887,0.3412787914276123,-9.743054389953613
1745732299.8375452,0.013038655743002892,-0.0005157450796104968,0.0009678240749053657,0.1751611828804016,0.3815304636955261,-9.78388786315918
1745732299.8394008,-0.004926370456814766,-0.0008525823359377682,0.0008302167989313602,0.3419364094734192,0.19533893465995789,-9.791314125061035
1745732299.8409414,0.010456247255206108,-0.002846625167876482,0.0008038926753215492,0.18039105832576752,0.4717620015144348,-9.773059844970703
1745732299.8780444,0.0005795364268124104,0.0010096929036080837,0.001068855868652463,0.30940091609954834,0.13803353905677795,-9.829681396484375
1745732299.8796055,0.001986211631447077,-0.004012127872556448,0.0004391123657114804,0.23704567551612854,0.49494999647140503,-9.73432445526123
1745732299.880705,0.0075370087288320065,-0.00013162862160243094,0.0009415987879037857,0.24753651022911072,0.17995671927928925,-9.819131851196289
1745732299.8829277,-0.004007480572909117,-0.003050505416467786,1.6678251995472237e-05,0.2993301749229431,0.39428550004959106,-9.757963180541992
1745732299.9182718,0.011831168085336685,0.00012695924669969827,0.00032565247965976596,0.2065730094909668,0.29375171661376953,-9.797685623168945
1745732299.9211218,-0.006573670543730259,-0.0018729160074144602,-0.0005567809566855431,0.35127896070480347,0.23916015028953552,-9.775516510009766
1745732299.926013,0.013954433612525463,-0.0013200410176068544,0.002494682092219591,0.17867599427700043,0.4530184864997864,-9.766088485717773
1745732299.9283469,-0.004432089626789093,-0.00039284786907956004,-0.0005106768803671002,0.3266007900238037,0.15081481635570526,-9.830065727233887
1745732299.932032,0.011906532570719719,-0.0008040330139920115,0.00017727278464008123,0.16899700462818146,0.42098647356033325,-9.749357223510742
1745732299.9608767,-0.0031335994135588408,-0.0009667135891504586,0.002371822018176317,0.34103235602378845,0.1478646695613861,-9.801225662231445
1745732299.96435,0.00589930173009634,-0.004084655083715916,0.00030410895124077797,0.2057235687971115,0.5048503279685974,-9.780723571777344
1745732299.9717083,0.004267771728336811,0.0020432251039892435,0.0018243681406602263,0.28558987379074097,0.12992176413536072,-9.807350158691406
1745732299.972987,4.562120739137754e-05,-0.00329992501065135,0.0030751798767596483,0.26230329275131226,0.4696734845638275,-9.704885482788086
1745732300.0046926,0.010187891311943531,0.002805450465530157,9.21271275728941e-05,0.23791265487670898,0.23137612640857697,-9.811650276184082
1745732300.0075405,-0.006763485725969076,-0.002512181643396616,0.00048650550888851285,0.3299003839492798,0.30551522970199585,-9.768818855285645
1745732300.019149,0.012327502481639385,0.0010238594841212034,0.002360410988330841,0.166172593832016,0.40304136276245117,-9.782369613647461
1745732300.0192244,-0.005279351491481066,-0.0010832896223291755,0.0024110544472932816,0.34395888447761536,0.19305531680583954,-9.779653549194336
1745732300.047348,0.008877409622073174,-0.0015319152735173702,0.00023094471544027328,0.19136255979537964,0.47030574083328247,-9.745100021362305
1745732300.0506918,-0.001021888921968639,0.0013241944834589958,0.0016624288400635123,0.314839631319046,0.13759556412696838,-9.823873519897461
1745732300.054008,0.0024827118031680584,-0.0027218000032007694,0.00033814419293776155,0.24247464537620544,0.4700700342655182,-9.754002571105957
1745732300.056829,0.005397751461714506,0.0030726641416549683,0.0019075985765084624,0.2397700995206833,0.1870918869972229,-9.804361343383789
1745732300.058236,-0.003637421876192093,-0.0008578795823268592,0.001529694302007556,0.2990047335624695,0.4058310091495514,-9.738980293273926
1745732300.091529,0.011135648004710674,0.00010278807167196646,0.001824352890253067,0.1983453780412674,0.3073723316192627,-9.81725025177002
1745732300.0934575,-0.00621014554053545,-0.0015355569776147604,0.002001323504373431,0.3494880497455597,0.2535392642021179,-9.78644847869873
1745732300.0970712,0.009466792456805706,-0.00023456588678527623,3.5521039535524324e-05,0.18001936376094818,0.44945335388183594,-9.743967056274414
1745732300.0999765,-0.004563846159726381,0.001028153346851468,0.002010906580835581,0.33643296360969543,0.1385861188173294,-9.806234359741211
1745732300.1375608,0.004564163275063038,-0.00275986036285758,0.001121773268096149,0.20248988270759583,0.5260245203971863,-9.749555587768555
1745732300.138792,-0.003993917256593704,0.0018790923058986664,0.0007266747998073697,0.31591689586639404,0.13504984974861145,-9.811132431030273
1745732300.1400187,0.0014366945251822472,-0.002178843831643462,0.0012654141755774617,0.22823452949523926,0.49730077385902405,-9.774004936218262
1745732300.1434631,0.0018304664408788085,0.0036272096913307905,0.0011551721254363656,0.2535170912742615,0.15485608577728271,-9.807036399841309
1745732300.1754968,-0.003746330039575696,-0.0008768226834945381,0.0032669384963810444,0.29202693700790405,0.41827327013015747,-9.730701446533203
1745732300.177368,0.009412026032805443,0.0015485024778172374,0.0010675195371732116,0.20989346504211426,0.2917858064174652,-9.810037612915039
1745732300.1807892,-0.009249383583664894,-0.0002660416648723185,0.0014107084134593606,0.33912917971611023,0.25280696153640747,-9.790580749511719
1745732300.1833239,0.00891910120844841,0.001253399532288313,0.003006794024258852,0.18960008025169373,0.4497266709804535,-9.741120338439941
1745732300.1849017,-0.00616760179400444,-0.000889677437953651,0.0012860584538429976,0.3358408510684967,0.15501658618450165,-9.776525497436523
1745732300.222353,0.0034465566277503967,-0.00019312361837364733,0.003519491758197546,0.2068602293729782,0.487921804189682,-9.773728370666504
1745732300.225752,-0.0012720398372039199,0.003370008198544383,0.0009193037403747439,0.28375574946403503,0.15495269000530243,-9.82874870300293
1745732300.2311056,-0.0021170047111809254,-0.00019568232528399676,0.001700689666904509,0.28225594758987427,0.4404156804084778,-9.738251686096191
1745732300.231605,0.00501543702557683,0.001175077399238944,0.0008425298146903515,0.2249615639448166,0.24277539551258087,-9.782530784606934
1745732300.2648678,-0.007215613964945078,-0.0005682582850567997,0.0032454330939799547,0.3352762758731842,0.34561437368392944,-9.782081604003906
1745732300.280452,0.006551490630954504,0.0011753540020436049,0.002602772321552038,0.18858861923217773,0.3580953776836395,-9.805377006530762
1745732300.28061,-0.007447633892297745,0.0004136791394557804,0.0012008743360638618,0.3514787256717682,0.21294216811656952,-9.754536628723145
1745732300.2806985,0.0053525702096521854,-0.00032516487408429384,0.0020797045435756445,0.19334779679775238,0.4810209274291992,-9.7344331741333
1745732300.280755,-0.003165297908708453,0.002304134424775839,0.003332338761538267,0.32034677267074585,0.13292284309864044,-9.824661254882812
1745732300.3080661,0.010091605596244335,-0.003471239237114787,0.0020914694759994745,0.19153062999248505,0.4860512316226959,-9.717469215393066
1745732300.3084214,0.0007797398720867932,0.0006534626008942723,0.0017383818048983812,0.30908042192459106,0.14971664547920227,-9.812768936157227
1745732300.3106837,0.0050214543007314205,-0.003585189115256071,0.00042094243690371513,0.23851752281188965,0.4928096830844879,-9.758546829223633
1745732300.3122401,0.007686187978833914,0.0015652598813176155,-0.00016381355817429721,0.2668772339820862,0.18599674105644226,-9.809305191040039
1745732300.3498387,-0.0029469537548720837,-0.005067379213869572,0.0018692560261115432,0.28610754013061523,0.4320773482322693,-9.720564842224121
1745732300.3518324,0.012852923944592476,0.0004486050456762314,0.0001659751433180645,0.1971716582775116,0.2850375175476074,-9.811273574829102
1745732300.3529665,-0.004659011494368315,-0.0023915101774036884,0.0005375581094995141,0.34572240710258484,0.2444317787885666,-9.809195518493652
1745732300.3541865,0.013880734331905842,-0.0005655337008647621,0.00048042545677162707,0.1817413866519928,0.44534558057785034,-9.78454303741455
1745732300.3905227,-0.0030447340104728937,-0.0016005939105525613,0.0023345607332885265,0.3541734218597412,0.14118528366088867,-9.758500099182129
1745732300.3945088,0.004934150259941816,-0.0036719590425491333,-2.7906009563594125e-05,0.2096223384141922,0.4960947036743164,-9.740399360656738
1745732300.397052,0.002282534260302782,-0.00033464920124970376,0.001957834931090474,0.2752000093460083,0.12200041115283966,-9.855422973632812
1745732300.3984194,0.0010263340082019567,-0.0019338391721248627,0.0025161798112094402,0.2853206694126129,0.43571463227272034,-9.726855278015137
1745732300.401715,0.01009600330144167,0.0009541466715745628,-0.0003699173394124955,0.22270289063453674,0.2570556104183197,-9.7471284866333
1745732300.4384494,-0.006139346864074469,-0.005150932352989912,0.000988264218904078,0.34046703577041626,0.3038107752799988,-9.798051834106445
1745732300.4388106,0.012784609571099281,8.18837452243315e-06,0.0010591752361506224,0.18439243733882904,0.383259117603302,-9.803277969360352
1745732300.4408486,-0.006803473923355341,-0.002821724396198988,0.0009164221701212227,0.3466108739376068,0.18409697711467743,-9.751049041748047
1745732300.440885,0.008176733739674091,-0.00223135226406157,0.0006844925810582936,0.20773613452911377,0.4756031930446625,-9.741884231567383
1745732300.4783664,2.708025203901343e-05,-0.00014672291581518948,0.0015625603264197707,0.30434465408325195,0.15481925010681152,-9.823941230773926
1745732300.48181,0.0013289644848555326,-0.00412098178640008,0.00014791805006098002,0.2582104802131653,0.48182934522628784,-9.748286247253418
1745732300.4855847,0.00401007616892457,0.0010780959855765104,-1.859636904555373e-05,0.26791247725486755,0.16252365708351135,-9.8403902053833
1745732300.4871042,-0.001275999122299254,-0.0038375831209123135,0.001343131298199296,0.2628724277019501,0.4616760313510895,-9.736615180969238
1745732300.5196586,0.010983182117342949,0.0034622009843587875,0.0010907434625551105,0.2209540158510208,0.2129601687192917,-9.797499656677246
1745732300.5232775,-0.004071224946528673,-0.003043907228857279,-0.0001927181874634698,0.3252658247947693,0.3562626242637634,-9.767427444458008
1745732300.5289702,0.012230445630848408,-4.612030534190126e-05,0.0007458809996023774,0.176617830991745,0.3421385884284973,-9.789227485656738
1745732300.5338817,-0.004275263287127018,-0.0025370456278324127,0.0017512496560811996,0.3535965085029602,0.175283282995224,-9.788567543029785
1745732300.561704,0.011071091517806053,-0.0013064894592389464,-0.0011449495796114206,0.1669047474861145,0.4992029666900635,-9.766816139221191
1745732300.5641458,4.123207327211276e-05,-0.0007287721382454038,0.00180901272688061,0.3039962649345398,0.1067560538649559,-9.814873695373535
1745732300.5671914,0.0011682218173518777,-0.0030578323639929295,0.000679992139339447,0.22929398715496063,0.498779296875,-9.75723648071289
1745732300.5712447,0.008103372529149055,0.0018553053960204124,-0.0006299125961959362,0.2539600729942322,0.1800437569618225,-9.80609130859375
1745732300.5739326,-0.005651249550282955,-0.003687538206577301,-0.0007548091234639287,0.3074861168861389,0.3844728469848633,-9.743375778198242
1745732300.6063771,0.01241463702172041,7.010730769252405e-05,0.00045595853589475155,0.1931970864534378,0.3179040551185608,-9.793206214904785
1745732300.6083243,-0.006498186383396387,-0.0017935819923877716,-0.0002683421189431101,0.33670827746391296,0.22688928246498108,-9.793783187866211
1745732300.6107054,0.00935302209109068,-0.001792475930415094,-0.0007009467808529735,0.17782366275787354,0.42934322357177734,-9.760403633117676
1745732300.6123269,-0.0021737448405474424,0.00023583923757541925,0.00036962321610189974,0.3327977657318115,0.1478443443775177,-9.799585342407227
1745732300.6497989,0.003247702494263649,-0.003581942291930318,0.0008408414432778955,0.22868125140666962,0.49527233839035034,-9.748641967773438
1745732300.6548698,0.0043358891271054745,0.0025016493164002895,0.001378335407935083,0.2693059742450714,0.14312593638896942,-9.812755584716797
1745732300.6580803,-0.004917784593999386,0.0018036635592579842,-0.0009299473604187369,0.35452303290367126,0.15566103160381317,-9.776063919067383
1745732300.6613274,0.006848676595836878,-0.0034813410602509975,0.00249574170447886,0.19858162105083466,0.51262366771698,-9.770766258239746
1745732300.664624,0.0011578903067857027,0.0007946031400933862,-0.00020440085791051388,0.26991868019104004,0.1310151070356369,-9.837926864624023
1745732300.6942067,-0.0005622418830171227,-0.003829617751762271,-0.0008181917364709079,0.27786463499069214,0.4549523890018463,-9.748324394226074
1745732300.6956153,0.00829608179628849,0.0031034916173666716,0.0017698993906378746,0.23720932006835938,0.23695030808448792,-9.789044380187988
1745732300.6979446,-0.008103711530566216,-0.0032329794485121965,0.0003504128544591367,0.32461386919021606,0.320079505443573,-9.7577486038208
1745732300.6991646,0.01158165093511343,0.0001892429281724617,0.0027876333333551884,0.18788592517375946,0.36617639660835266,-9.793935775756836
1745732300.7361002,-0.007256629876792431,0.0006887011113576591,0.0006129005341790617,0.33955568075180054,0.20257660746574402,-9.801900863647461
1745732300.7375278,0.007661562412977219,-0.0007969682337716222,0.00013922322250436991,0.18430764973163605,0.47645944356918335,-9.741351127624512
1745732300.7413695,-0.0014659210573881865,-0.00020238407887518406,0.00040033584809862077,0.3140803873538971,0.12299686670303345,-9.818168640136719
1745732300.7444694,0.00043869949877262115,-0.0022214308846741915,0.001460335566662252,0.2461380958557129,0.5084823369979858,-9.761308670043945
1745732300.784087,0.005742925684899092,0.0023016545455902815,0.0021371464245021343,0.2485416680574417,0.17022116482257843,-9.805276870727539
1745732300.7848423,-0.007776564918458462,-0.0036028027534484863,0.0006582979112863541,0.29653400182724,0.4030269682407379,-9.747344017028809
1745732300.785941,0.01001044549047947,0.0024669920094311237,0.0011661755852401257,0.19208736717700958,0.31621065735816956,-9.814143180847168
1745732300.7860134,-0.008376038633286953,-0.0015660334611311555,0.0011152419028803706,0.34468191862106323,0.25296011567115784,-9.78046989440918
1745732300.7880318,0.009782794862985611,-0.0012944521149620414,0.002192489570006728,0.16154038906097412,0.4587669372558594,-9.752225875854492
1745732300.823917,-0.004871619399636984,0.0006153055583126843,-0.0009893539827317,0.32779237627983093,0.15534907579421997,-9.810019493103027
1745732300.82667,0.004697023890912533,-0.0008355273748748004,0.0013457329478114843,0.22339875996112823,0.5098618865013123,-9.75623607635498
1745732300.8278627,0.003934946842491627,0.003201254876330495,0.0021668565459549427,0.2637256681919098,0.15257689356803894,-9.795717239379883
1745732300.8292449,-0.0046782768331468105,-0.0034272405318915844,0.0023958119563758373,0.28708118200302124,0.42944926023483276,-9.760526657104492
1745732300.868196,0.007306763436645269,0.0026716887950897217,0.0013243205612525344,0.1991942822933197,0.2797170579433441,-9.812128067016602
1745732300.8694348,-0.0105120949447155,-0.0020510677713900805,0.0009509578230790794,0.3415413200855255,0.3041824698448181,-9.78442096710205
1745732300.8700151,0.01008364837616682,0.0008504733559675515,0.003675471292808652,0.1850758045911789,0.41048988699913025,-9.764169692993164
1745732300.872776,-0.005726037081331015,0.00027574464911594987,0.001723508583381772,0.34618571400642395,0.1695757657289505,-9.799189567565918
1745732300.9125268,0.003913631197065115,-0.0006527835503220558,0.0011286067310720682,0.19442163407802582,0.523003876209259,-9.753267288208008
1745732300.9135904,-0.002548783551901579,0.0037657797802239656,0.0014126042369753122,0.2871463894844055,0.11968152225017548,-9.810664176940918
1745732300.9163911,-0.0031804866157472134,-0.0020123454742133617,7.625394209753722e-05,0.25894445180892944,0.49291762709617615,-9.754453659057617
1745732300.9176788,0.007528721354901791,0.0027436192613095045,0.004649244248867035,0.23659396171569824,0.18900439143180847,-9.79655647277832
1745732300.9506228,-0.006418892648071051,-0.0030132688116282225,0.0015751291066408157,0.31565535068511963,0.3462443947792053,-9.756796836853027
1745732300.9533212,0.011026211082935333,0.003114476799964905,0.0019541794899851084,0.1858958601951599,0.38018250465393066,-9.79844856262207
1745732300.96291,-0.010016268119215965,8.812129817670211e-05,0.00151156447827816,0.3502197861671448,0.200942724943161,-9.784345626831055
1745732300.9629803,0.0077087790705263615,-0.0008394108153879642,0.002274035941809416,0.18547973036766052,0.4825606942176819,-9.750970840454102
1745732300.963042,-0.0020027286373078823,0.001263217767700553,0.0021844091825187206,0.3261744976043701,0.13850289583206177,-9.814903259277344
1745732300.9929,0.0007494853925891221,-0.0017156250542029738,0.0020815511234104633,0.23213882744312286,0.48724451661109924,-9.738227844238281
1745732300.993988,0.0041509573347866535,0.002692972542718053,0.0009242167579941452,0.26104751229286194,0.16862183809280396,-9.796771049499512
1745732300.9940329,-0.005778559949249029,-0.0011180407600477338,0.0010708433110266924,0.29278355836868286,0.42746272683143616,-9.741487503051758
1745732300.9957798,0.00443413807079196,0.0018121128669008613,0.0002625749330036342,0.2875630557537079,0.13620713353157043,-9.810449600219727
1745732301.0353386,-0.002061984036117792,-0.0017663318431004882,0.0013300289865583181,0.27252480387687683,0.4534795880317688,-9.719874382019043
1745732301.0391116,0.011617118492722511,0.0007135890191420913,-2.0000687072752044e-05,0.2348649799823761,0.23566384613513947,-9.801813125610352
1745732301.0427296,-0.006835668347775936,-0.0007017542375251651,-0.00015447453188244253,0.3378005623817444,0.3197484016418457,-9.776610374450684
1745732301.0452695,0.013602244667708874,0.0013269889168441296,-0.0003567617095541209,0.1780148446559906,0.4144344925880432,-9.787272453308105
1745732301.04758,-0.005535882897675037,-0.0007020510965958238,-0.0004552556201815605,0.34548309445381165,0.1625969260931015,-9.784332275390625
1745732301.0798893,0.010114912874996662,-0.0015470157377421856,0.000803834933321923,0.20060327649116516,0.4960276484489441,-9.744352340698242
1745732301.0825078,-0.00044102687388658524,0.001499665668234229,0.0008381421794183552,0.3147674798965454,0.12738358974456787,-9.815896987915039
1745732301.083398,0.001413304009474814,-0.0017301436746492982,0.0010235593654215336,0.2537086308002472,0.480867862701416,-9.727832794189453
1745732301.0861201,0.00934602227061987,-3.287382469352451e-06,-0.00025119329802691936,0.24218973517417908,0.1751130074262619,-9.8134126663208
1745732301.1235995,-0.0035801709163933992,-0.0010941706132143736,0.00032927008578553796,0.3048611879348755,0.3973797559738159,-9.77164363861084
1745732301.1277528,0.01049569807946682,0.0008616886916570365,-0.00044874302693642676,0.20002791285514832,0.30840110778808594,-9.788102149963379
1745732301.127835,-0.0063461787067353725,-8.93251271918416e-05,0.0002238058514194563,0.366281121969223,0.2328006774187088,-9.750978469848633
1745732301.1278827,0.010068734176456928,-0.0006252732127904892,0.0008370878058485687,0.17800375819206238,0.4765149652957916,-9.753993034362793
1745732301.130762,-0.0016995032783597708,9.714802581584081e-05,-0.00043827854096889496,0.325507789850235,0.10901318490505219,-9.809767723083496
1745732301.1709719,0.003274672431871295,-0.0019276218954473734,-2.6312034606235102e-05,0.23349687457084656,0.5120143890380859,-9.753225326538086
1745732301.1710353,0.004020968917757273,0.003100703237578273,0.0012702832464128733,0.2729341983795166,0.15556487441062927,-9.813173294067383
1745732301.1722949,-0.0032648637425154448,-0.004394568037241697,0.0004354432749096304,0.281009316444397,0.44233742356300354,-9.727197647094727
1745732301.1744485,0.008958046324551105,0.0009053469402715564,-0.000251197925535962,0.20617882907390594,0.2780555486679077,-9.81386947631836
1745732301.2094436,-0.005487249232828617,-0.0037275701761245728,-0.00035710970405489206,0.30033060908317566,0.3987770676612854,-9.732885360717773
1745732301.2116683,0.010687561705708504,-0.0011963366996496916,0.0007936892216093838,0.20971322059631348,0.3136506676673889,-9.802342414855957
1745732301.213803,-0.007824717089533806,-0.0017651986563578248,0.0006330584292300045,0.35213878750801086,0.2752138674259186,-9.746593475341797
1745732301.216051,0.011077860370278358,-0.003546693827956915,0.0005263140192255378,0.1807260811328888,0.41401416063308716,-9.777506828308105
1745732301.253399,-0.004319129511713982,0.00019510011770762503,0.0005546492175199091,0.3379862904548645,0.17047399282455444,-9.816717147827148
1745732301.255748,0.004112757742404938,-0.0051558963023126125,0.0007988023571670055,0.21353080868721008,0.48820430040359497,-9.748954772949219
1745732301.256908,0.0038361982442438602,-5.817806959385052e-05,0.0006376043893396854,0.3071615695953369,0.11416815221309662,-9.785287857055664
1745732301.2597466,-0.0034920063335448503,-0.005210273899137974,0.0023844074457883835,0.2833077609539032,0.4829847812652588,-9.73760986328125
1745732301.260996,0.009162012487649918,-0.0006931014941073954,0.0013515196042135358,0.22950425744056702,0.22270432114601135,-9.81274700164795
1745732301.2972448,-0.007644678000360727,-0.0017834007740020752,0.00019365371554158628,0.3179187774658203,0.3632468581199646,-9.774491310119629
1745732301.298565,0.012832701206207275,-0.0009982592891901731,-0.0011317956959828734,0.18445271253585815,0.3830108344554901,-9.763574600219727
1745732301.3007138,-0.007723641581833363,-0.0018631154671311378,0.0021111485548317432,0.34929293394088745,0.1971336305141449,-9.7871732711792
1745732301.3039155,0.008524014614522457,-0.004315582569688559,0.0006611669668927789,0.19815507531166077,0.5237220525741577,-9.783895492553711
1745732301.3372498,-0.001660889945924282,0.0008674124255776405,0.001017940230667591,0.32990890741348267,0.11201618611812592,-9.794820785522461
1745732301.3393977,0.0018102144822478294,-0.0055258674547076225,0.0003145095834042877,0.23701532185077667,0.5003212094306946,-9.726386070251465
1745732301.3404753,0.004260530229657888,-0.001821924583055079,0.00019222928676754236,0.2565354108810425,0.20052532851696014,-9.809831619262695
1745732301.3445208,-0.00427856482565403,-0.004560733214020729,-0.00016250197950284928,0.3003287613391876,0.38422635197639465,-9.764703750610352
1745732301.3811183,0.005787034519016743,-0.004754323977977037,0.0009174336446449161,0.22657577693462372,0.5045721530914307,-9.73393726348877
1745732301.3843918,0.003664270043373108,0.0017230293015018106,-0.0010032972786575556,0.2717422842979431,0.1257331669330597,-9.818363189697266
1745732301.388364,-0.002509139012545347,-0.004641342908143997,0.00024253525771200657,0.28109240531921387,0.4553608000278473,-9.761383056640625
1745732301.3947482,0.01068153977394104,-0.0001006217353278771,-0.00010768552601803094,0.21890458464622498,0.2403574436903,-9.816679954528809
1745732301.3948355,-0.007346672005951405,-0.0021891018841415644,-0.00018652148719411343,0.3303413391113281,0.29910287261009216,-9.754870414733887
1745732301.424972,0.01171637512743473,-0.0036519132554531097,-0.00041775862337090075,0.16820518672466278,0.44108742475509644,-9.767983436584473
1745732301.4272418,-0.006461183074861765,-0.0011660882737487555,0.0018720874795690179,0.3220072090625763,0.15894874930381775,-9.806172370910645
1745732301.429893,0.007627725601196289,-0.004325555637478828,-0.0002805704134516418,0.19453288614749908,0.4912711977958679,-9.765202522277832
1745732301.4311316,0.0009830286726355553,0.00048561394214630127,-2.012099230341846e-06,0.3020530641078949,0.14973850548267365,-9.827821731567383
1745732301.4668581,-0.0010993343312293291,-0.004455293994396925,-9.09972659428604e-05,0.25723996758461,0.4572713375091553,-9.72255802154541
1745732301.4702635,0.007409238256514072,0.0003633823071140796,0.0014868362341076136,0.23527970910072327,0.2160579413175583,-9.808516502380371
1745732301.4743888,-0.005182258784770966,-0.003328378079459071,-0.0008220243034884334,0.3163619935512543,0.37029027938842773,-9.763330459594727
1745732301.47726,0.013078396208584309,0.0009983639465644956,0.0011101840063929558,0.19277943670749664,0.31799057126045227,-9.80469799041748
1745732301.4795606,-0.006485144142061472,-0.001932233921252191,0.002187517937272787,0.33517006039619446,0.2530755400657654,-9.787376403808594
1745732301.5110652,0.009639662690460682,-0.0026707779616117477,-0.0005271622212603688,0.18626058101654053,0.461709201335907,-9.755666732788086
1745732301.5125496,-0.0028565581887960434,0.001977748004719615,0.0004822725313715637,0.3298494815826416,0.14071331918239594,-9.837889671325684
1745732301.5133035,0.0042172642424702644,-0.004444892052561045,0.0008010101737454534,0.21362121403217316,0.513884425163269,-9.743894577026367
1745732301.5150743,0.0032319147139787674,0.0009323237463831902,-0.0005231367540545762,0.2821972668170929,0.14367815852165222,-9.785924911499023
1745732301.558622,-0.0019955108873546124,-0.0010867591481655836,0.000530279881786555,0.2845773994922638,0.45638924837112427,-9.771769523620605
1745732301.5608575,0.006847581826150417,0.0036001275293529034,-0.0007744628819637001,0.24621348083019257,0.1634770631790161,-9.809273719787598
1745732301.5649529,-0.004072281531989574,-0.0021394500508904457,0.0012619014596566558,0.3166199326515198,0.38171854615211487,-9.761911392211914
1745732301.5689616,0.011229890398681164,0.0017867727437987924,-0.00041132327169179916,0.1944853514432907,0.31595391035079956,-9.797515869140625
1745732301.5950212,-0.008400285616517067,-0.0009263080428354442,0.002119501354172826,0.3299059569835663,0.2587323784828186,-9.783002853393555
1745732301.599738,0.011227657087147236,-0.00022148776042740792,0.0008286004886031151,0.1893482208251953,0.4345977306365967,-9.775083541870117
1745732301.6020596,-0.0031835262198001146,0.0014254930429160595,-0.00024233318981714547,0.34249797463417053,0.1570282280445099,-9.79234504699707
1745732301.6062775,0.005937027279287577,-0.0022139674983918667,0.000741971074603498,0.21336865425109863,0.49794483184814453,-9.731801986694336
1745732301.6102424,0.0018714104080572724,0.0036926777102053165,0.0009572297567501664,0.291338711977005,0.16310198605060577,-9.819746971130371
1745732301.6409922,-0.0007594199851155281,-0.002433834597468376,0.00036605045897886157,0.2645151913166046,0.4651343822479248,-9.751030921936035
1745732301.644296,0.009157730266451836,0.0037002756725996733,0.0004080947837792337,0.23088936507701874,0.2234538048505783,-9.800732612609863
1745732301.647574,-0.005958923604339361,-0.0020081670954823494,0.0014332240680232644,0.3443191647529602,0.3417859673500061,-9.76047420501709
1745732301.652275,0.010683083906769753,0.00219048373401165,9.270090231439099e-05,0.18463166058063507,0.3857472538948059,-9.771369934082031
1745732301.6850083,-0.006294394843280315,0.00011680340685416013,0.0016665061702951789,0.3405599594116211,0.1841920167207718,-9.8147554397583
1745732301.6858735,0.010607613250613213,-0.000818365253508091,0.0011105595622211695,0.18139100074768066,0.5129629373550415,-9.754676818847656
1745732301.68806,-0.0012146790977567434,0.0027440604753792286,0.0012932524550706148,0.30312493443489075,0.11757560819387436,-9.786794662475586
1745732301.6903586,0.000942810089327395,-0.0011391679290682077,0.0008996388642117381,0.24813953042030334,0.4856385588645935,-9.747276306152344
1745732301.7254612,0.004509259946644306,0.002668724162504077,0.00036718364572152495,0.22293099761009216,0.21324650943279266,-9.810602188110352
1745732301.7282197,-0.0034556672908365726,-0.0034116071183234453,0.002104292158037424,0.2928800880908966,0.4111942648887634,-9.737549781799316
1745732301.7309616,0.009908337146043777,0.0024078539572656155,0.0016709186602383852,0.22473576664924622,0.25559043884277344,-9.772462844848633
1745732301.734262,-0.006685993634164333,-0.0006637275218963623,0.0011421454837545753,0.3488842844963074,0.2797764837741852,-9.762758255004883
1745732301.736665,0.010034470818936825,0.00026132940547540784,0.0018917203415185213,0.16840040683746338,0.4485906958580017,-9.788623809814453
1745732301.7710152,-0.006807020865380764,0.0002946624590549618,0.0018248753622174263,0.35225144028663635,0.13132353127002716,-9.789205551147461
1745732301.7735422,0.0048188380897045135,-0.0020752500277012587,0.000577628321480006,0.2182319164276123,0.5076690912246704,-9.71788215637207
1745732301.7776263,-0.00033938567503355443,0.001658282009884715,0.0018579948227852583,0.3090956211090088,0.13528428971767426,-9.815712928771973
1745732301.7807107,-0.003530512796714902,-0.0024442821741104126,0.001063710660673678,0.2784052789211273,0.4505389332771301,-9.760062217712402
1745732301.8118577,0.008683370426297188,0.0035583428107202053,0.00038517435314133763,0.2215159386396408,0.23772919178009033,-9.796037673950195
1745732301.813569,-0.006683568470180035,-0.0032044071704149246,0.0035147927701473236,0.3311672806739807,0.33189964294433594,-9.738449096679688
1745732301.8164024,0.009026861749589443,0.0018603376811370254,0.001944983028806746,0.1966542750597,0.3499656319618225,-9.787859916687012
1745732301.8195446,-0.00593761820346117,-0.0003437125706113875,0.0017176062101498246,0.34564918279647827,0.22128188610076904,-9.810604095458984
1745732301.8198633,0.006523785647004843,-0.0012310019228607416,0.0020068360026925802,0.20131394267082214,0.4841379225254059,-9.740168571472168
1745732301.855513,-0.0015269856667146087,0.0009745325660333037,0.0020398623310029507,0.3307306170463562,0.12987926602363586,-9.802702903747559
1745732301.8572595,0.001192092546261847,-0.003300206735730171,0.0007600322715006769,0.23435528576374054,0.523478090763092,-9.751473426818848
1745732301.859879,0.005641202442348003,0.00040763308061286807,0.0012864813907071948,0.2769460678100586,0.16534964740276337,-9.84562873840332
1745732301.8614914,-0.003119983710348606,-0.0023496379144489765,0.002487125340849161,0.3090490698814392,0.4237033724784851,-9.731876373291016
1745732301.8990796,0.011730410158634186,-0.0019691106863319874,0.00034458970185369253,0.20792916417121887,0.30453982949256897,-9.774371147155762
1745732301.902917,-0.006591747049242258,-0.0011139309499412775,0.0013104673707857728,0.35092419385910034,0.25639405846595764,-9.791050910949707
1745732301.9067173,0.0124503867700696,-0.0012712717289105058,-0.0004347902722656727,0.18633458018302917,0.45543137192726135,-9.786359786987305
1745732301.9129722,0.005575305782258511,0.0007472485303878784,0.0003117438463959843,0.2581731081008911,0.18518224358558655,-9.8034029006958
1745732301.940479,-0.004269666038453579,-0.005078488495200872,0.0014860955998301506,0.31490060687065125,0.3983725905418396,-9.744512557983398
1745732301.947147,0.012331325560808182,0.00023427538690157235,-0.0007516228361055255,0.19716186821460724,0.3197900950908661,-9.802301406860352
1745732301.949343,-0.005153076257556677,-0.0014733317075297236,0.002475289162248373,0.3435806632041931,0.2431022822856903,-9.776521682739258
1745732301.9577496,0.011336421594023705,-0.0012400425039231777,-0.0008425514097325504,0.19099894165992737,0.4739346504211426,-9.754988670349121
1745732301.9609716,-0.0008537575486116111,-0.0012263646349310875,0.0016989534487947822,0.3254829943180084,0.13888701796531677,-9.803452491760254
1745732301.9867063,0.003375314176082611,-0.0037714361678808928,0.00019746860198210925,0.2157423496246338,0.4974935054779053,-9.757955551147461
1745732301.9892976,0.0052777668461203575,0.0010668279137462378,0.0012536189751699567,0.27878788113594055,0.15114203095436096,-9.814068794250488
1745732301.9933877,-0.0028432265389710665,-0.0046526589430868626,0.00043231938616372645,0.27953383326530457,0.4455276131629944,-9.724069595336914
1745732301.9975226,0.012169302441179752,0.00016671740741003305,4.172106127953157e-05,0.21558800339698792,0.2436615526676178,-9.803153038024902
1745732302.0289464,-0.005632191896438599,-0.0022303699515759945,6.201859650900587e-05,0.3363620638847351,0.30616042017936707,-9.786344528198242
1745732302.0325558,0.01181632187217474,-0.001892617903649807,3.364216581758228e-06,0.17282602190971375,0.39153414964675903,-9.75861930847168
1745732302.0333753,-0.005682532675564289,-0.0009546157671138644,-0.0002295520098414272,0.3528432250022888,0.19797174632549286,-9.788719177246094
1745732302.0374088,0.007409249432384968,-0.0034472148399800062,0.0001782073377398774,0.19468636810779572,0.49841123819351196,-9.742223739624023
1745732302.0732424,0.000504992320202291,0.00033963960595428944,0.0012924789916723967,0.3043670058250427,0.13367584347724915,-9.804045677185059
1745732302.0755808,-0.0021726989652961493,-0.0039645005017519,-0.0010441808262839913,0.241824671626091,0.4965605139732361,-9.741506576538086
1745732302.077916,-0.006741320248693228,-0.0034262551926076412,-0.0008731642737984657,0.34156331419944763,0.28965693712234497,-9.795147895812988
1745732302.0802624,0.012237406335771084,-0.0003148059477098286,0.0005104656447656453,0.17591874301433563,0.443046510219574,-9.79588794708252
1745732302.112422,-0.0050537968054413795,-0.0011849402217194438,0.0009790787007659674,0.34064507484436035,0.1476183384656906,-9.793609619140625
1745732302.1225688,0.005965471733361483,-0.003716767532750964,0.0017307333182543516,0.20972362160682678,0.5069007873535156,-9.713630676269531
1745732302.1227167,0.0025240874383598566,0.0016982614761218429,0.001300474046729505,0.2899290919303894,0.1264161467552185,-9.815973281860352
1745732302.1228168,-0.00022752396762371063,-0.0032011158764362335,0.0011891424655914307,0.2632810175418854,0.4781612455844879,-9.77647876739502
1745732302.1228929,0.009286591783165932,0.001521249650977552,0.0019786390475928783,0.21541504561901093,0.22332985699176788,-9.799932479858398
1745732302.1589856,-0.007687444798648357,-0.0040505751967430115,0.0004093361203558743,0.33093056082725525,0.31733107566833496,-9.73271369934082
1745732302.1623218,0.010965281166136265,-0.0001650414924370125,0.0013336052652448416,0.18509428203105927,0.36928075551986694,-9.794745445251465
1745732302.1650813,-0.005826583597809076,-0.0009290159796364605,0.000488806632347405,0.3370184004306793,0.17814718186855316,-9.816141128540039
1745732302.1693244,0.00872756727039814,-0.0012191811110824347,0.0012668711133301258,0.17740824818611145,0.47908005118370056,-9.758661270141602
1745732302.1981485,-0.0022318216506391764,-0.0008001948008313775,-0.00033673743018880486,0.317994087934494,0.12960316240787506,-9.802435874938965
1745732302.2016532,0.001009114203043282,-0.0031727501191198826,0.002485873643308878,0.23735669255256653,0.489292711019516,-9.742725372314453
1745732302.2059088,0.006598539650440216,0.0020331782288849354,0.0006519161397591233,0.26304563879966736,0.15795788168907166,-9.827779769897461
1745732302.218654,-0.00531796645373106,-0.004035537596791983,0.001802062033675611,0.3051103353500366,0.40740036964416504,-9.742612838745117
1745732302.2187843,0.012086845003068447,0.00019330190843902528,0.0014269879320636392,0.19365441799163818,0.286716490983963,-9.781192779541016
1745732302.2464454,-0.008448753505945206,-0.0006047495407983661,0.002145437989383936,0.3462517261505127,0.24591580033302307,-9.783842086791992
1745732302.2465727,0.009018627926707268,-0.0009609912522137165,0.00133788853418082,0.17238612473011017,0.44277167320251465,-9.777902603149414
1745732302.246672,-0.0037938877940177917,4.4966676796320826e-05,6.498336006188765e-05,0.324087530374527,0.1328175961971283,-9.804078102111816
1745732302.2491539,0.006187806371599436,-0.004778726492077112,0.0021069024223834276,0.20291395485401154,0.5092331171035767,-9.737531661987305
1745732302.2846234,0.004021600820124149,0.0015051061054691672,0.001576273120008409,0.2835049331188202,0.13143102824687958,-9.8191556930542
1745732302.2861521,-0.007393944077193737,-0.0027651635464280844,0.0019180126255378127,0.31730738282203674,0.3791273236274719,-9.732782363891602
1745732302.2885802,0.01193682849407196,0.000629622838459909,0.0007251698989421129,0.1959698647260666,0.3342180848121643,-9.797184944152832
1745732302.291202,-0.0065317414700984955,0.00010619023669278249,0.0012974648270756006,0.34345778822898865,0.2438565492630005,-9.784661293029785
1745732302.2945387,0.00926990993320942,-0.0020124490838497877,0.0010405855719000101,0.17851261794567108,0.471794992685318,-9.769025802612305
1745732302.332142,-0.0023533753119409084,0.0015911221271380782,0.0012575745349749923,0.33385542035102844,0.1248307004570961,-9.807759284973145
1745732302.332207,0.0032156668603420258,-0.002850261749699712,0.0016852928092703223,0.21588385105133057,0.5107630491256714,-9.751164436340332
1745732302.3334887,0.004208511207252741,0.001361020840704441,0.0023594661615788937,0.280770868062973,0.15902194380760193,-9.82252025604248
1745732302.3361166,-0.004202704876661301,-0.002531345235183835,0.0007867654785513878,0.2757984399795532,0.43958187103271484,-9.739477157592773
1745732302.3718739,0.010216829366981983,0.0013128288555890322,0.00020202927407808602,0.2041047066450119,0.26910847425460815,-9.792009353637695
1745732302.3731475,-0.007614956237375736,-0.0018871774664148688,0.0020642350427806377,0.33906710147857666,0.28108593821525574,-9.760343551635742
1745732302.3827498,0.01094787660986185,-0.001518157427199185,0.0013782060705125332,0.1957676261663437,0.4201039671897888,-9.79607105255127
1745732302.382859,-0.004690388683229685,0.001030737766996026,0.0009511345997452736,0.3370930254459381,0.17811697721481323,-9.80474853515625
1745732302.4143505,0.004680470563471317,-0.0021602394990622997,0.0015096095157787204,0.19560606777668,0.5051547884941101,-9.73352336883545
1745732302.4177465,-0.0005961119895800948,0.0010809979867190123,0.001677728840149939,0.3105134069919586,0.12262164056301117,-9.82708740234375
1745732302.420691,-0.0010935247410088778,-0.00184850231744349,-0.00019169373263139278,0.2550782561302185,0.4840668737888336,-9.760011672973633
1745732302.4281213,-0.00705073494464159,-0.0002602938038762659,0.0008233241969719529,0.3584645390510559,0.2682134509086609,-9.784646987915039
1745732302.4586952,0.012916503474116325,-0.0008728244574740529,0.002359244739636779,0.19001638889312744,0.4525396227836609,-9.77859115600586
1745732302.4607737,-0.0036177479196339846,-0.0003880084550473839,0.00010618902888381854,0.33029571175575256,0.14219745993614197,-9.781473159790039
1745732302.4653194,0.002971967216581106,-0.002978511620312929,0.0023833170998841524,0.21808156371116638,0.49100393056869507,-9.735581398010254
1745732302.46975,0.005760996136814356,0.002329253824427724,0.00029643336893059313,0.2813744843006134,0.13547660410404205,-9.839330673217773
1745732302.475295,-0.002827622462064028,-0.0028379163704812527,0.0031009307131171227,0.2721094787120819,0.4608817994594574,-9.74405574798584
1745732302.5021327,0.00750392023473978,0.0004602936969604343,0.0014841227093711495,0.21622057259082794,0.24378958344459534,-9.806142807006836
1745732302.5034573,-0.004588519688695669,-0.00045123364543542266,0.002072020899504423,0.33678746223449707,0.30691638588905334,-9.760107040405273
1745732302.5055125,0.011781178414821625,-0.0004906569374725223,0.0022454436402767897,0.17680028080940247,0.3986121714115143,-9.786199569702148
1745732302.509019,-0.0054192934185266495,-8.550379425287247e-05,-0.0002620090381242335,0.35537534952163696,0.16998091340065002,-9.804494857788086
1745732302.5433753,0.007703638169914484,-0.0021941172890365124,0.0024927365593612194,0.2073262482881546,0.50312340259552,-9.750749588012695
1745732302.5447385,-4.9539561587153e-05,0.002003861591219902,0.0016428005183115602,0.2974557876586914,0.14284317195415497,-9.813353538513184
1745732302.547207,0.0006465466576628387,-0.002618348691612482,0.0021029880736023188,0.2655709385871887,0.470348596572876,-9.7427339553833
1745732302.549692,0.00826848391443491,0.002917850622907281,0.0017079223180189729,0.24277691543102264,0.20116667449474335,-9.82044792175293
1745732302.5881119,-0.006102296523749828,-0.004138629417866468,0.0013608505250886083,0.3064141869544983,0.35979804396629333,-9.742337226867676
1745732302.5909355,0.01209769956767559,0.0020935058128088713,0.0005152343073859811,0.1938505917787552,0.33168265223503113,-9.786484718322754
1745732302.5938816,-0.007537424564361572,0.0013769237557426095,0.001032903790473938,0.34385383129119873,0.23114633560180664,-9.7920503616333
1745732302.5968115,0.010295252315700054,-0.004087831359356642,0.0002846941933967173,0.19834351539611816,0.44571322202682495,-9.75164794921875
1745732302.6292741,-0.0016814528498798609,0.0015646647661924362,0.0003094764251727611,0.3262031674385071,0.13309356570243835,-9.804064750671387
1745732302.6313398,0.002523828763514757,-0.0031691219191998243,0.0025026039220392704,0.23740699887275696,0.5077230930328369,-9.738344192504883
1745732302.6325712,-0.005373496096581221,-0.0024735089391469955,0.0014844827819615602,0.33094239234924316,0.3564003109931946,-9.766214370727539
1745732302.6344337,0.012313654646277428,-0.0006029639625921845,0.000867105380166322,0.1889190375804901,0.33798837661743164,-9.76259708404541
1745732302.6370742,-0.006727498956024647,-0.0014917474472895265,0.0007121305097825825,0.3614722490310669,0.21273019909858704,-9.786015510559082
1745732302.6728127,0.009797798469662666,-0.0018297655042260885,0.0019742536824196577,0.17766906321048737,0.47249263525009155,-9.777975082397461
1745732302.6746855,-0.0006846835021860898,0.001027663005515933,0.001122046960517764,0.3217028081417084,0.12680955231189728,-9.808074951171875
1745732302.675933,0.0017710927641019225,-0.0011697892332449555,0.0022798951249569654,0.24501867592334747,0.49355465173721313,-9.725847244262695
1745732302.6777167,0.005270727444440126,0.0001587399310665205,0.001281108008697629,0.26570597290992737,0.19572573900222778,-9.82015323638916
1745732302.7168422,-0.003587566316127777,-0.0037669469602406025,0.0011979240225628018,0.286967933177948,0.3930607736110687,-9.76330852508545
1745732302.72086,0.011035062372684479,0.0017854736652225256,0.000292998127406463,0.20175763964653015,0.3092038035392761,-9.782259941101074
1745732302.7238932,-0.008580045774579048,-0.00042948772897943854,0.0024016231764107943,0.3422061502933502,0.23603563010692596,-9.776876449584961
1745732302.728089,0.010143431834876537,-0.002090926980599761,0.0028918934985995293,0.17893925309181213,0.45386067032814026,-9.767536163330078
1745732302.7315962,-0.0029127546586096287,0.0014077496016398072,-0.0009334487840533257,0.3330364525318146,0.15825071930885315,-9.809320449829102
1745732302.7616127,0.005221080966293812,-0.001837217598222196,0.003124417969956994,0.21935169398784637,0.517789363861084,-9.727304458618164
1745732302.7647946,0.0022037262097001076,0.00029827276011928916,0.003620736300945282,0.28938165307044983,0.12178029865026474,-9.813981056213379
1745732302.769332,-0.0002955239324364811,-0.002374837640672922,0.0006964165950194001,0.2881964147090912,0.44713202118873596,-9.76091194152832
1745732302.7707245,0.008147216401994228,0.0010864684591069818,0.0007134847110137343,0.22326898574829102,0.25774383544921875,-9.81279182434082
1745732302.801922,0.01098684687167406,0.0010895172599703074,0.001358394743874669,0.17598244547843933,0.362517774105072,-9.77659797668457
1745732302.8065233,-0.007024710066616535,-0.001760268583893776,0.002613141667097807,0.32682597637176514,0.2037876546382904,-9.79979419708252
1745732302.8110104,0.007809779141098261,-0.0012939868029206991,-0.00022231721959542483,0.19043314456939697,0.47123751044273376,-9.751163482666016
1745732302.811829,-0.0020552349742501974,-0.00032471882877871394,0.0005379781359806657,0.3092283606529236,0.12916438281536102,-9.802678108215332
1745732302.811884,0.0016614055493846536,-0.0015472832601517439,0.001618536887690425,0.2347555160522461,0.49752259254455566,-9.730238914489746
1745732302.8453748,0.0049945577047765255,0.0022562926169484854,0.0021823730785399675,0.2758546471595764,0.14413273334503174,-9.808381080627441
1745732302.847899,-0.004195785615593195,-0.0017816986655816436,0.0005675998399965465,0.2851826250553131,0.4122839868068695,-9.739740371704102
1745732302.8493552,0.009518302977085114,0.0004909827257506549,0.0009971798863261938,0.1979341208934784,0.2912721037864685,-9.801911354064941
1745732302.8512352,-0.007747767027467489,-0.0018999080639332533,0.0009212715667672455,0.3412202298641205,0.2525118887424469,-9.762484550476074
1745732302.889675,0.01167245116084814,-0.00013885860971640795,0.001499714097008109,0.18312498927116394,0.4251668453216553,-9.746805191040039
1745732302.8927982,-0.004311629105359316,-0.0009162455680780113,0.0019498461624607444,0.3350849151611328,0.146723672747612,-9.794313430786133
1745732302.89471,0.004110714420676231,-0.0026220008730888367,0.0016332113882526755,0.20203609764575958,0.5150968432426453,-9.761823654174805
1745732302.9027884,0.0025068565737456083,0.0011348259868100286,-0.00012218482152093202,0.279365599155426,0.14555346965789795,-9.817697525024414
1745732302.9316685,-0.0025137877091765404,-0.0024019801057875156,0.001362331910058856,0.2703842520713806,0.4513738751411438,-9.744169235229492
1745732302.9364207,0.008460824377834797,-0.0008297720924019814,0.0009861234575510025,0.210064098238945,0.22453001141548157,-9.797327041625977
1745732302.9377341,-0.007961418479681015,-0.0013455154839903116,0.00012316135689616203,0.33904212713241577,0.3260268568992615,-9.731285095214844
1745732302.9499362,0.011563412845134735,0.0010172963375225663,0.000808525481261313,0.17633773386478424,0.4007905125617981,-9.79041576385498
1745732302.949988,-0.008581701666116714,-0.0017656655982136726,0.0004757166316267103,0.34462425112724304,0.1937907636165619,-9.808038711547852
1745732302.9750478,0.008588229306042194,-0.00013589287118520588,-0.0003949544043280184,0.19409623742103577,0.4681028425693512,-9.744693756103516
1745732302.9779963,-0.0014260208699852228,0.0006699002115055919,0.00127433892339468,0.31781482696533203,0.13619688153266907,-9.809429168701172
1745732302.9794135,-0.007747826632112265,-0.003176452126353979,-3.227852357667871e-05,0.33879175782203674,0.3018870949745178,-9.770265579223633
1745732302.9805138,0.010784157551825047,-0.0012287867721170187,0.0008895359933376312,0.18068280816078186,0.39659082889556885,-9.788946151733398
1745732303.018871,-0.005972806364297867,0.00036786720738746226,0.0013067431282252073,0.36117228865623474,0.18693289160728455,-9.788496017456055
1745732303.0215554,0.005309869069606066,-0.001745029934681952,0.0013488251715898514,0.19197097420692444,0.4999377727508545,-9.733186721801758
1745732303.0245671,9.211897850036621e-05,0.001526975422166288,-0.00014290287799667567,0.2991788983345032,0.14784535765647888,-9.830410957336426
1745732303.0276253,-0.00020643099560402334,-0.003336045192554593,0.0012895942199975252,0.2581455707550049,0.4860343933105469,-9.752789497375488
1745732303.058995,0.007760549895465374,0.0023999919649213552,-3.372505307197571e-05,0.23742565512657166,0.19019506871700287,-9.795232772827148
1745732303.0624878,-0.007608225103467703,-0.002318715211004019,0.0016627286095172167,0.3219755291938782,0.3785436451435089,-9.751691818237305
1745732303.0697343,0.010090299881994724,0.0004220165719743818,0.00023742622579447925,0.18912994861602783,0.3578121066093445,-9.826866149902344
1745732303.0709212,-0.0066214739345014095,-0.0011552998330444098,0.000854543992318213,0.34472763538360596,0.20317140221595764,-9.769450187683105
1745732303.0710125,0.008012617006897926,-0.0021831768099218607,0.000408028659876436,0.18289263546466827,0.48087865114212036,-9.728132247924805
1745732303.106005,-0.0024809124879539013,-0.0006022534798830748,0.002280969638377428,0.3300228416919708,0.13174788653850555,-9.798856735229492
1745732303.1163006,0.0032175208907574415,-0.0038924801629036665,0.0001351143146166578,0.23746538162231445,0.516019344329834,-9.746274948120117
1745732303.116432,0.004855770617723465,0.001470776041969657,0.0021025885362178087,0.2692081332206726,0.17068421840667725,-9.808631896972656
1745732303.1164987,-0.004568871110677719,-0.0029228869825601578,0.0019934719894081354,0.29229483008384705,0.40859103202819824,-9.765172004699707
1745732303.1445565,0.010674168355762959,-0.0002895427751354873,0.0007376113790087402,0.20193561911582947,0.3139967918395996,-9.784036636352539
1745732303.1493526,0.013051864691078663,0.00026602260186336935,0.0010310123907402158,0.16707821190357208,0.4255012571811676,-9.776759147644043
1745732303.1532521,-0.004732400178909302,-0.001729894196614623,0.001692573307082057,0.3571648895740509,0.15254302322864532,-9.784592628479004
1745732303.1556244,0.0062598115764558315,-0.0034209848381578922,0.0006777714006602764,0.18810860812664032,0.5234233736991882,-9.758193969726562
1745732303.1602972,-0.0001650283084018156,0.0022911292035132647,0.0015806915471330285,0.2906651794910431,0.13420423865318298,-9.817022323608398
1745732303.1900392,0.0013869116082787514,-0.003720478620380163,0.0019526444375514984,0.25177115201950073,0.4785982668399811,-9.740803718566895
1745732303.191729,0.008583353832364082,0.0015793967759236693,0.000868737231940031,0.24310848116874695,0.21531358361244202,-9.809744834899902
1745732303.195154,-0.004900116007775068,-0.0033826963044703007,0.001194234355352819,0.3170815110206604,0.36361464858055115,-9.761491775512695
1745732303.1991098,0.012630730867385864,0.0006703622057102621,0.0027659875340759754,0.18132972717285156,0.34249505400657654,-9.784930229187012
1745732303.2344146,-0.007202428765594959,-0.0025036667939275503,0.0019975309260189533,0.35210567712783813,0.21782608330249786,-9.780513763427734
1745732303.2358878,0.007938013412058353,9.081493772100657e-05,0.0011538721155375242,0.16958656907081604,0.47653883695602417,-9.782020568847656
1745732303.2389472,-0.0006994895520620048,-2.019805833697319e-05,0.003123499685898423,0.3358752131462097,0.12699846923351288,-9.808510780334473
1745732303.2441337,0.0020785355009138584,-0.0032763537019491196,-0.00023259222507476807,0.2341953068971634,0.515375018119812,-9.747769355773926
1745732303.2790375,0.006809598300606012,0.0020996122620999813,0.0031088932882994413,0.26080450415611267,0.1561792492866516,-9.823182106018066
1745732303.2791452,-0.002855508355423808,-0.003765904111787677,0.000872952223289758,0.2880651354789734,0.41115546226501465,-9.737401962280273
1745732303.2813566,0.011087954975664616,0.002338903024792671,-0.00024059033603407443,0.20292465388774872,0.2924802303314209,-9.808430671691895
1745732303.2848043,-0.0060952333733439445,-0.0027717561461031437,0.001585748395882547,0.33957257866859436,0.26829102635383606,-9.768494606018066
1745732303.2872267,0.01122551690787077,-0.00029948438168503344,0.0018009630730375648,0.1781005561351776,0.4429713189601898,-9.764222145080566
1745732303.3233936,-0.003335722489282489,-0.0008011526660993695,-0.0005789152346551418,0.34555521607398987,0.1495743691921234,-9.810422897338867
1745732303.3234518,0.006292311009019613,-0.0028893190901726484,0.002048641908913851,0.20584121346473694,0.4889605641365051,-9.763772964477539
1745732303.3279705,0.00405572634190321,0.0014913392951712012,-0.00010160286910831928,0.2894095778465271,0.1656394600868225,-9.810769081115723
1745732303.332819,-0.0065272217616438866,0.00033832754706963897,-0.00038277808926068246,0.3520728647708893,0.2294892519712448,-9.787958145141602
1745732303.362595,0.010862058028578758,-0.0008724878425709903,-2.5585535695427097e-05,0.18856167793273926,0.4450785219669342,-9.76479721069336
1745732303.3670595,-0.00488088047131896,-0.001519160927273333,0.0005738011677749455,0.3351299464702606,0.13165529072284698,-9.782754898071289
1745732303.3671157,0.005419587250798941,-0.002120473189279437,0.0012663030065596104,0.22910209000110626,0.4971234202384949,-9.757525444030762
1745732303.3703241,0.004987652413547039,0.0011388743296265602,0.0002054865035461262,0.26975440979003906,0.1734212189912796,-9.82675552368164
1745732303.4054286,-0.0030214895959943533,-0.00438309833407402,0.00022563869424629956,0.29110345244407654,0.4231836199760437,-9.746272087097168
1745732303.407348,0.010220425203442574,0.0018501300364732742,0.0016301192808896303,0.21220454573631287,0.2584614157676697,-9.806461334228516
1745732303.4097824,-0.005418167915195227,-0.0016159506049007177,0.0012556187575682998,0.34588658809661865,0.29701411724090576,-9.78877067565918
1745732303.4115934,0.0099400095641613,-0.0008308989927172661,0.0007116321357898414,0.17105360329151154,0.4147673547267914,-9.773103713989258
1745732303.415006,-0.003147832350805402,-0.00018920032016467303,0.0004917484475299716,0.3501662313938141,0.1579744815826416,-9.783720970153809
1745732303.4507666,0.00581356231123209,-0.0029943063855171204,0.0007561678648926318,0.21620838344097137,0.49118703603744507,-9.753660202026367
1745732303.4508805,0.0014104845467954874,0.0015441728755831718,-0.0006686231354251504,0.310624361038208,0.1279011368751526,-9.818482398986816
1745732303.4532092,0.0012144831707701087,-0.002507657976821065,0.0005005589919164777,0.24702635407447815,0.4797114431858063,-9.751462936401367
1745732303.4545357,0.008669771254062653,0.0006786260055378079,0.0005922990385442972,0.2339952439069748,0.21676519513130188,-9.818138122558594
1745732303.4912724,-0.005917743779718876,-0.003733633551746607,0.0004504648095462471,0.3199310600757599,0.3409866392612457,-9.737409591674805
1745732303.4944155,0.011422247625887394,0.000819380977191031,0.0008423753315582871,0.19143733382225037,0.3673582077026367,-9.777653694152832
1745732303.4991763,-0.00585698988288641,-0.0007974199834279716,0.0010194418719038367,0.3443479537963867,0.24677367508411407,-9.762374877929688
1745732303.5013957,0.007573469076305628,-0.0020441359374672174,0.0023021313827484846,0.1690681129693985,0.47147050499916077,-9.800834655761719
1745732303.532904,-0.003989061806350946,0.000818847503978759,-0.0019792562816292048,0.324047327041626,0.14419257640838623,-9.805861473083496
1745732303.5357382,0.003795858472585678,-0.0015073843533173203,0.002034001052379608,0.23655731976032257,0.49908891320228577,-9.717328071594238
1745732303.5368896,0.003728751093149185,-8.57325503602624e-05,-0.0002586311020422727,0.26220545172691345,0.1807294487953186,-9.816106796264648
1745732303.5387642,-0.0036133355461061,-0.0032553519122302532,0.001405787654221058,0.2806035876274109,0.4186400771141052,-9.774620056152344
1745732303.540674,0.00807221606373787,0.000926744076423347,0.00014408941206056625,0.21202822029590607,0.27366089820861816,-9.806455612182617
1745732303.577841,-0.0068553052842617035,-0.0033456471282988787,0.00103873445186764,0.33466488122940063,0.2955645024776459,-9.731305122375488
1745732303.5812905,0.012095029465854168,0.000870394054800272,0.001027696649543941,0.18513977527618408,0.41090264916419983,-9.776723861694336
1745732303.5843778,-0.0038377277087420225,7.439409091603011e-05,-0.00017046167340595275,0.3346950113773346,0.17051026225090027,-9.846421241760254
1745732303.5859165,0.004827629774808884,-0.0021499849390238523,0.0007331692613661289,0.18180768191814423,0.5066371560096741,-9.72658920288086
1745732303.6196058,0.0017566423630341887,0.001384090748615563,0.0010939743369817734,0.29854899644851685,0.12898536026477814,-9.800642013549805
1745732303.6222916,-0.002414469374343753,-0.002297475002706051,8.803992386674508e-05,0.25905323028564453,0.47962474822998047,-9.778468132019043
1745732303.6262646,0.007029886357486248,0.0021083583123981953,0.0002870263415388763,0.21653172373771667,0.21646706759929657,-9.814085960388184
1745732303.6263769,-0.006027602590620518,-0.0031016054563224316,0.000595936959143728,0.3079131543636322,0.3633153438568115,-9.726705551147461
1745732303.6304977,0.00850873626768589,0.0007050140993669629,0.001580894342623651,0.19967342913150787,0.36586183309555054,-9.780766487121582
1745732303.6653368,-0.007406591437757015,-0.0007793543045409024,0.0010591767495498061,0.3427966237068176,0.20368047058582306,-9.803452491760254
1745732303.6684375,0.008888304233551025,-0.0014507730957120657,0.0012072016252204776,0.1834929883480072,0.4928634762763977,-9.751541137695312
1745732303.6712608,-0.0024017724208533764,0.0003726246359292418,0.0011935736984014511,0.3152521252632141,0.12828508019447327,-9.799958229064941
1745732303.6739862,0.0012300300877541304,-0.001394298393279314,0.0018629694823175669,0.2376268357038498,0.5068435668945312,-9.74103832244873
1745732303.7069604,-0.006773726083338261,0.00048346639960072935,0.0028205702546983957,0.3430885672569275,0.150929257273674,-9.801434516906738
1745732303.707917,0.006725582294166088,0.0001408750395057723,0.0023638776037842035,0.2022872418165207,0.48616164922714233,-9.741073608398438
1745732303.7098653,0.000344134314218536,0.0020434383768588305,0.000807633507065475,0.3096943497657776,0.12087796628475189,-9.801368713378906
1745732303.7119546,-0.0009198935586027801,-0.002320586470887065,0.0022472026757895947,0.2501104772090912,0.4787251353263855,-9.747142791748047
1745732303.7484756,0.008124634623527527,0.0017065306892618537,0.0013540694490075111,0.22457890212535858,0.20974214375019073,-9.809152603149414
1745732303.7515764,-0.007125506643205881,-0.0018672812730073929,0.002759247086942196,0.3398149013519287,0.3464624285697937,-9.739859580993652
1745732303.755905,0.010059517808258533,0.002265268238261342,0.0012542285257950425,0.19991444051265717,0.34679749608039856,-9.81445598602295
1745732303.7644787,-0.005140629597008228,-0.000621116952970624,0.0006402894505299628,0.34662556648254395,0.22944962978363037,-9.797080993652344
1745732303.7645295,0.008612528443336487,-0.002978722797706723,0.0012900595320388675,0.1892433613538742,0.47831955552101135,-9.74232006072998
1745732303.7917905,-0.00270935520529747,0.002819740679115057,0.002251959405839443,0.31608328223228455,0.14979544281959534,-9.807890892028809
1745732303.7969913,0.001766909845173359,-0.0033700678031891584,0.0009916444541886449,0.23942124843597412,0.48932331800460815,-9.7722806930542
1745732303.7975526,0.005375353153795004,0.002950685564428568,0.0014664172194898129,0.27483344078063965,0.1694251149892807,-9.818249702453613
1745732303.800043,-0.0037794350646436214,-0.003254906740039587,0.00217537023127079,0.2812541127204895,0.436257928609848,-9.726045608520508
1745732303.8361845,0.00979925412684679,0.0009573718416504562,0.0013713344233110547,0.2018018662929535,0.3010473847389221,-9.791570663452148
1745732303.83924,-0.005782352294772863,-0.0010485232342034578,-0.00018498083227314055,0.34670761227607727,0.26689696311950684,-9.79857349395752
1745732303.8420134,0.009673720225691795,0.0008978726109489799,0.002248321194201708,0.1825498342514038,0.4241970479488373,-9.772443771362305
1745732303.846128,-0.005875315982848406,-0.001322261057794094,0.0011938943061977625,0.3471417725086212,0.17168672382831573,-9.770986557006836
1745732303.8818316,0.007579326629638672,0.0005005301791243255,0.001120165572501719,0.19700688123703003,0.4893595278263092,-9.754887580871582
1745732303.8844635,0.0010558005888015032,0.0013414316345006227,0.0018110796809196472,0.3100125789642334,0.1344444900751114,-9.837628364562988
1745732303.887315,0.0002475373330526054,-0.0033986486960202456,0.0005816229386255145,0.25862544775009155,0.47041207551956177,-9.735733032226562
1745732303.8886797,0.008555946871638298,0.001656977809034288,0.0008807863341644406,0.22850573062896729,0.21894848346710205,-9.791242599487305
1745732303.922181,-0.007311227731406689,-0.0016075627645477653,0.0006601318600587547,0.3180882930755615,0.353811651468277,-9.791189193725586
1745732303.9298978,0.012086955830454826,0.000444475474068895,2.670343928912189e-05,0.18633174896240234,0.3639102578163147,-9.80052661895752
1745732303.9300268,-0.007725785486400127,0.0007318429998122156,0.0006323216948658228,0.34886816143989563,0.19379517436027527,-9.74833869934082
1745732303.9322562,0.00902698002755642,-0.001726370071992278,0.0010229016188532114,0.19494163990020752,0.4945867657661438,-9.758601188659668
1745732303.9324005,-0.0017889501759782434,0.0014951740158721805,0.0019677148666232824,0.3094707429409027,0.12580423057079315,-9.83678913116455
1745732303.9668236,0.0045388974249362946,-0.004674074240028858,0.00030513026285916567,0.24322526156902313,0.503592312335968,-9.73247241973877
1745732303.9696,0.0040193768218159676,0.002183564705774188,-3.887340426445007e-06,0.2499983310699463,0.18155650794506073,-9.810284614562988
1745732303.9735634,-0.0018391981720924377,-0.0019595976918935776,0.002192151267081499,0.29418593645095825,0.3895644545555115,-9.754932403564453
1745732303.9766564,0.010029340162873268,0.00018784384883474559,0.001040667062625289,0.2018469274044037,0.31441712379455566,-9.805289268493652
1745732304.006587,-0.006115453317761421,-0.002685201121494174,0.0008497145026922226,0.3457646071910858,0.26761487126350403,-9.78328800201416
1745732304.0097208,0.00882613193243742,-0.0007008666289038956,0.00042481202399358153,0.18126875162124634,0.4319666922092438,-9.758001327514648
1745732304.0129547,-0.003610557410866022,0.0003567483799997717,0.0005526943714357913,0.338186115026474,0.14113475382328033,-9.801798820495605
1745732304.017901,0.005659451242536306,-0.0014126973692327738,-0.00014750330592505634,0.21516180038452148,0.5085261464118958,-9.75262451171875
1745732304.0204954,0.0007535403710789979,0.0013971689622849226,0.0018330992897972465,0.2911762297153473,0.1486496478319168,-9.80161190032959
1745732304.0534458,-0.0038673586677759886,0.0023201860021799803,0.0012670597061514854,0.3104972839355469,0.15078771114349365,-9.822515487670898
1745732304.0541337,0.0026873203460127115,-0.005447981879115105,0.001200587023049593,0.21929049491882324,0.5303488373756409,-9.762747764587402
1745732304.055358,0.00368954474106431,0.001911871717311442,0.0009489674121141434,0.2722088396549225,0.14231474697589874,-9.799334526062012
1745732304.056625,-0.00559172872453928,-0.002694270107895136,0.0031136278994381428,0.293343186378479,0.43633365631103516,-9.75218677520752
1745732304.096527,0.011679009534418583,0.0005272963317111135,0.0004981640377081931,0.20305559039115906,0.3048192858695984,-9.794514656066895
1745732304.0966253,-0.007311762776225805,-0.0008235162240453064,0.0013042476493865252,0.3412352204322815,0.2679430842399597,-9.768470764160156
1745732304.098114,0.010799904353916645,-0.002086326014250517,-0.0006232779705896974,0.16254942119121552,0.4315865635871887,-9.787736892700195
1745732304.101454,-0.004772794432938099,0.00036708885454572737,0.0027747817803174257,0.3444940149784088,0.1546521931886673,-9.79474925994873
1745732304.1377575,0.007935667410492897,-0.000927891000173986,9.690118167782202e-05,0.21836380660533905,0.49950724840164185,-9.733819961547852
1745732304.1393456,-0.0008173087844625115,1.2749992492899764e-05,0.0004895347519777715,0.29552072286605835,0.15105408430099487,-9.827357292175293
1745732304.14312,0.0006182010984048247,-0.004216117784380913,0.0017777553293853998,0.2528899908065796,0.4891791343688965,-9.744546890258789
1745732304.144891,0.007176422514021397,0.0024214074946939945,0.001554036745801568,0.21675261855125427,0.22155150771141052,-9.79013729095459
1745732304.180249,-0.005806937348097563,-0.0042391130700707436,0.0002730550186242908,0.3124319314956665,0.3498431444168091,-9.744386672973633
1745732304.1894007,0.010806015692651272,0.002948120003566146,0.0011224125046283007,0.19181318581104279,0.3720565140247345,-9.798894882202148
1745732304.1894848,-0.006203436758369207,-0.002516442909836769,0.0024394546635448933,0.328407347202301,0.191210076212883,-9.795495986938477
1745732304.1913853,0.008355003781616688,-0.001697476371191442,0.0016720015555620193,0.18482942879199982,0.4767220914363861,-9.755817413330078
1745732304.2358973,0.009957260452210903,-0.0007110481383278966,-0.0006708550499752164,0.18506655097007751,0.452528178691864,-9.767477035522461
1745732304.2360659,-0.0022542341612279415,0.0007109898142516613,0.0017658872529864311,0.32127776741981506,0.1617390215396881,-9.822796821594238
1745732304.2361455,0.004546163138002157,-0.0036734603345394135,9.620223136153072e-05,0.22469082474708557,0.4905407428741455,-9.745665550231934
1745732304.236219,0.005555293522775173,0.0022165209520608187,-0.0007963003590703011,0.26873263716697693,0.15624019503593445,-9.806806564331055
1745732304.236278,-0.003965273033827543,-0.004762410651892424,0.0014221447054296732,0.30085092782974243,0.4254164695739746,-9.733661651611328
1745732304.266215,0.01239252183586359,0.0023545031435787678,0.000985030783340335,0.20010706782341003,0.25744104385375977,-9.795267105102539
1745732304.2681513,-0.006736814044415951,-0.0028152461163699627,-0.00070294359466061,0.34194815158843994,0.2949236035346985,-9.770601272583008
1745732304.270372,0.013125930912792683,-0.001065162243321538,0.00012355930812191218,0.1865721493959427,0.4223114550113678,-9.77040958404541
1745732304.274842,-0.0051480866968631744,-0.002005885122343898,0.00046796584501862526,0.34673014283180237,0.17025966942310333,-9.788442611694336
1745732304.3092,0.00917449314147234,-0.0021507577039301395,0.0012654373422265053,0.20995235443115234,0.5171061158180237,-9.755949020385742
1745732304.3114955,0.001685344846919179,0.0011040514800697565,8.618364518042654e-05,0.3146747052669525,0.11029708385467529,-9.821338653564453
1745732304.3137212,-0.00024372599727939814,-0.003805146785452962,0.0015723963733762503,0.2656903862953186,0.47969236969947815,-9.753466606140137
1745732304.315456,0.008968984708189964,-0.00015153332788031548,-0.0003942481125704944,0.23118218779563904,0.21938331425189972,-9.795351028442383
1745732304.3237748,-0.00545492535457015,-0.003966499585658312,0.0007755554397590458,0.33626502752304077,0.3384924530982971,-9.745943069458008
1745732304.35167,0.01048189029097557,-0.0015095777343958616,-0.0011931079206988215,0.18402151763439178,0.37393009662628174,-9.796614646911621
1745732304.355702,-0.003859885036945343,6.779981777071953e-05,0.001043189549818635,0.3342534601688385,0.2106519192457199,-9.794122695922852
1745732304.358131,0.009048201143741608,-0.002780037699267268,-0.00021328948787413538,0.173604816198349,0.4844033122062683,-9.746777534484863
1745732304.3590338,-0.0003779260441660881,-0.000906309112906456,-0.0003616146859712899,0.3094032406806946,0.1369280368089676,-9.813264846801758
1745732304.3989112,0.0028722654096782207,-0.003936371766030788,-0.001516875228844583,0.24550020694732666,0.5016782879829407,-9.762659072875977
1745732304.401043,0.001948677934706211,6.416244286810979e-05,-0.0005564653547480702,0.30447810888290405,0.13658888638019562,-9.814292907714844
1745732304.4036834,0.002993794856593013,-0.003572470974177122,-0.0013253232464194298,0.24204149842262268,0.49597054719924927,-9.757699966430664
1745732304.4075148,0.010149563662707806,-0.0007691272767260671,-0.00034814997343346477,0.2509258985519409,0.19085189700126648,-9.80383586883545
1745732304.4380293,-0.0043397331610322,-0.004132469184696674,0.0015952229732647538,0.308047354221344,0.3913954496383667,-9.75474739074707
1745732304.4383402,0.012876784428954124,-0.001614539884030819,-0.0001031626234180294,0.20163853466510773,0.3403366208076477,-9.804352760314941
1745732304.4407895,-0.003362949937582016,-0.0028797141276299953,-0.0009330277098342776,0.3544994592666626,0.23599553108215332,-9.776678085327148
1745732304.4441588,0.011298011057078838,-0.0028321288991719484,0.001014431705698371,0.17163267731666565,0.46769434213638306,-9.741340637207031
1745732304.4812365,-0.0002557130646891892,-0.0014081040862947702,-0.0019061841303482652,0.3377797305583954,0.14378957450389862,-9.79576301574707
1745732304.4922993,0.005011735018342733,-0.002571870107203722,0.0003665474650915712,0.21844759583473206,0.4999009072780609,-9.765789031982422
1745732304.4924514,0.006692500319331884,-6.986041262280196e-05,-0.0008961969870142639,0.2614365220069885,0.16031178832054138,-9.814691543579102
1745732304.492541,0.0003638872876763344,-0.005353293381631374,-0.00047247082693502307,0.2834371030330658,0.41447025537490845,-9.74458122253418
1745732304.4926167,0.011946111917495728,-0.00042417581425979733,-0.0013046024832874537,0.2038685381412506,0.26528823375701904,-9.826105117797852
1745732304.525906,-0.005355385132133961,-0.0031613907776772976,0.0017852894961833954,0.3411376476287842,0.2761172354221344,-9.77723503112793
1745732304.529056,0.014355774037539959,0.000521490175742656,-0.0011099984403699636,0.18931913375854492,0.41905325651168823,-9.770596504211426
1745732304.5327196,-0.0035566152073442936,-0.002527430187910795,0.001770699629560113,0.33057308197021484,0.1674690544605255,-9.799402236938477
1745732304.535999,0.008341768756508827,-0.00310062849894166,-0.00021539616864174604,0.191987544298172,0.4889807105064392,-9.757329940795898
1745732304.5649357,0.003891474800184369,0.0008138390257954597,-0.000322198960930109,0.28962287306785583,0.12248606979846954,-9.815576553344727
1745732304.5719497,0.008481395430862904,-0.002174127846956253,0.0010294191306456923,0.19998779892921448,0.46568506956100464,-9.752082824707031
1745732304.572046,0.0006150721455924213,0.0025649587623775005,0.0001009804182103835,0.2962621748447418,0.1268307864665985,-9.819676399230957
1745732304.5720944,0.0014466209104284644,-0.003675432875752449,0.0005142289446666837,0.22926795482635498,0.47856584191322327,-9.75033187866211
1745732304.609952,0.007552982307970524,0.0034364559687674046,0.001805308973416686,0.24869728088378906,0.18541468679904938,-9.814526557922363
1745732304.6124394,-0.006678732577711344,-0.0021666386164724827,0.0008036197395995259,0.30792421102523804,0.37614887952804565,-9.767801284790039
1745732304.613119,0.012650768272578716,0.0018897147383540869,0.0004813379200641066,0.2005859911441803,0.3164939284324646,-9.803147315979004
1745732304.6149411,-0.009144437499344349,-0.0015375129878520966,0.0016202011611312628,0.34452229738235474,0.23351530730724335,-9.756406784057617
1745732304.6174552,0.009735414758324623,8.578658162150532e-05,-0.0001823780039558187,0.18268735706806183,0.42913752794265747,-9.746023178100586
1745732304.6542518,-0.004097155295312405,0.003052216023206711,0.0030221871566027403,0.33720022439956665,0.13724875450134277,-9.803548812866211
1745732304.6583064,0.004208323545753956,-0.0009735339554026723,0.00041368379606865346,0.22062213718891144,0.4937022626399994,-9.749293327331543
1745732304.6606736,0.0047331927344202995,0.0029736673459410667,0.003780743107199669,0.2736016511917114,0.15494154393672943,-9.827573776245117
1745732304.6648574,-0.0031758577097207308,-0.0012541036121547222,0.0012116431025788188,0.2746517062187195,0.4308168292045593,-9.753684997558594
1745732304.6977804,0.007867692038416862,0.004246908240020275,-0.00029983208514750004,0.22445711493492126,0.25619298219680786,-9.786108016967773
1745732304.7000303,-0.007393830921500921,-0.0020829197019338608,0.002907387912273407,0.33945852518081665,0.2675589919090271,-9.757683753967285
1745732304.7024417,0.012922428548336029,0.0014434700133278966,0.00183329195715487,0.1632484495639801,0.4157499670982361,-9.785858154296875
1745732304.7048092,-0.007827984169125557,0.0017681524623185396,-0.0006425923202186823,0.33149436116218567,0.16963188350200653,-9.788154602050781
1745732304.70623,0.006332164164632559,-0.0008331552380695939,0.0030708517879247665,0.20757229626178741,0.4740310311317444,-9.735258102416992
1745732304.7399335,-0.0012367984745651484,0.001779254525899887,0.0009220292558893561,0.2966185510158539,0.13669854402542114,-9.801067352294922
1745732304.7434235,-0.0009250320727005601,-0.001080953748896718,0.001153659773990512,0.24788329005241394,0.470470130443573,-9.75968074798584
1745732304.7468584,0.0003502592444419861,0.00499411066994071,0.0014063282869756222,0.29355502128601074,0.16352978348731995,-9.822233200073242
1745732304.749177,-0.004281593486666679,-0.0035667556803673506,0.003495674580335617,0.27716541290283203,0.4472710192203522,-9.74143123626709
1745732304.7804756,0.00674713309854269,0.0037854681722819805,0.0012259649811312556,0.23277564346790314,0.2195628434419632,-9.786667823791504
1745732304.781974,-0.008778039366006851,0.0010654807556420565,0.003268492640927434,0.3279629945755005,0.33913642168045044,-9.769359588623047
1745732304.785237,0.009179094806313515,0.001480382401496172,0.0013501023640856147,0.17861981689929962,0.3679019808769226,-9.795524597167969
1745732304.786109,-0.007823901250958443,0.0016244460130110383,0.003506924258545041,0.3400503695011139,0.199386864900589,-9.777695655822754
1745732304.8253155,0.005406164098531008,-0.00018627196550369263,2.9645907488884404e-05,0.1977228820323944,0.48263734579086304,-9.74414348602295
1745732304.8291984,-0.003038948168978095,0.002361999126151204,0.0018337925430387259,0.3220180571079254,0.11079583317041397,-9.797308921813965
1745732304.8292477,-0.0014420056249946356,-0.001246235566213727,0.0015565184876322746,0.24150657653808594,0.50105881690979,-9.732522964477539
1745732304.832111,0.002553011057898402,0.0012673602905124426,0.002371812704950571,0.258689284324646,0.16490021347999573,-9.812971115112305
1745732304.834149,-0.008159452117979527,0.0012875996762886643,0.001572324545122683,0.31305405497550964,0.40862712264060974,-9.745256423950195
1745732304.8688412,0.009068040177226067,0.0032197250984609127,0.002008759882301092,0.21476908028125763,0.31440597772598267,-9.799530029296875
1745732304.8726156,-0.010350898839533329,0.0002943488652817905,0.001169373164884746,0.3419637084007263,0.24233286082744598,-9.780725479125977
1745732304.875085,0.006098975893110037,0.000295266043394804,0.003633106593042612,0.17375795543193817,0.45254653692245483,-9.764436721801758
1745732304.879017,-0.0069856056943535805,0.0007240299601107836,0.0015818702522665262,0.34416139125823975,0.17782792448997498,-9.798868179321289
1745732304.909172,0.0008350351708941162,-0.0009470207733102143,0.001396280713379383,0.22058045864105225,0.5026768445968628,-9.718718528747559
1745732304.9132416,-0.0011180645087733865,0.0013410364044830203,0.003056139452382922,0.29277557134628296,0.12685450911521912,-9.818305969238281
1745732304.917652,-0.0003751056210603565,0.0026147859171032906,0.002131983172148466,0.31209948658943176,0.12113598734140396,-9.812990188598633
1745732304.9206164,-0.002155133755877614,-0.004414824768900871,-4.878160689258948e-05,0.27004262804985046,0.49959883093833923,-9.758241653442383
1745732304.956056,0.00642274459823966,0.0008357923361472785,0.0006822386058047414,0.2393454760313034,0.20588350296020508,-9.809657096862793
1745732304.9581473,-0.007423005066812038,-0.0016497898614034057,0.0021215402521193027,0.31763747334480286,0.346577912569046,-9.743870735168457
1745732304.9619236,0.010020758956670761,0.0004995951312594116,0.00012192861322546378,0.19314436614513397,0.35888516902923584,-9.797800064086914
1745732304.9652185,-0.00698712095618248,-0.00188465416431427,0.0009177530882880092,0.34672433137893677,0.21632952988147736,-9.804193496704102
1745732304.9956095,0.008211469277739525,-0.0013379069278016686,0.0017712062690407038,0.20366115868091583,0.47338756918907166,-9.748016357421875
1745732304.9983497,-0.002646638546139002,-0.002318969462066889,0.0013860033359378576,0.3188766837120056,0.13295896351337433,-9.787092208862305
1745732305.0007396,0.0035914264153689146,-0.0030682478100061417,0.0015040442813187838,0.24220511317253113,0.4954809248447418,-9.750566482543945
1745732305.0030525,0.005562654696404934,0.00042458073585294187,0.0003710128366947174,0.2750972509384155,0.16375884413719177,-9.837065696716309
1745732305.0070753,-0.005392465740442276,-0.00299441977404058,0.002801076276227832,0.3003383278846741,0.43508681654930115,-9.744126319885254
1745732305.0674133,0.012137386947870255,-0.00039776944322511554,-0.0009247601265087724,0.20099666714668274,0.2926073372364044,-9.788248062133789
1745732305.0676935,-0.008122293278574944,-0.004608798772096634,0.0031584505923092365,0.35108280181884766,0.27789562940597534,-9.788515090942383
1745732305.0732696,0.013391639105975628,-0.0022650219034403563,-0.000500252062920481,0.1897435486316681,0.4309101700782776,-9.79299259185791
1745732305.073764,-0.003821129444986582,-0.0008903664420358837,0.0011508779134601355,0.34874212741851807,0.15826991200447083,-9.773589134216309
1745732305.1207893,0.006471467204391956,-0.0026742664631456137,0.0008643375476822257,0.20788085460662842,0.5203362107276917,-9.734384536743164
1745732305.1276531,0.0028679140377789736,-0.0011339799966663122,-0.0003889451327268034,0.2930791974067688,0.1335505098104477,-9.81877613067627
1745732305.161841,-0.0010665468871593475,-0.003798000980168581,0.0016647966112941504,0.2854541540145874,0.46786338090896606,-9.76066780090332
1745732305.1619544,0.009097905829548836,-0.0007032089633867145,0.0013029812835156918,0.23040208220481873,0.25342246890068054,-9.805479049682617
1745732305.1650624,0.01052267849445343,-0.012140789069235325,0.002005108632147312,0.24315981566905975,0.5306480526924133,-9.851823806762695
1745732305.1676686,0.022354606539011,0.0018208898836746812,-0.003760781604796648,0.06520320475101471,0.327958881855011,-9.873860359191895
1745732305.1709225,-0.0015898918500170112,-0.005043563898652792,-0.007901971228420734,0.1026301383972168,0.3348681330680847,-9.593254089355469
1745732305.1709673,0.009188252501189709,-0.006573004182428122,-0.007649742066860199,0.00984837394207716,0.10941930115222931,-9.588911056518555
1745732305.177314,-0.011622820980846882,0.012248048558831215,-0.0024825544096529484,0.40666961669921875,-0.11058402061462402,-9.691703796386719
1745732305.2264438,-0.030978817492723465,0.004274243023246527,0.001227970002219081,0.41170740127563477,0.14348948001861572,-9.790998458862305
1745732305.234575,-0.010865709744393826,0.0009151306003332138,0.009509481489658356,0.6713312864303589,-0.14449858665466309,-9.864424705505371
1745732305.2373254,-0.040015529841184616,0.006767315324395895,0.017219992354512215,0.39590585231781006,0.5391854047775269,-9.938684463500977
1745732305.2693222,0.0016466394299641252,0.014411596581339836,0.015772048383951187,0.6690282821655273,0.37344908714294434,-9.804890632629395
1745732305.3045716,-0.031002283096313477,-0.02542892098426819,0.012306570075452328,0.8869682550430298,0.8568552136421204,-9.95732307434082
1745732305.3059545,0.014719936065375805,-0.0036698400508612394,0.008524221368134022,0.3828313648700714,0.6126682162284851,-10.334416389465332
1745732305.314311,0.006558337714523077,0.008658933453261852,0.010672460310161114,0.37131351232528687,0.684337854385376,-9.490005493164062
1745732305.3148372,0.030492696911096573,-0.008290844038128853,0.011805780231952667,0.4058408737182617,0.5462478995323181,-9.05583381652832
1745732305.3271074,0.030890170484781265,-0.0013082765508443117,0.011273589916527271,0.8995879292488098,0.33867818117141724,-9.893893241882324
1745732305.3301663,0.03127439320087433,0.005474374163895845,0.0129773560911417,0.3729926347732544,0.605522871017456,-10.609443664550781
1745732305.3314316,0.07084379345178604,0.016989588737487793,0.012063262984156609,0.37615442276000977,0.34738677740097046,-9.460183143615723
1745732305.3332548,0.0020114746876060963,0.0344715341925621,0.010277517139911652,0.3084801137447357,0.05243601277470589,-10.20659351348877
1745732305.3591604,-0.004869422409683466,0.038681451231241226,0.008962076157331467,0.3748745322227478,0.6729961037635803,-9.225042343139648
1745732305.3618517,0.015385294333100319,0.032977908849716187,0.01005561463534832,0.4007437229156494,0.5822523236274719,-9.26649284362793
1745732305.3630166,0.01712217554450035,0.026855939999222755,0.00832577794790268,0.5827338099479675,0.6279670596122742,-10.064048767089844
1745732305.3727813,0.063105508685112,0.03906962275505066,0.009531509131193161,0.29422926902770996,0.7408890724182129,-10.317913055419922
1745732305.3750656,0.05602434277534485,0.0451664924621582,0.008410190232098103,0.4323295056819916,0.39550405740737915,-9.41455078125
1745732305.3859143,0.07871599495410919,0.03541875630617142,0.008667626418173313,0.27248698472976685,0.6743932366371155,-9.046587944030762
1745732305.4000752,0.07933622598648071,0.03914443776011467,0.00757425744086504,0.5968023538589478,0.3268462121486664,-9.85919189453125
1745732305.4017513,0.08644558489322662,0.0395125150680542,0.008886042982339859,0.6397579908370972,0.3836960792541504,-10.360527038574219
1745732305.404592,0.08695869147777557,0.04470221325755119,0.007016280200332403,0.4962370991706848,0.14578548073768616,-9.820043563842773
1745732305.4063401,0.06721782684326172,0.03378203511238098,0.007776261772960424,0.46017986536026,0.038504887372255325,-9.287542343139648
1745732305.4093266,0.06556512415409088,0.03929028660058975,0.0093354731798172,0.4012433886528015,0.11363522708415985,-9.485467910766602
1745732305.4155376,0.0515633150935173,0.04507657140493393,0.008569224737584591,0.5775039792060852,0.0030686110258102417,-10.090065956115723
1745732305.4156067,0.0499674454331398,0.03772721439599991,0.009721579030156136,0.38918477296829224,0.27795177698135376,-9.955975532531738
1745732305.443177,0.053577493876218796,0.040580227971076965,0.010858746245503426,0.4826478064060211,-0.01013860385864973,-9.588749885559082
1745732305.4432437,0.04597877711057663,0.0369626022875309,0.011715241707861423,0.31941381096839905,0.5848217606544495,-9.482422828674316
1745732305.4463732,0.05529255419969559,0.04393666237592697,0.01188706886023283,0.35896849632263184,-0.02809692919254303,-9.954110145568848
1745732305.470804,0.05838696286082268,0.03532930463552475,0.009679639711976051,0.6173108816146851,0.6652109622955322,-9.7416353225708
1745732305.4815567,0.071688711643219,0.046234529465436935,0.010012377984821796,0.49886542558670044,0.21358105540275574,-9.707769393920898
1745732305.481604,0.08432304859161377,0.02841983176767826,0.011785737238824368,0.548021674156189,0.3490533232688904,-9.855398178100586
1745732305.4983184,0.0847649946808815,0.025790324434638023,0.009908922016620636,0.5966035723686218,0.3574545681476593,-9.92689323425293
1745732305.5094414,0.0906391441822052,0.032850008457899094,0.009459765627980232,0.3996421694755554,0.21834444999694824,-9.731756210327148
1745732305.5104344,0.08000244200229645,0.028452211990952492,0.010449142195284367,0.5711621046066284,0.19584724307060242,-9.532233238220215
1745732305.5213723,0.09114079177379608,0.024266982451081276,0.012208061292767525,0.49434375762939453,0.3338252902030945,-9.668222427368164
1745732305.5293696,0.09613107144832611,0.03565298393368721,0.01317216269671917,0.5534470677375793,0.22989460825920105,-9.912811279296875
1745732305.5315788,0.09978477656841278,0.03062255308032036,0.011582354083657265,0.42283692955970764,0.5222853422164917,-9.817280769348145
1745732305.5337186,0.12170636653900146,0.028286825865507126,0.012058130465447903,0.4942687153816223,0.06994299590587616,-9.676767349243164
1745732305.560827,0.1111084371805191,0.030960405245423317,0.013386944308876991,0.48354822397232056,0.4291972219944,-9.695261001586914
1745732305.5608857,0.12780632078647614,0.0331207737326622,0.010346793569624424,0.3309153914451599,0.07918338477611542,-9.989316940307617
1745732305.5644078,0.12048105895519257,0.029073471203446388,0.013033431954681873,0.6009829044342041,0.18145962059497833,-9.62834358215332
1745732305.5656557,0.11426959186792374,0.02894756756722927,0.010772408917546272,0.5125058889389038,0.1535523384809494,-9.657059669494629
1745732305.598682,0.11335013061761856,0.024200236424803734,0.010850483551621437,0.6422404050827026,0.019203608855605125,-9.861997604370117
1745732305.6035292,0.10554788261651993,0.01945020630955696,0.010057647712528706,0.5884988903999329,0.21242627501487732,-9.940284729003906
1745732305.6051621,0.11319470405578613,0.02918143942952156,0.008984168991446495,0.5831462740898132,0.0727844089269638,-9.893966674804688
1745732305.605201,0.09662941098213196,0.016764279454946518,0.011780736967921257,0.5913432240486145,0.25044554471969604,-9.629858016967773
1745732305.644677,0.28963524103164673,0.0342567153275013,-0.15021467208862305,0.712273359298706,-0.0049987668171525,-9.181009292602539
1745732305.6455646,0.2961721122264862,0.034019917249679565,-0.14965906739234924,0.9030102491378784,-0.17806395888328552,-10.341024398803711
1745732305.6502817,0.28381556272506714,0.0512128584086895,-0.15484926104545593,1.1291289329528809,-0.6452048420906067,-10.37232780456543
1745732305.6518297,0.2743836045265198,0.04139997065067291,-0.1572100818157196,0.8809072375297546,-0.3588508665561676,-9.176216125488281
1745732305.683549,0.24434320628643036,0.03754434734582901,-0.16112694144248962,1.0585439205169678,-0.7080382108688354,-9.265050888061523
1745732305.687459,0.22000212967395782,0.03549883887171745,-0.1663849949836731,0.8644851446151733,-0.2983282506465912,-10.31219482421875
1745732305.6891134,0.22267846763134003,0.0484234057366848,-0.17174753546714783,0.7390686273574829,-0.46309900283813477,-10.342138290405273
1745732305.691047,0.2081531584262848,0.04263781011104584,-0.17951135337352753,0.7759948968887329,-0.15128694474697113,-9.266968727111816
1745732305.6944578,0.2146175354719162,0.034437648952007294,-0.18249352276325226,0.5530213713645935,-0.19929222762584686,-9.31506633758545
1745732305.7344227,0.22716829180717468,0.03907425329089165,-0.18688884377479553,0.8153285980224609,-0.07451993227005005,-9.972345352172852
1745732305.7360468,0.22931019961833954,0.041275184601545334,-0.19245412945747375,0.8698710203170776,0.17598910629749298,-10.177173614501953
1745732305.7447531,0.26213911175727844,0.04547234624624252,-0.19354881346225739,1.0905227661132812,-0.19685368239879608,-9.689112663269043
1745732305.7448423,0.25863251090049744,0.028328021988272667,-0.20016634464263916,0.9107575416564941,0.2622312605381012,-9.531232833862305
1745732305.7709222,0.2739342451095581,0.02928377315402031,-0.2022678554058075,1.0172984600067139,-0.49554920196533203,-10.137652397155762
1745732305.772316,0.274303138256073,0.030842864885926247,-0.2061522901058197,0.9679282903671265,-0.04266330599784851,-9.991534233093262
1745732305.7755835,0.2727036774158478,0.027419215068221092,-0.21114221215248108,0.8098685145378113,-0.32620686292648315,-9.652007102966309
1745732305.7758558,0.2563988268375397,0.022634344175457954,-0.21770314872264862,0.9545398950576782,-0.35334938764572144,-9.497942924499512
1745732305.778784,0.2512992024421692,0.01652919128537178,-0.22408299148082733,0.7732571363449097,-0.20670728385448456,-9.853473663330078
1745732305.817062,0.25343838334083557,0.02160368114709854,-0.23088745772838593,1.0208756923675537,-0.6502529382705688,-10.034158706665039
1745732305.8187416,0.23046879470348358,0.018413309007883072,-0.23410621285438538,0.8096626400947571,-0.2754410207271576,-9.752169609069824
1745732305.8199897,0.2192290723323822,-0.0036874276120215654,-0.27113091945648193,0.8745813369750977,-0.3227871060371399,-10.08515739440918
1745732305.8239264,0.24426309764385223,0.0015713151078671217,-0.27502578496932983,0.9452160596847534,-0.4725867211818695,-9.79529857635498
1745732305.85672,0.23970088362693787,-0.008135881274938583,-0.27752262353897095,0.6399665474891663,-0.15005506575107574,-9.449384689331055
1745732305.858192,0.2521995007991791,-0.008972709998488426,-0.28230905532836914,0.8695926666259766,-0.8085396885871887,-9.70607852935791
1745732305.860411,0.2382948398590088,-0.010160112753510475,-0.28285735845565796,0.8405545949935913,-0.44038811326026917,-9.884363174438477
1745732305.8621678,0.232421875,-0.011384640820324421,-0.28957900404930115,0.8909317255020142,-0.9770628213882446,-9.833036422729492
1745732305.8657138,0.20131587982177734,-0.01685165800154209,-0.2915608286857605,1.0344159603118896,-0.8621076345443726,-9.503650665283203
1745732305.9011095,0.18717369437217712,-0.018749801442027092,-0.29415780305862427,0.8890034556388855,-0.9901682138442993,-9.733118057250977
1745732305.9034178,0.17432956397533417,-0.018402639776468277,-0.2951429486274719,1.0628352165222168,-0.9797899127006531,-9.875173568725586
1745732305.9082372,0.1495608538389206,-0.018306225538253784,-0.29927629232406616,0.7922946214675903,-0.5440109968185425,-9.748391151428223
1745732305.91198,0.16386456787586212,-0.019412623718380928,-0.3003810942173004,0.8855631947517395,-0.8458753824234009,-9.56686782836914
1745732305.9477894,0.16219666600227356,-0.026480842381715775,-0.3043915033340454,0.7780318856239319,-0.09377292543649673,-9.49721908569336
1745732305.950098,0.17461828887462616,-0.026579761877655983,-0.30777937173843384,0.7702317237854004,-0.6391243934631348,-9.954343795776367
1745732305.95134,0.1915721297264099,-0.02286316454410553,-0.3116881847381592,0.8556979298591614,-0.16383406519889832,-9.79412841796875
1745732305.9529958,0.1987292617559433,-0.02820765972137451,-0.3146900534629822,0.7425121068954468,-0.6171603798866272,-9.547276496887207
1745732305.9858062,0.2015368640422821,-0.029329583048820496,-0.3132087290287018,1.0130136013031006,-0.7224738597869873,-9.519508361816406
1745732305.990118,0.09976820647716522,-0.058410823345184326,-0.36087507009506226,0.7989245653152466,-0.6641253232955933,-9.825733184814453
1745732305.9937797,0.0882750004529953,-0.0505296066403389,-0.36597830057144165,0.783064067363739,-1.1351655721664429,-9.780916213989258
1745732305.9952188,0.08777987957000732,-0.053866542875766754,-0.36323103308677673,0.8354399800300598,-0.8974668383598328,-9.384366989135742
1745732306.0380876,0.08184494078159332,-0.05645132064819336,-0.3648935556411743,0.671474039554596,-0.8725706338882446,-9.6722993850708
1745732306.038129,0.08368277549743652,-0.05592644214630127,-0.3647945523262024,0.8708611726760864,-0.94610995054245,-10.023842811584473
1745732306.0434062,0.09657265245914459,-0.05272644758224487,-0.36484494805336,0.611843466758728,-0.630473256111145,-9.842514038085938
1745732306.04568,0.09126950800418854,-0.0534341037273407,-0.3661315143108368,0.7309502363204956,-1.0600881576538086,-9.49693489074707
1745732306.0468454,0.09523292630910873,-0.05988816171884537,-0.3665796220302582,0.6940250992774963,-0.6956425905227661,-9.494956016540527
1745732306.0740438,0.09216231107711792,-0.052562255412340164,-0.36776968836784363,0.6883127689361572,-1.1960710287094116,-9.933669090270996
1745732306.0767229,0.09036984294652939,-0.05101025104522705,-0.3688265383243561,0.7907899022102356,-0.8077694177627563,-9.669466018676758
1745732306.0778368,0.07712117582559586,-0.04992883279919624,-0.3706173002719879,0.6800352334976196,-1.059993028640747,-9.54310417175293
1745732306.0813742,0.06943253427743912,-0.05366858094930649,-0.36987069249153137,0.8468265533447266,-1.1869951486587524,-9.699847221374512
1745732306.1157897,0.06857843697071075,-0.05393921583890915,-0.3713800311088562,0.6626415252685547,-0.8056035041809082,-9.961946487426758
1745732306.1187418,0.053114473819732666,-0.05101972073316574,-0.3732607960700989,0.8144314885139465,-1.3171061277389526,-9.940860748291016
1745732306.1220062,0.062465500086545944,-0.04945182055234909,-0.3740028142929077,0.6467024683952332,-0.6673802137374878,-9.421136856079102
1745732306.1308985,0.05131305381655693,-0.05228888988494873,-0.37416785955429077,0.7539958953857422,-1.1828949451446533,-9.55739688873291
1745732306.1574218,0.052388809621334076,-0.054924119263887405,-0.3741108775138855,0.7306042909622192,-0.7549530863761902,-9.784337043762207
1745732306.1602256,0.0601765438914299,-0.04444632679224014,-0.3748149871826172,0.5953760147094727,-1.0042974948883057,-10.013500213623047
1745732306.1602616,0.05649979040026665,-0.05151493102312088,-0.3752419352531433,0.7200168967247009,-0.8610891103744507,-9.685094833374023
1745732306.1617455,0.0612635612487793,-0.04937038943171501,-0.37572091817855835,0.5889629125595093,-0.7829440832138062,-9.551471710205078
1745732306.2017636,0.02007536217570305,-0.034001875668764114,-0.38409703969955444,0.6532655358314514,-1.1360217332839966,-9.580026626586914
1745732306.2035773,0.02576165460050106,-0.041910670697689056,-0.3813164234161377,0.7765963077545166,-0.9159884452819824,-9.758634567260742
1745732306.2060006,0.03452968969941139,-0.035100143402814865,-0.38494881987571716,0.5621670484542847,-0.8400522470474243,-9.990558624267578
1745732306.208884,0.01457243598997593,-0.03900919854640961,-0.38540196418762207,0.7648653984069824,-1.1245464086532593,-9.821168899536133
1745732306.2115242,0.03840407729148865,-0.03488248586654663,-0.385039746761322,0.5838106870651245,-0.7700318098068237,-9.500295639038086
1745732306.2472415,0.010586178861558437,-0.03714735805988312,-0.38682278990745544,0.7388801574707031,-1.2364451885223389,-9.653511047363281
1745732306.2487803,0.02433418668806553,-0.03769497945904732,-0.3850930333137512,0.6475136280059814,-0.7895736694335938,-9.770429611206055
1745732306.2533495,0.014756050892174244,-0.02870425581932068,-0.3873850703239441,0.6800237894058228,-1.1526615619659424,-9.936939239501953
1745732306.255601,0.014754724688827991,-0.03642196208238602,-0.38614094257354736,0.6777212619781494,-0.8490540385246277,-9.705032348632812
1745732306.2970486,0.013789748772978783,-0.03336205333471298,-0.38764870166778564,0.5910157561302185,-0.994118332862854,-9.737297058105469
1745732306.2972355,0.0013920285273343325,-0.0351855531334877,-0.3880498707294464,0.7253822088241577,-1.2133405208587646,-9.818611145019531
1745732306.2972977,0.02571144700050354,-0.03016841411590576,-0.384147047996521,0.4943002760410309,-0.7838094830513,-9.696528434753418
1745732306.2973511,-0.009078018367290497,-0.028160160407423973,-0.38807958364486694,0.7683297395706177,-1.1298853158950806,-9.704092979431152
1745732306.2973945,0.02320733293890953,-0.026237130165100098,-0.38788697123527527,0.6187711954116821,-0.7702187299728394,-9.490346908569336
1745732306.3381,0.0030536497943103313,-0.023793676868081093,-0.3880051076412201,0.6707280874252319,-1.0509566068649292,-9.775046348571777
1745732306.3382208,0.006878598127514124,-0.03123755194246769,-0.3894924223423004,0.7496920824050903,-0.8868815302848816,-9.94892692565918
1745732306.3384414,-0.035557590425014496,-0.0203123576939106,-0.3836713433265686,0.7123134732246399,-0.9952285885810852,-9.756269454956055
1745732306.3425357,-0.007141379173845053,-0.020686447620391846,-0.3855300545692444,0.5848594903945923,-0.9322565197944641,-9.650793075561523
1745732306.3743699,-0.036317501217126846,-0.01937323436141014,-0.3872396945953369,0.6836434602737427,-0.9356734156608582,-9.571746826171875
1745732306.3780303,-0.022539515048265457,-0.02166125737130642,-0.3865061402320862,0.640028178691864,-0.8041061162948608,-9.753451347351074
