timestamp,angular_vel_x,angular_vel_y,angular_vel_z,linear_acc_x,linear_acc_y,linear_acc_z
1745726119.7064683,0.15976819396018982,-0.09196271747350693,-0.4233444333076477,0.9670239686965942,-0.8782988786697388,-9.868643760681152
1745726119.7065454,0.17027859389781952,-0.09439142048358917,-0.4263487756252289,0.7751110792160034,-0.8973895907402039,-9.752300262451172
1745726119.7067256,0.14720383286476135,-0.09509400278329849,-0.42360639572143555,0.920401394367218,-0.9303264617919922,-9.635612487792969
1745726119.7068555,0.09722176939249039,-0.07666070014238358,-0.4288606643676758,0.7755710482597351,-1.068474531173706,-9.51940631866455
1745726119.7069545,0.09399761259555817,-0.08305017650127411,-0.4268105924129486,0.6993367075920105,-1.0188274383544922,-9.90766716003418
1745726119.7070131,0.10052786022424698,-0.07296180725097656,-0.42640870809555054,0.610198974609375,-1.040610432624817,-9.83740520477295
1745726119.7070749,0.08275516331195831,-0.07435058057308197,-0.42677268385887146,0.6713287234306335,-1.0797145366668701,-9.592439651489258
1745726119.7071211,0.09120754897594452,-0.07409586012363434,-0.4264763295650482,0.5031338930130005,-1.0285298824310303,-9.588006973266602
1745726119.7071667,0.07307164371013641,-0.07248712331056595,-0.4274497628211975,0.7035020589828491,-1.064300775527954,-9.816118240356445
1745726119.707218,0.07438620179891586,-0.07098634541034698,-0.42734766006469727,0.643917441368103,-0.9671220779418945,-9.942547798156738
1745726119.7072635,0.08130237460136414,-0.06208176538348198,-0.4265764653682709,0.6145818829536438,-1.096543550491333,-9.600945472717285
1745726119.707308,0.06633521616458893,-0.06970320641994476,-0.4258246421813965,0.6865810751914978,-1.0141923427581787,-9.54784870147705
1745726119.707354,0.0753868967294693,-0.06294271349906921,-0.42663058638572693,0.6298235058784485,-1.0366005897521973,-9.720162391662598
1745726119.7184443,0.06860969960689545,-0.05799543857574463,-0.4249349534511566,0.7550592422485352,-1.0694353580474854,-9.826367378234863
1745726119.7185035,0.07125239819288254,-0.06052030250430107,-0.42539113759994507,0.5912755727767944,-1.020729899406433,-9.707132339477539
1745726119.7185519,0.06653482466936111,-0.05648002773523331,-0.4235456585884094,0.6360843181610107,-1.144582748413086,-9.585509300231934
1745726119.7185917,0.06201409175992012,-0.06102786213159561,-0.42257562279701233,0.5978004336357117,-1.0868256092071533,-9.847442626953125
1745726119.720165,0.06402137130498886,-0.05152487754821777,-0.4232860505580902,0.49885445833206177,-1.0221757888793945,-9.884788513183594
1745726119.7592778,0.04884292185306549,-0.05432349443435669,-0.42245179414749146,0.7054696083068848,-1.1112782955169678,-9.63232707977295
1745726119.7593658,0.05451282113790512,-0.054392509162425995,-0.42408785223960876,0.5563298463821411,-0.9672023057937622,-9.628541946411133
1745726119.761179,0.053624190390110016,-0.0475398525595665,-0.42387717962265015,0.673514723777771,-1.0959663391113281,-9.706460952758789
1745726119.7635298,0.04794837534427643,-0.04911937192082405,-0.42264658212661743,0.6501851677894592,-1.0211870670318604,-9.767862319946289
1745726119.800463,0.04947459325194359,-0.04360397532582283,-0.42369523644447327,0.5752568244934082,-1.154297113418579,-9.593350410461426
1745726119.8026738,0.04219590499997139,-0.04470393806695938,-0.4203130304813385,0.6267825365066528,-1.087625503540039,-9.641671180725098
1745726119.8036628,0.011484073475003242,-0.02960486337542534,-0.4180185794830322,0.629327654838562,-1.0089664459228516,-9.823310852050781
1745726119.806264,0.01810372993350029,-0.02567286230623722,-0.41940754652023315,0.4886854290962219,-1.001483678817749,-9.771482467651367
1745726119.8068962,0.007736129220575094,-0.026361828669905663,-0.41702476143836975,0.6873467564582825,-1.1778796911239624,-9.685450553894043
1745726119.9569075,0.008496245369315147,-0.029359344393014908,-0.4167604446411133,0.5191313624382019,-1.0289578437805176,-9.787008285522461
1745726119.9570346,0.0010314614046365023,-0.021362081170082092,-0.4180954396724701,0.6355984210968018,-1.171100378036499,-9.664754867553711
1745726119.9571357,-0.0064589218236505985,-0.028097039088606834,-0.4142778813838959,0.7193329930305481,-1.0815531015396118,-9.732084274291992
1745726119.9571984,-0.0019201298709958792,-0.02167266234755516,-0.416631281375885,0.5649381875991821,-1.066731572151184,-9.716408729553223
1745726119.9572604,-0.008708874695003033,-0.02192501537501812,-0.4159313142299652,0.7012736201286316,-1.116904616355896,-9.64567756652832
1745726119.9573565,-0.012421654537320137,-0.021327219903469086,-0.41593965888023376,0.5678417086601257,-0.9778076410293579,-9.687618255615234
1745726119.9574168,-0.012726468965411186,-0.01589830406010151,-0.41721439361572266,0.6451338529586792,-1.0985047817230225,-9.655977249145508
1745726119.957467,-0.011604131199419498,-0.021114785224199295,-0.41354474425315857,0.5161147713661194,-0.9788869023323059,-9.800204277038574
1745726119.957506,-0.0038638741243630648,-0.013568791560828686,-0.4147588610649109,0.528020977973938,-1.007345199584961,-9.751058578491211
1745726119.9575453,-0.013848158530890942,-0.018629636615514755,-0.4140854775905609,0.7003729343414307,-1.0323420763015747,-9.68608570098877
1745726119.957584,-0.004389961250126362,-0.017571205273270607,-0.4122217297554016,0.551464319229126,-1.0392768383026123,-9.767969131469727
1745726119.9576225,-0.021285925060510635,-0.01595546491444111,-0.41466039419174194,0.6970585584640503,-1.17598557472229,-9.754339218139648
1745726119.9702165,-0.044103339314460754,-0.014379715546965599,-0.3995055556297302,0.5300667881965637,-0.854789137840271,-9.814948081970215
1745726119.9724581,-0.04884551838040352,-0.01012713834643364,-0.3984837234020233,0.6989876627922058,-0.9811064004898071,-9.569740295410156
1745726119.9748516,-0.0490388423204422,-0.01614074595272541,-0.39583101868629456,0.618445873260498,-0.9284537434577942,-9.741290092468262
1745726119.9767196,-0.04069048911333084,-0.010090669617056847,-0.3933490514755249,0.582600474357605,-0.9910315275192261,-9.716691017150879
1745726119.9791574,-0.05451078340411186,-0.0164533369243145,-0.3925975561141968,0.6997736096382141,-0.9686566591262817,-9.723174095153809
1745726120.0204124,-0.040449950844049454,-0.009591633453965187,-0.3912668824195862,0.4780498147010803,-0.8750780820846558,-9.67978572845459
1745726120.0205972,-0.04544052109122276,-0.010340560227632523,-0.39293280243873596,0.7088268995285034,-0.8692229986190796,-9.601750373840332
1745726120.0207012,-0.048660095781087875,-0.01647176407277584,-0.3929089903831482,0.5535589456558228,-0.8278006315231323,-9.762089729309082
1745726120.0242012,-0.04363981634378433,-0.012885607779026031,-0.3938458561897278,0.6342907547950745,-1.0373790264129639,-9.858409881591797
1745726120.058282,-0.0463348850607872,-0.012071211822330952,-0.393139123916626,0.6430100798606873,-0.8859258890151978,-9.736835479736328
1745726120.0606122,-0.04115764796733856,-0.012975809164345264,-0.3893083930015564,0.48095789551734924,-0.9235922694206238,-9.607088088989258
1745726120.2022157,-0.04575212299823761,-0.01094258576631546,-0.38966965675354004,0.7504925727844238,-0.9509881734848022,-9.608257293701172
1745726120.2023335,-0.04378917068243027,-0.0173555389046669,-0.3881593644618988,0.6205129027366638,-0.8452507257461548,-9.912511825561523
1745726120.2024364,-0.03634320944547653,-0.013636529445648193,-0.39023587107658386,0.6251907348632812,-0.9034221768379211,-9.743904113769531
1745726120.2025912,-0.04881979525089264,-0.017860449850559235,-0.3882041871547699,0.6900189518928528,-0.8714372515678406,-9.594978332519531
1745726120.2026596,-0.033676423132419586,-0.012761415913701057,-0.38853219151496887,0.49203792214393616,-0.9454483985900879,-9.70309066772461
1745726120.2027366,-0.04740653932094574,-0.01761423610150814,-0.3857520818710327,0.7411858439445496,-0.9429395794868469,-9.799793243408203
1745726120.2028255,-0.04316229000687599,-0.02023560181260109,-0.38621729612350464,0.5145134925842285,-0.7958871126174927,-9.823993682861328
1745726120.2029076,-0.04208450764417648,-0.012832418084144592,-0.3864889144897461,0.6270385384559631,-0.9404526948928833,-9.669573783874512
1745726120.202962,-0.04080984368920326,-0.01952541619539261,-0.3844955563545227,0.6096726059913635,-0.7004865407943726,-9.679231643676758
1745726120.2030103,-0.029942193999886513,-0.023066962137818336,-0.3783499002456665,0.6535096764564514,-0.7307390570640564,-9.579947471618652
1745726120.2030573,-0.024444134905934334,-0.023980241268873215,-0.3801714777946472,0.528641939163208,-0.8837602734565735,-9.689497947692871
1745726120.2031033,-0.028478214517235756,-0.027224833145737648,-0.3756207823753357,0.7818186283111572,-0.8915446400642395,-9.762176513671875
1745726120.203149,-0.02567959949374199,-0.02553146705031395,-0.37643370032310486,0.5525110960006714,-0.8012664914131165,-9.898030281066895
1745726120.2031949,-0.02539185620844364,-0.023803330957889557,-0.37511715292930603,0.6026518940925598,-0.9441032409667969,-9.709075927734375
1745726120.2716782,-0.03545524924993515,-0.03136684000492096,-0.3748572766780853,0.6256332993507385,-0.777121901512146,-9.697564125061035
1745726120.2717643,-0.02797641232609749,-0.02757423184812069,-0.37606221437454224,0.5049192905426025,-0.8190328478813171,-9.739295959472656
1745726120.2718008,-0.032977890223264694,-0.02937466837465763,-0.3764626085758209,0.7194561958312988,-0.8779541254043579,-9.752076148986816
1745726120.2718341,-0.025197967886924744,-0.029149863868951797,-0.37687769532203674,0.4777711033821106,-0.707687258720398,-9.806957244873047
1745726120.271869,-0.022725041955709457,-0.03069613315165043,-0.3755825459957123,0.6708536148071289,-0.9129570126533508,-9.643451690673828
1745726120.2719023,-0.025461753830313683,-0.03337102383375168,-0.3734382688999176,0.6228212118148804,-0.7442352175712585,-9.704022407531738
1745726120.2739735,-0.020497243851423264,-0.03010142222046852,-0.3731699585914612,0.5421258807182312,-0.9492030143737793,-9.782820701599121
1745726120.276904,-0.02615184709429741,-0.03286261484026909,-0.3718988001346588,0.6964782476425171,-0.8105161786079407,-9.720854759216309
1745726120.2790904,-0.025430213660001755,-0.031453680247068405,-0.37258559465408325,0.47218045592308044,-0.8343650698661804,-9.757044792175293
1745726120.2827387,-0.029459387063980103,-0.03248917683959007,-0.3739697337150574,0.6748058199882507,-0.9178447723388672,-9.732271194458008
1745726120.4505887,-0.03835802152752876,-0.03805754333734512,-0.37064892053604126,0.5495694279670715,-0.7775111198425293,-9.885309219360352
1745726120.4507525,-0.00806428212672472,-0.030174067243933678,-0.3584848642349243,0.40934664011001587,-0.6798285245895386,-9.854936599731445
1745726120.4508383,-0.00674607465043664,-0.03681297227740288,-0.35816869139671326,0.6703553795814514,-0.8032110333442688,-9.744141578674316
1745726120.450917,-0.0032358195167034864,-0.03458723425865173,-0.35536989569664,0.43797677755355835,-0.6371985673904419,-9.760592460632324
1745726120.451005,0.0015704609686508775,-0.028299639001488686,-0.3571806252002716,0.4792167544364929,-0.8371219635009766,-9.766545295715332
1745726120.4510796,-0.0018316975329071283,-0.03664073720574379,-0.3555183410644531,0.5564800500869751,-0.6624681949615479,-9.720788955688477
1745726120.4511797,-0.0002043924032477662,-0.03065832518041134,-0.3548440933227539,0.43961405754089355,-0.7628545761108398,-9.7628755569458
1745726120.4512224,0.0012277908390387893,-0.03369085490703583,-0.35607853531837463,0.6783421635627747,-0.7573937177658081,-9.67330551147461
1745726120.4512813,0.00652854610234499,-0.028945881873369217,-0.3555249571800232,0.4671764373779297,-0.6705419421195984,-9.75783920288086
1745726120.4513311,0.00012151167902629822,-0.028768813237547874,-0.3568875193595886,0.6169640421867371,-0.8293209075927734,-9.684450149536133
1745726120.4513693,-0.0005302022327668965,-0.032825298607349396,-0.3579598069190979,0.6057993173599243,-0.754226803779602,-9.761638641357422
1745726120.4514077,0.0016846663784235716,-0.02426266297698021,-0.3544558584690094,0.38669252395629883,-0.8100172281265259,-9.845643043518066
1745726120.4514453,-0.00011175614781677723,-0.0313582718372345,-0.3530701994895935,0.6753422021865845,-0.808297336101532,-9.675840377807617
1745726120.4514823,0.004318903665989637,-0.027988875284790993,-0.3526495099067688,0.40793275833129883,-0.6810376048088074,-9.749399185180664
1745726120.4657092,0.0017627514898777008,-0.027854684740304947,-0.35198211669921875,0.6020593047142029,-0.8211738467216492,-9.869684219360352
1745726120.4672177,0.006811985280364752,-0.03155751898884773,-0.3513314425945282,0.48438578844070435,-0.586554765701294,-9.83184814453125
1745726120.4672556,0.006031251046806574,-0.026439566165208817,-0.35388198494911194,0.4737868309020996,-0.821696400642395,-9.657163619995117
1745726120.4672801,0.0021050446666777134,-0.03070157766342163,-0.3523337244987488,0.6293410062789917,-0.7814682126045227,-9.6426420211792
1745726120.4892044,0.009941235184669495,-0.026414290070533752,-0.3516419529914856,0.40884026885032654,-0.77410888671875,-9.839327812194824
1745726120.4924564,-0.0014557904796674848,-0.02628079056739807,-0.35071319341659546,0.6382754445075989,-0.8688474893569946,-9.70314884185791
1745726120.4940407,0.0004450860433280468,-0.026551445946097374,-0.35073235630989075,0.5269034504890442,-0.7060310244560242,-9.633870124816895
1745726120.4987404,0.005954393185675144,-0.02247815765440464,-0.34642308950424194,0.5054993629455566,-0.714250922203064,-9.66081714630127
1745726120.5331843,0.0007010014960542321,-0.016889605671167374,-0.34277841448783875,0.46107417345046997,-0.774688720703125,-9.624695777893066
1745726120.5345945,0.0009760574321262538,-0.027523035183548927,-0.34529542922973633,0.6478341817855835,-0.7275448441505432,-9.878789901733398
1745726120.5372028,0.0040154000744223595,-0.02023877389729023,-0.3462880849838257,0.38854601979255676,-0.6109361052513123,-9.947019577026367
1745726120.5427432,-0.0027838314417749643,-0.020338285714387894,-0.3462424576282501,0.5782783627510071,-0.8836308717727661,-9.656179428100586
1745726120.6958966,-0.0017250586533918977,-0.023398306220769882,-0.3470589518547058,0.442147433757782,-0.7265963554382324,-9.511759757995605
1745726120.6961114,-0.002587296301499009,-0.01676339842379093,-0.34340110421180725,0.4781453013420105,-0.905011773109436,-9.767576217651367
1745726120.6962268,-0.011630117893218994,-0.020255284383893013,-0.34495875239372253,0.6357412338256836,-0.7347730398178101,-9.887619018554688
1745726120.6963546,-0.001188182970508933,-0.012462547048926353,-0.3435230851173401,0.4907398819923401,-0.7345621585845947,-9.715475082397461
1745726120.6964638,-0.005974662955850363,-0.0209229476749897,-0.3423174321651459,0.5718591809272766,-0.776687502861023,-9.594173431396484
1745726120.6965642,0.0034666438587009907,-0.020720021799206734,-0.34203681349754333,0.44587382674217224,-0.5892313718795776,-9.895166397094727
1745726120.696662,0.002712015528231859,-0.015550760552287102,-0.3433111608028412,0.4727749824523926,-0.7404364347457886,-9.90522289276123
1745726120.6967509,0.0035556424409151077,-0.020614955574274063,-0.342107355594635,0.5314415693283081,-0.696363627910614,-9.681790351867676
1745726120.696824,0.0020568608306348324,-0.016640014946460724,-0.34275245666503906,0.4495786726474762,-0.7799471020698547,-9.566865921020508
1745726120.696864,-0.010012710466980934,-0.022986510768532753,-0.3426852524280548,0.6496540307998657,-0.8853227496147156,-9.807378768920898
1745726120.696905,0.0009935543639585376,-0.018619205802679062,-0.34368157386779785,0.410127729177475,-0.6828821897506714,-9.859786033630371
1745726120.6969454,-0.009130006656050682,-0.01590004377067089,-0.3390640914440155,0.477495014667511,-0.7236881852149963,-9.644730567932129
1745726120.6969833,-0.019958460703492165,-0.027230124920606613,-0.33888933062553406,0.6553948521614075,-0.7674955725669861,-9.7566556930542
1745726120.697022,-0.0077880555763840675,-0.024438872933387756,-0.33480745553970337,0.39512819051742554,-0.7342323660850525,-9.988189697265625
1745726120.7072868,-0.02188507840037346,-0.021079882979393005,-0.33630624413490295,0.627981424331665,-0.8747008442878723,-9.621175765991211
1745726120.7127645,-0.0223013274371624,-0.027960607782006264,-0.3329128623008728,0.4925616681575775,-0.7390588521957397,-9.573152542114258
1745726120.7128098,-0.016536742448806763,-0.01918836496770382,-0.33290424942970276,0.4683045744895935,-0.6477085947990417,-9.742441177368164
1745726120.7128556,-0.02260482683777809,-0.024147583171725273,-0.3365327715873718,0.5148485898971558,-0.6196767091751099,-9.867035865783691
1745726120.746315,-0.013661807402968407,-0.021390970796346664,-0.33730563521385193,0.4029824137687683,-0.5918741822242737,-9.704659461975098
1745726120.7486067,-0.0194536205381155,-0.021077070385217667,-0.33688071370124817,0.6063047647476196,-0.6905182600021362,-9.625020027160645
1745726120.7502513,-0.009587155655026436,-0.029729541391134262,-0.33745071291923523,0.33742308616638184,-0.6145555377006531,-9.937214851379395
1745726120.752006,-0.006308200769126415,-0.017317358404397964,-0.33535435795783997,0.5008686780929565,-0.7420608401298523,-9.807062149047852
1745726120.7531264,-0.017887946218252182,-0.024698076769709587,-0.3338537812232971,0.5768726468086243,-0.6994761228561401,-9.620652198791504
1745726120.78897,-0.005395679734647274,-0.023538634181022644,-0.3344663977622986,0.4595119059085846,-0.7601443529129028,-9.707805633544922
1745726120.7935135,-0.02099912241101265,-0.02745581790804863,-0.33313998579978943,0.6818819046020508,-0.739847719669342,-9.855786323547363
1745726120.7973368,-0.01490025408565998,-0.025296607986092567,-0.3321598172187805,0.41246873140335083,-0.7254053354263306,-9.8583402633667
1745726120.8053098,-0.01498133223503828,-0.020523453131318092,-0.3356369137763977,0.48002195358276367,-0.7253261208534241,-9.51638126373291
1745726120.944501,-0.023751290515065193,-0.029712924733757973,-0.33242666721343994,0.4302486479282379,-0.6880360245704651,-9.66259765625
1745726120.9445953,-0.015931595116853714,-0.019104737788438797,-0.3336070775985718,0.4170299470424652,-0.6787588000297546,-9.94204330444336
1745726120.9447167,-0.015755800530314445,-0.020340166985988617,-0.3329755663871765,0.5722426176071167,-0.5622043609619141,-9.817181587219238
1745726120.9448197,-0.0044167907908558846,-0.02585574984550476,-0.33215799927711487,0.34514063596725464,-0.5493912100791931,-9.668898582458496
1745726120.9450011,0.0016914155567064881,-0.026049282401800156,-0.3289449214935303,0.38932645320892334,-0.5464518666267395,-9.586621284484863
1745726120.9450622,0.010625398717820644,-0.020359287038445473,-0.32789501547813416,0.5035445094108582,-0.6586652994155884,-9.600046157836914
1745726120.9451125,-0.0021258671768009663,-0.027453118935227394,-0.3299577832221985,0.6104580163955688,-0.625195324420929,-9.889102935791016
1745726120.9451525,0.006980528589338064,-0.021335847675800323,-0.332660436630249,0.39439287781715393,-0.6968177556991577,-9.891316413879395
1745726120.945192,-0.0072704339399933815,-0.017729291692376137,-0.3319858908653259,0.5067654848098755,-0.6763046383857727,-9.573677062988281
1745726120.9452322,-0.006287799682468176,-0.02546813152730465,-0.33260416984558105,0.3296316862106323,-0.6702438592910767,-9.606486320495605
1745726120.9452717,-0.0083121657371521,-0.018694372847676277,-0.33209264278411865,0.5890556573867798,-0.736785352230072,-9.827433586120605
1745726120.9453115,-0.008209588006138802,-0.019536515697836876,-0.33259302377700806,0.5384881496429443,-0.5071491599082947,-9.988021850585938
1745726120.9453518,0.007333929650485516,-0.021601298823952675,-0.332389771938324,0.3887409567832947,-0.5755259394645691,-9.747718811035156
1745726120.977862,-0.0006168849649839103,-0.021215375512838364,-0.3326151967048645,0.5460504293441772,-0.61273193359375,-9.553634643554688
1745726120.9779918,0.008403937332332134,-0.023291941732168198,-0.3304422199726105,0.3924039602279663,-0.6121540665626526,-9.793587684631348
1745726120.978092,0.013277334161102772,-0.01907050609588623,-0.3311084508895874,0.5177515149116516,-0.6792577505111694,-9.822949409484863
1745726120.978156,0.006093843840062618,-0.020664876326918602,-0.3279173672199249,0.4323543608188629,-0.5880411267280579,-9.733030319213867
1745726121.0048137,0.01597452163696289,-0.016134146600961685,-0.33132636547088623,0.4079724848270416,-0.7185177803039551,-9.597084045410156
1745726121.0087,0.0020893740002065897,-0.023683760315179825,-0.3321632742881775,0.570641279220581,-0.5757012367248535,-9.717348098754883
1745726121.0212083,0.005103891249746084,-0.020664598792791367,-0.3337480127811432,0.3416821360588074,-0.638799786567688,-9.97370719909668
1745726121.022397,0.029490560293197632,-0.01677524670958519,-0.3326592743396759,0.4518001973628998,-0.6148204803466797,-9.765889167785645
1745726121.0245726,0.02932077646255493,-0.013626039028167725,-0.3304620385169983,0.48165789246559143,-0.7353011965751648,-9.783052444458008
1745726121.0470521,0.028832459822297096,-0.01989174261689186,-0.3321567177772522,0.5248290300369263,-0.5961899757385254,-9.72108268737793
1745726121.0484636,0.029552418738603592,-0.014260686933994293,-0.3326263725757599,0.32429075241088867,-0.667922854423523,-9.75965690612793
1745726121.050186,0.027908289805054665,-0.01709098368883133,-0.3335418999195099,0.5615681409835815,-0.7300626039505005,-9.724382400512695
1745726121.0524704,0.028308328241109848,-0.01527800690382719,-0.33296212553977966,0.3484959900379181,-0.5437377691268921,-9.813374519348145
1745726121.189455,0.02650400437414646,-0.011873766779899597,-0.3348374366760254,0.43990612030029297,-0.7548460960388184,-9.752775192260742
1745726121.1895592,0.022725306451320648,-0.01808287389576435,-0.3329852223396301,0.5731843709945679,-0.6909693479537964,-9.792957305908203
1745726121.1898503,0.03242650628089905,-0.011562232859432697,-0.3296869695186615,0.38001036643981934,-0.670089840888977,-9.820271492004395
1745726121.189952,0.026054849848151207,-0.019808271899819374,-0.33111506700515747,0.5709295272827148,-0.6762742400169373,-9.754557609558105
1745726121.1900592,0.031131526455283165,-0.012808194383978844,-0.3312823474407196,0.34371286630630493,-0.5284093022346497,-9.742522239685059
1745726121.1901228,0.028247559443116188,-0.012837928719818592,-0.3327988088130951,0.5312143564224243,-0.7788866758346558,-9.67786693572998
1745726121.1901708,0.029870396479964256,-0.020374808460474014,-0.33199185132980347,0.5283770561218262,-0.5925086736679077,-9.74006175994873
1745726121.190218,0.026738464832305908,-0.013042643666267395,-0.3294069170951843,0.3733040392398834,-0.7841615676879883,-9.895061492919922
1745726121.1902637,0.02475586161017418,-0.014202172867953777,-0.33062949776649475,0.511709988117218,-0.7364479899406433,-9.766725540161133
1745726121.1903102,0.02452418953180313,-0.01424030028283596,-0.3305986821651459,0.3159589469432831,-0.5881665945053101,-9.664133071899414
1745726121.1903644,0.020032260566949844,-0.016520053148269653,-0.3305899202823639,0.5749789476394653,-0.7756337523460388,-9.685745239257812
1745726121.1904106,0.02007058635354042,-0.01933135837316513,-0.3319181799888611,0.5506680607795715,-0.6696906089782715,-10.001623153686523
1745726121.1904538,0.026252275332808495,-0.011962983757257462,-0.32919740676879883,0.3812622129917145,-0.7442576289176941,-9.976203918457031
1745726121.2217762,0.024218762293457985,-0.022333024069666862,-0.3278919458389282,0.5107567310333252,-0.7174174785614014,-9.594301223754883
1745726121.2262814,0.01712665893137455,-0.019518133252859116,-0.321896493434906,0.625862717628479,-0.8021279573440552,-9.692166328430176
1745726121.2362034,0.026694277301430702,-0.021298866719007492,-0.3225797116756439,0.3516665995121002,-0.5768615007400513,-9.712928771972656
1745726121.2363822,0.01632038876414299,-0.014015731401741505,-0.3210638165473938,0.486145555973053,-0.8341323733329773,-9.787698745727539
1745726121.2619917,0.020368222147226334,-0.020578989759087563,-0.32176247239112854,0.457114040851593,-0.6741779446601868,-9.79435920715332
1745726121.2645192,0.011206438764929771,-0.01180180348455906,-0.3216642737388611,0.34102970361709595,-0.6798736453056335,-9.728960990905762
1745726121.2659433,0.006020546890795231,-0.023043449968099594,-0.3223848044872284,0.5721434354782104,-0.7753288149833679,-9.75048828125
1745726121.266977,0.012792428955435753,-0.017982782796025276,-0.3223041892051697,0.4013203978538513,-0.6459124684333801,-9.9237699508667
1745726121.269899,0.00965910591185093,-0.013857638463377953,-0.3208099603652954,0.5316861867904663,-0.8146651387214661,-9.795122146606445
1745726121.4339056,0.011443281546235085,-0.02448696456849575,-0.3177538514137268,0.4185939431190491,-0.6225060224533081,-9.689384460449219
1745726121.4339588,0.015558434650301933,-0.011792153120040894,-0.31802815198898315,0.36461299657821655,-0.6928175091743469,-9.666537284851074
1745726121.4340653,0.011649200692772865,-0.019419485703110695,-0.3166589140892029,0.5520569086074829,-0.6762419939041138,-9.76466178894043
1745726121.434115,0.02588464319705963,-0.017207788303494453,-0.31574714183807373,0.31775370240211487,-0.5338819622993469,-9.746782302856445
1745726121.4342172,0.012275679968297482,-0.016850214451551437,-0.31976327300071716,0.5563082695007324,-0.7247809171676636,-9.720967292785645
1745726121.4343097,0.02160220593214035,-0.01908709481358528,-0.31898024678230286,0.38219937682151794,-0.612238347530365,-9.829743385314941
1745726121.4343753,0.017364604398608208,-0.01050188671797514,-0.31902962923049927,0.4143037796020508,-0.7043034434318542,-9.736872673034668
1745726121.4344487,0.006482766475528479,-0.019862089306116104,-0.320237398147583,0.5082611441612244,-0.6975744962692261,-9.633036613464355
1745726121.4345481,-0.0031582650262862444,-0.024500321596860886,-0.3178654611110687,0.5274537205696106,-0.7082964777946472,-9.626347541809082
1745726121.434596,0.012152895331382751,-0.020749785006046295,-0.31828346848487854,0.3866345286369324,-0.7280057072639465,-9.83720588684082
1745726121.4346533,-0.0010562535608187318,-0.021136047318577766,-0.3183792233467102,0.5034031867980957,-0.6769123673439026,-9.843610763549805
1745726121.4347112,0.005963105708360672,-0.021928608417510986,-0.3181309998035431,0.26625651121139526,-0.5859987139701843,-9.755223274230957
1745726121.4347568,0.00480778981000185,-0.017799921333789825,-0.3188839852809906,0.46546798944473267,-0.7572747468948364,-9.64711856842041
1745726121.4356968,0.006945627275854349,-0.022032974287867546,-0.3182157874107361,0.404684454202652,-0.5128214955329895,-9.806571960449219
1745726121.4395154,0.016223309561610222,-0.01957322284579277,-0.3192168176174164,0.3612115979194641,-0.5910800099372864,-9.812651634216309
1745726121.4413502,0.013510172255337238,-0.019592002034187317,-0.31946635246276855,0.5329338908195496,-0.6058570146560669,-9.648397445678711
1745726121.4438453,0.01930009387433529,-0.021894041448831558,-0.31853312253952026,0.38454318046569824,-0.6601496338844299,-9.698493957519531
1745726121.477097,0.020807132124900818,-0.020531537011265755,-0.3164827823638916,0.5467296242713928,-0.7579253911972046,-9.71830940246582
1745726121.4801488,0.00971122644841671,-0.021177180111408234,-0.31643423438072205,0.39560240507125854,-0.685012936592102,-9.873229026794434
1745726121.481584,0.02300827018916607,-0.013109996914863586,-0.31720247864723206,0.33507686853408813,-0.7261613607406616,-9.649908065795898
1745726121.485132,0.01020424347370863,-0.018123425543308258,-0.3152734637260437,0.48884573578834534,-0.5848560929298401,-9.561347961425781
1745726121.4890068,0.01934935711324215,-0.02218933030962944,-0.31912121176719666,0.3064725697040558,-0.6206647157669067,-9.822030067443848
1745726121.5201225,0.014020165428519249,-0.016313305124640465,-0.3175702691078186,0.5510958433151245,-0.7121070027351379,-9.968025207519531
1745726121.5239692,0.021830113604664803,-0.016155080869793892,-0.3195883333683014,0.31133708357810974,-0.5385608673095703,-9.833163261413574
1745726121.5277746,0.02294815331697464,-0.01663314923644066,-0.31909412145614624,0.3904208838939667,-0.7527881860733032,-9.524518013000488
1745726121.532042,0.016542593017220497,-0.020247522741556168,-0.31765228509902954,0.5652903914451599,-0.7090052962303162,-9.675921440124512
1745726121.6779854,0.019316384568810463,-0.018641937524080276,-0.313654363155365,0.4253745973110199,-0.787604033946991,-10.041936874389648
1745726121.6780984,0.017824891954660416,-0.019305478781461716,-0.31414422392845154,0.5289023518562317,-0.7915272116661072,-9.797623634338379
1745726121.678258,0.012085514143109322,-0.018453074619174004,-0.3132571578025818,0.2842468023300171,-0.6307758092880249,-9.583436965942383
1745726121.6783383,0.021866044029593468,-0.01869930699467659,-0.31176936626434326,0.2795397639274597,-0.6390163898468018,-9.744119644165039
1745726121.678447,0.029000183567404747,-0.013332794420421124,-0.3139762282371521,0.45653119683265686,-0.7549570202827454,-9.82901382446289
1745726121.6785336,0.025786954909563065,-0.015805387869477272,-0.31431156396865845,0.34821993112564087,-0.5227993726730347,-9.737464904785156
1745726121.6786156,0.027102049440145493,-0.013726865872740746,-0.31692785024642944,0.3664502203464508,-0.7532733082771301,-9.660734176635742
1745726121.6786857,0.016187023371458054,-0.02254570461809635,-0.3152945041656494,0.6058864593505859,-0.7137835025787354,-9.812402725219727
1745726121.6787405,0.02701422944664955,-0.010609973222017288,-0.3161102533340454,0.29656368494033813,-0.6456490159034729,-9.957590103149414
1745726121.6787853,0.02373615838587284,-0.016157642006874084,-0.3144359588623047,0.49968037009239197,-0.7801522016525269,-9.722355842590332
1745726121.678835,0.02895047888159752,-0.016784554347395897,-0.31272345781326294,0.3842856287956238,-0.6047717928886414,-9.624408721923828
1745726121.6788816,0.023005913943052292,-0.0152669008821249,-0.31242427229881287,0.45835408568382263,-0.7787220478057861,-9.76881217956543
1745726121.6789274,0.027276823297142982,-0.023087242618203163,-0.31142446398735046,0.44348883628845215,-0.6015541553497314,-9.928865432739258
1745726121.697086,0.03022628091275692,-0.011761493980884552,-0.31345441937446594,0.2508137822151184,-0.6616343259811401,-9.762588500976562
1745726121.6971421,0.025380056351423264,-0.018683647736907005,-0.3155219554901123,0.48676228523254395,-0.7547003626823425,-9.539175033569336
1745726121.6988268,0.028884148225188255,-0.018021520227193832,-0.3132324814796448,0.31975966691970825,-0.5431450009346008,-9.72292423248291
1745726121.7003353,0.024702567607164383,-0.01733424887061119,-0.31462016701698303,0.43361711502075195,-0.8036884069442749,-9.912653923034668
1745726121.7350404,0.02437201701104641,-0.01883148029446602,-0.3137284219264984,0.48019179701805115,-0.6485204696655273,-9.806018829345703
1745726121.7398162,0.03781963512301445,-0.011790516786277294,-0.3108433783054352,0.36169004440307617,-0.688123345375061,-9.772062301635742
1745726121.7432141,0.0402078703045845,-0.0038699477445334196,-0.31221622228622437,0.4343632161617279,-0.670906662940979,-9.739839553833008
1745726121.7458017,0.03289146348834038,-0.013422061689198017,-0.313614159822464,0.4848138689994812,-0.6435984969139099,-9.745912551879883
1745726121.7492402,0.04036582261323929,-0.00812507327646017,-0.3139689564704895,0.328517347574234,-0.6278929710388184,-9.847686767578125
1745726121.7795982,0.038831163197755814,-0.005273676011711359,-0.31560713052749634,0.5393208861351013,-0.7320767641067505,-9.757728576660156
1745726121.7811658,0.04515429213643074,-0.01605226844549179,-0.3119153380393982,0.3164978325366974,-0.6379868388175964,-9.833051681518555
1745726121.7858765,0.04502049833536148,-0.007927591912448406,-0.3126677870750427,0.46841374039649963,-0.8210963010787964,-9.78048038482666
1745726121.9246645,0.04236026853322983,-0.01372296642512083,-0.3077636659145355,0.46834641695022583,-0.6533411741256714,-9.768631935119629
1745726121.9247506,0.05381214618682861,-0.008076069876551628,-0.3084043860435486,0.3443215489387512,-0.747471272945404,-9.686342239379883
1745726121.9248168,0.036461375653743744,-0.013400745578110218,-0.30838721990585327,0.5689443945884705,-0.7629459500312805,-9.650702476501465
1745726121.9248807,0.052126310765743256,-0.012186465784907341,-0.3103560209274292,0.32993680238723755,-0.6852509379386902,-9.837427139282227
1745726121.924924,0.048047713935375214,-0.0024168994277715683,-0.3081277310848236,0.43377694487571716,-0.7296220064163208,-9.697783470153809
1745726121.9249969,0.0438884012401104,-0.012472002767026424,-0.3114400804042816,0.35659247636795044,-0.7383224368095398,-9.671475410461426
1745726121.9251125,0.04388828203082085,-0.006466154009103775,-0.31156033277511597,0.3699915409088135,-0.7804332971572876,-9.780889511108398
1745726121.9252021,0.038560040295124054,-0.00741733331233263,-0.31027930974960327,0.5257071256637573,-0.75428307056427,-9.828532218933105
1745726121.9252653,0.048727940768003464,-0.00806854572147131,-0.31033363938331604,0.2775039076805115,-0.6952721476554871,-9.78445816040039
1745726121.9253318,0.041127968579530716,-0.005963246338069439,-0.308009535074234,0.5279402732849121,-0.8171535730361938,-9.638402938842773
1745726121.9253972,0.0388338640332222,-0.012592509388923645,-0.30814358592033386,0.4446013867855072,-0.7393631935119629,-9.824557304382324
1745726121.9254344,0.045782364904880524,-0.007195529527962208,-0.30830660462379456,0.39401155710220337,-0.7835456132888794,-9.875749588012695
1745726121.9254713,0.0319601371884346,-0.010937628336250782,-0.30637747049331665,0.5070865750312805,-0.7962730526924133,-9.696880340576172
1745726121.925506,0.03112764097750187,-0.0084976302459836,-0.3062436580657959,0.2843567430973053,-0.729098916053772,-9.848661422729492
1745726121.9521806,0.030957499518990517,-0.00856164563447237,-0.3083292841911316,0.5317388772964478,-0.6330517530441284,-9.57887077331543
1745726121.954871,0.03491578996181488,-0.013905957341194153,-0.30859464406967163,0.3095802664756775,-0.6021797060966492,-9.670231819152832
1745726121.956461,0.03533945605158806,-0.012257320806384087,-0.31289637088775635,0.533187747001648,-0.7974472641944885,-9.859870910644531
1745726121.9601896,0.03483355790376663,-0.012795965187251568,-0.30795225501060486,0.4670449197292328,-0.7184769511222839,-9.909531593322754
1745726121.99284,0.04108826071023941,-0.007933560758829117,-0.3091348111629486,0.25466811656951904,-0.8795506358146667,-9.715431213378906
1745726121.995734,0.032148826867341995,-0.012874910607933998,-0.3073139786720276,0.5880496501922607,-0.8340074419975281,-9.590754508972168
1745726121.998397,0.03218734264373779,-0.01246648095548153,-0.3055155873298645,0.3901156187057495,-0.74445641040802,-9.89697551727295
1745726122.0006323,0.03210797533392906,-0.01430789940059185,-0.30581796169281006,0.5548840165138245,-0.8882297277450562,-9.935304641723633
1745726122.0042603,0.02802230790257454,-0.016759511083364487,-0.31000328063964844,0.41287359595298767,-0.6877857446670532,-9.695005416870117
1745726122.170534,0.0257545355707407,-0.014311274513602257,-0.30614882707595825,0.35816532373428345,-0.8782833814620972,-9.585378646850586
1745726122.170593,0.023017525672912598,-0.018730076029896736,-0.309127539396286,0.5080032348632812,-0.7416750192642212,-9.695494651794434
1745726122.1706738,0.02562619373202324,-0.012814207002520561,-0.3080975413322449,0.2923465371131897,-0.7768153548240662,-9.955011367797852
1745726122.1707253,0.020254498347640038,-0.017011865973472595,-0.3080037534236908,0.5479323267936707,-0.8272653818130493,-9.756667137145996
1745726122.1707873,0.026883304119110107,-0.01857202872633934,-0.30647405982017517,0.44399577379226685,-0.6646296381950378,-9.629887580871582
1745726122.1708379,0.0286953654140234,-0.013898180797696114,-0.3061263859272003,0.3366442620754242,-0.8256694078445435,-9.804364204406738
1745726122.1708915,0.02448238804936409,-0.021128199994564056,-0.2999778687953949,0.5423862934112549,-0.8987976908683777,-9.636768341064453
1745726122.170955,0.023931875824928284,-0.022767946124076843,-0.30214402079582214,0.40096911787986755,-0.7036916017532349,-9.689943313598633
1745726122.1709864,0.022143376991152763,-0.0190520491451025,-0.3036684989929199,0.4334677755832672,-0.8906546831130981,-9.816956520080566
1745726122.1710162,0.01590721122920513,-0.02555006369948387,-0.3028544783592224,0.5173237919807434,-0.7761896848678589,-9.755764961242676
1745726122.1710455,0.019951384514570236,-0.01980450376868248,-0.30200332403182983,0.3718779683113098,-0.8853178024291992,-9.660017013549805
1745726122.1710744,0.012955749407410622,-0.019813356921076775,-0.3007778823375702,0.4239199161529541,-0.9129834175109863,-9.752312660217285
1745726122.1711028,0.019968777894973755,-0.024498572573065758,-0.29817143082618713,0.365466833114624,-0.7347134351730347,-9.851301193237305
1745726122.1711292,0.020267637446522713,-0.021291032433509827,-0.29666104912757874,0.42691516876220703,-0.7804078459739685,-9.78265380859375
1745726122.1737235,0.022353505715727806,-0.024679573252797127,-0.2959117889404297,0.3879096210002899,-0.6917314529418945,-9.767376899719238
1745726122.1748154,0.029377426952123642,-0.020937878638505936,-0.2994058132171631,0.30307310819625854,-0.6406058669090271,-9.630743026733398
1745726122.1778393,0.022313717752695084,-0.025871921330690384,-0.2990432381629944,0.5304601788520813,-0.8081589937210083,-9.680917739868164
1745726122.2098207,0.026591937988996506,-0.022861184552311897,-0.29996931552886963,0.3916877806186676,-0.780031681060791,-9.777935981750488
1745726122.2144535,0.020282011479139328,-0.02154356986284256,-0.2995777726173401,0.5186749696731567,-0.9842292070388794,-9.842772483825684
1745726122.2161782,0.01316908746957779,-0.025748899206519127,-0.2981983721256256,0.4079771935939789,-0.8196427226066589,-9.733363151550293
1745726122.2199774,0.013059589080512524,-0.018315929919481277,-0.2979569733142853,0.4103551506996155,-0.9059889912605286,-9.565164566040039
1745726122.2221937,0.004485154990106821,-0.02236032858490944,-0.2985656261444092,0.47040605545043945,-0.8254660367965698,-9.699139595031738
1745726122.254715,0.01336459256708622,-0.02350861020386219,-0.29704681038856506,0.40034398436546326,-0.7164823412895203,-9.897726058959961
1745726122.2574346,0.008162316866219044,-0.02363021858036518,-0.298372745513916,0.4563870429992676,-0.8300121426582336,-9.859153747558594
1745726122.260979,0.012775173410773277,-0.0252318624407053,-0.2953422963619232,0.29891476035118103,-0.7890222668647766,-9.761030197143555
1745726122.2635522,0.01060596015304327,-0.021913757547736168,-0.29490530490875244,0.28732869029045105,-0.8485697507858276,-9.585756301879883
1745726122.4728527,0.009776575490832329,-0.022483306005597115,-0.2963367700576782,0.3330441117286682,-0.783889889717102,-9.647008895874023
1745726122.4730377,0.0020357307512313128,-0.025251779705286026,-0.29494166374206543,0.5536535978317261,-0.8583042025566101,-9.742681503295898
1745726122.4731534,0.0047388626262545586,-0.026513677090406418,-0.29364603757858276,0.3280005156993866,-0.7517943382263184,-9.849357604980469
1745726122.4732401,0.0005953742074780166,-0.019628500565886497,-0.2947040796279907,0.46668195724487305,-0.9187361001968384,-9.624009132385254
1745726122.4733155,-0.0041895536705851555,-0.025400524958968163,-0.2934730052947998,0.39461857080459595,-0.712867259979248,-9.695934295654297
1745726122.4734151,0.004562072455883026,-0.022399695590138435,-0.2950378954410553,0.3706212043762207,-0.7777527570724487,-9.830958366394043
1745726122.473498,-0.0033457898534834385,-0.025347108021378517,-0.29219818115234375,0.5078641176223755,-0.7444372177124023,-9.866584777832031
1745726122.4736116,0.0011894291965290904,-0.023648779839277267,-0.29580962657928467,0.25963765382766724,-0.764055073261261,-9.791088104248047
1745726122.4736807,0.00037243292899802327,-0.02287209965288639,-0.2929399013519287,0.42411667108535767,-0.8188427686691284,-9.583869934082031
1745726122.4737337,-0.0078080021776258945,-0.0280589796602726,-0.29303544759750366,0.40429362654685974,-0.7278320789337158,-9.763472557067871
1745726122.47379,0.004641746170818806,-0.02123369835317135,-0.2936297059059143,0.41713079810142517,-0.7418279647827148,-9.873621940612793
1745726122.4738457,0.0035486991982907057,-0.021799325942993164,-0.2931864857673645,0.5233368873596191,-0.7159075140953064,-9.718953132629395
1745726122.473894,0.006255543325096369,-0.024917075410485268,-0.2942435145378113,0.28992947936058044,-0.6607602834701538,-9.625314712524414
1745726122.4739323,0.0038991947658360004,-0.020325209945440292,-0.29489564895629883,0.4938955307006836,-0.83379727602005,-9.671171188354492
1745726122.4739711,0.00621503870934248,-0.021838951855897903,-0.294712632894516,0.3138898015022278,-0.6757649183273315,-9.918038368225098
1745726122.4740093,0.010594278573989868,-0.01718083769083023,-0.2933944761753082,0.3772621154785156,-0.8954730033874512,-9.685473442077637
1745726122.4740474,0.002943448256701231,-0.016836004331707954,-0.2903953194618225,0.6016237735748291,-0.7411551475524902,-9.677499771118164
1745726122.4740858,0.0021378728561103344,-0.018973801285028458,-0.2918095588684082,0.39654797315597534,-0.6769834160804749,-9.865099906921387
1745726122.4741237,0.006663000676780939,-0.014190497808158398,-0.29298368096351624,0.3564421236515045,-0.7848759889602661,-9.77726936340332
1745726122.474522,0.0017003256361931562,-0.020102914422750473,-0.290976345539093,0.4511858820915222,-0.725218653678894,-9.61133098602295
1745726122.478281,0.008380508050322533,-0.009955540299415588,-0.2915288805961609,0.21059730648994446,-0.69318687915802,-9.7099609375
1745726122.4818635,0.007570292800664902,-0.016903141513466835,-0.28983163833618164,0.5323283076286316,-0.8342980146408081,-9.74204158782959
1745726122.5162737,0.008470828644931316,-0.01849004440009594,-0.2887711822986603,0.36443573236465454,-0.6648420095443726,-9.916738510131836
1745726122.5172384,0.009107949212193489,-0.011732841841876507,-0.2900097072124481,0.33825919032096863,-0.8395466804504395,-9.785428047180176
1745726122.522298,0.01013620663434267,-0.017915615811944008,-0.2889938950538635,0.39717721939086914,-0.6790568828582764,-9.651752471923828
1745726122.5268424,0.012559233233332634,-0.012159495614469051,-0.288690447807312,0.27304607629776,-0.7293294072151184,-9.724271774291992
1745726122.5523994,0.006849960889667273,-0.013736745342612267,-0.2899605333805084,0.6058275699615479,-0.7490047216415405,-9.7462797164917
1745726122.5568902,0.010143093764781952,-0.0157826729118824,-0.2914949655532837,0.31822556257247925,-0.6566389799118042,-9.881278991699219
1745726122.5607505,0.015006348490715027,-0.009134042076766491,-0.291887104511261,0.35184118151664734,-0.7907841801643372,-9.709471702575684
1745726122.5659716,0.006317145191133022,-0.017614256590604782,-0.29233431816101074,0.49795666337013245,-0.6916071176528931,-9.581380844116211
1745726122.5702853,0.013540816493332386,-0.009497134014964104,-0.292113721370697,0.3045424818992615,-0.7514365315437317,-9.764748573303223
1745726122.5972316,0.005762535147368908,-0.013415765948593616,-0.2896387279033661,0.5272845029830933,-0.8011568188667297,-9.861013412475586
1745726122.6011758,0.01409805379807949,-0.012070784345269203,-0.2914716303348541,0.29467257857322693,-0.6783314943313599,-9.81855583190918
1745726122.6051962,0.009424910880625248,-0.009264552034437656,-0.28966596722602844,0.4256390631198883,-0.8355123400688171,-9.585641860961914
1745726122.6091013,0.010210724547505379,-0.01662846840918064,-0.2897820770740509,0.38417676091194153,-0.671068549156189,-9.752274513244629
1745726122.6400964,0.015503483824431896,-0.009018887765705585,-0.2892180383205414,0.27743226289749146,-0.7348895072937012,-9.922731399536133
1745726122.645837,0.01335762720555067,-0.011656497605144978,-0.29010581970214844,0.2868140637874603,-0.76924067735672,-9.910425186157227
1745726122.6485834,0.015165336430072784,-0.011196949519217014,-0.2894051671028137,0.40938329696655273,-0.8067060708999634,-9.697908401489258
1745726122.6530035,0.016185447573661804,-0.016337905079126358,-0.28718143701553345,0.3840678036212921,-0.6042588949203491,-9.551698684692383
1745726122.6823685,0.01418460626155138,-0.008664947934448719,-0.2895856201648712,0.46070680022239685,-0.7788770794868469,-9.723119735717773
1745726122.6847162,0.011435307562351227,-0.01786920614540577,-0.29003503918647766,0.5395143628120422,-0.7730631232261658,-9.932046890258789
1745726122.6875882,0.01636975072324276,-0.012680674903094769,-0.28895723819732666,0.30821263790130615,-0.7507985830307007,-9.795137405395508
1745726122.6903613,0.001361684175208211,-0.015626493841409683,-0.2889246940612793,0.4643053114414215,-0.922247588634491,-9.645620346069336
1745726122.6916943,0.00848485343158245,-0.01677003875374794,-0.28752386569976807,0.2878709137439728,-0.7282580137252808,-9.752795219421387
1745726122.72666,-0.0008949272450990975,-0.011888380162417889,-0.2866165339946747,0.4224708080291748,-0.8038896322250366,-9.845333099365234
1745726122.7289917,0.0037849782966077328,-0.017203575000166893,-0.2889018952846527,0.44301527738571167,-0.6453813314437866,-9.738247871398926
1745726122.7318685,0.010957998223602772,-0.014301203191280365,-0.28874698281288147,0.3434281051158905,-0.7062745094299316,-9.660825729370117
1745726122.7344713,0.011115919798612595,-0.01647254452109337,-0.29000335931777954,0.48146748542785645,-0.7150740027427673,-9.792668342590332
1745726122.7699285,0.01882724091410637,-0.01855236291885376,-0.28879135847091675,0.3035578727722168,-0.6183942556381226,-9.888237953186035
1745726122.7723496,0.013794784434139729,-0.01042205560952425,-0.2904277741909027,0.4235225319862366,-0.8150774836540222,-9.684469223022461
1745726122.7777843,0.010909514501690865,-0.01792503520846367,-0.28766971826553345,0.44454139471054077,-0.7963628172874451,-9.654886245727539
1745726122.7778466,0.015857363119721413,-0.017007187008857727,-0.28943580389022827,0.3767158091068268,-0.8114822506904602,-9.729720115661621
1745726122.8149338,0.007733884267508984,-0.018770603463053703,-0.2923509180545807,0.5419361591339111,-0.8768068552017212,-9.8322172164917
1745726122.819522,0.009455898776650429,-0.017938917502760887,-0.2926032245159149,0.37667542695999146,-0.6746587753295898,-9.961488723754883
1745726122.8238537,0.014132666401565075,-0.0169692300260067,-0.2900593876838684,0.36858248710632324,-0.8114542961120605,-9.698226928710938
1745726122.8273811,0.007916813716292381,-0.021636515855789185,-0.2890535891056061,0.5314873456954956,-0.6913858652114868,-9.554998397827148
1745726122.8322675,0.013788342475891113,-0.019302180036902428,-0.28778257966041565,0.32403844594955444,-0.7299154996871948,-9.843694686889648
1745726122.8609905,0.017105430364608765,-0.019846495240926743,-0.289414644241333,0.4827410578727722,-0.6909303665161133,-9.846481323242188
1745726122.8630393,0.013913316652178764,-0.021308276802301407,-0.29025426506996155,0.2995229959487915,-0.6145244836807251,-9.754300117492676
1745726122.867748,0.017533665522933006,-0.015084546990692616,-0.29183220863342285,0.3328368067741394,-0.7991778254508972,-9.576970100402832
1745726122.8722906,0.01379668153822422,-0.023703323677182198,-0.29317790269851685,0.485251247882843,-0.6565519571304321,-9.691058158874512
1745726122.8978999,0.013688030652701855,-0.019267816096544266,-0.2919836640357971,0.33296000957489014,-0.7731882333755493,-9.933526039123535
1745726122.9008722,0.00625963369384408,-0.0220979955047369,-0.29322725534439087,0.5675294995307922,-0.8966347575187683,-9.86194896697998
1745726122.9023006,0.017906710505485535,-0.0168857853859663,-0.29075324535369873,0.3172784447669983,-0.635388195514679,-9.696185111999512
1745726122.9125056,0.014021064154803753,-0.020233388990163803,-0.28979355096817017,0.4213438928127289,-0.7805727124214172,-9.58748722076416
1745726122.9415615,0.015587583184242249,-0.02262958325445652,-0.291904091835022,0.4546760022640228,-0.5996832251548767,-9.803616523742676
1745726122.9416265,0.020822562277317047,-0.01727212965488434,-0.2899346947669983,0.32632356882095337,-0.6989191770553589,-9.886346817016602
1745726122.9438655,0.018932528793811798,-0.02307181991636753,-0.29144087433815,0.44551005959510803,-0.7179061770439148,-9.6471586227417
1745726122.9458268,0.019464898854494095,-0.019795218482613564,-0.29252889752388,0.28923505544662476,-0.6770091652870178,-9.656549453735352
1745726122.9478471,0.01924271509051323,-0.0177309587597847,-0.29287976026535034,0.470637708902359,-0.8664559125900269,-9.743400573730469
1745726122.985896,0.014434968121349812,-0.02237255871295929,-0.29189130663871765,0.39274701476097107,-0.6437293887138367,-9.859419822692871
1745726122.986549,0.01826963946223259,-0.01742227002978325,-0.2928500175476074,0.3312290906906128,-0.8017020225524902,-9.74216365814209
1745726122.9899545,0.023464849218726158,-0.02454044483602047,-0.29064422845840454,0.47827401757240295,-0.7551785111427307,-9.467790603637695
1745726122.9937937,0.024592550471425056,-0.022327067330479622,-0.2907869815826416,0.3671422004699707,-0.6675493121147156,-9.797148704528809
1745726123.0283258,0.028306003659963608,-0.019314156845211983,-0.28948959708213806,0.4447422921657562,-0.833112359046936,-10.004495620727539
1745726123.0300374,0.030041519552469254,-0.020299749448895454,-0.2911515235900879,0.3998081386089325,-0.6352218389511108,-9.728578567504883
1745726123.032535,0.022090865299105644,-0.01769225485622883,-0.29186931252479553,0.3431532382965088,-0.8468648195266724,-9.527539253234863
1745726123.0341008,0.01651468500494957,-0.026739919558167458,-0.28910014033317566,0.5460140109062195,-0.8196640014648438,-9.740381240844727
1745726123.0361714,0.017427843064069748,-0.018075697124004364,-0.2926275432109833,0.29574719071388245,-0.6578013300895691,-10.031042098999023
1745726123.0731177,0.01677742972970009,-0.016576528549194336,-0.2931463122367859,0.4011721611022949,-0.9012436866760254,-9.696882247924805
1745726123.0731912,0.00972749199718237,-0.02141851745545864,-0.29229098558425903,0.46775442361831665,-0.719680666923523,-9.542328834533691
1745726123.0757594,0.0149521604180336,-0.019098084419965744,-0.29147231578826904,0.4023434519767761,-0.7329497337341309,-9.836233139038086
1745726123.0778317,0.016207490116357803,-0.02270377427339554,-0.2917892038822174,0.41043439507484436,-0.7097547054290771,-10.034624099731445
1745726123.113854,0.027660023421049118,-0.015317288227379322,-0.29255372285842896,0.2768537998199463,-0.6652087569236755,-9.708277702331543
1745726123.1155758,0.01855132356286049,-0.02070644125342369,-0.2896363139152527,0.494576632976532,-0.7944934964179993,-9.457850456237793
1745726123.11819,0.024835091084241867,-0.027240866795182228,-0.29001548886299133,0.36884868144989014,-0.6639333367347717,-9.83512020111084
1745726123.121552,0.025422489270567894,-0.015099803917109966,-0.29230156540870667,0.34192878007888794,-0.7502016425132751,-9.963132858276367
1745726123.122887,0.020205143839120865,-0.019839661195874214,-0.2917236387729645,0.4669314920902252,-0.784037709236145,-9.603681564331055
1745726123.1585646,0.022142183035612106,-0.013516892679035664,-0.29925745725631714,0.3159918785095215,-0.6782780289649963,-9.769018173217773
1745726123.1600404,0.009350019507110119,-0.013445014134049416,-0.29960066080093384,0.5341553092002869,-0.911038875579834,-9.444639205932617
1745726123.1622243,0.015120399184525013,-0.02076716721057892,-0.29846835136413574,0.2632700502872467,-0.7472690939903259,-9.84245491027832
1745726123.1639524,0.014112097211182117,-0.009887093678116798,-0.29874318838119507,0.4577944874763489,-0.8333159685134888,-9.995763778686523
1745726123.1993647,0.011318711563944817,-0.014776185154914856,-0.2945960462093353,0.46799761056900024,-0.745538592338562,-9.724652290344238
1745726123.202203,0.023566246032714844,-0.012457577511668205,-0.2964487075805664,0.31197839975357056,-0.6764212846755981,-9.583102226257324
1745726123.205811,0.015048387460410595,-0.0208433847874403,-0.2955029010772705,0.4824538826942444,-0.6816637516021729,-9.774409294128418
1745726123.206275,0.028003742918372154,-0.016761941835284233,-0.2981468439102173,0.3068089187145233,-0.6069774627685547,-9.952402114868164
1745726123.244118,0.030091281980276108,-0.008946284651756287,-0.2988436818122864,0.38265281915664673,-0.7524600028991699,-9.555521011352539
1745726123.246849,0.028178423643112183,-0.01848127506673336,-0.30037498474121094,0.38960593938827515,-0.7049034833908081,-9.62378215789795
1745726123.2492552,0.03191831707954407,-0.012998397462069988,-0.2983957529067993,0.3497176766395569,-0.713745653629303,-9.85016918182373
1745726123.2517653,0.027810925617814064,-0.014395100995898247,-0.2979649603366852,0.5778270959854126,-0.8459693193435669,-9.814756393432617
1745726123.2869744,0.031247416511178017,-0.011624251492321491,-0.2977296710014343,0.22596299648284912,-0.7885639071464539,-9.707018852233887
1745726123.289768,0.02557876706123352,-0.015402604825794697,-0.2983333170413971,0.5124477744102478,-0.8877018690109253,-9.665885925292969
1745726123.2935643,0.02413266897201538,-0.015920056030154228,-0.29601961374282837,0.3756869435310364,-0.6820526123046875,-9.908432006835938
1745726123.2977886,0.030369067564606667,-0.008122044615447521,-0.2986854910850525,0.3505933880805969,-0.8520368337631226,-9.85163688659668
1745726123.3010898,0.018244938924908638,-0.017314773052930832,-0.2955515384674072,0.4772542119026184,-0.751740574836731,-9.563050270080566
1745726123.3293653,0.025807496160268784,-0.015229853801429272,-0.29797840118408203,0.25771889090538025,-0.6876058578491211,-9.691543579101562
1745726123.3320823,0.02259260043501854,-0.011315318755805492,-0.30075323581695557,0.4868852496147156,-0.7936477661132812,-9.797269821166992
1745726123.3390892,0.02827424369752407,-0.014419006183743477,-0.29894542694091797,0.3536634147167206,-0.6917649507522583,-9.851705551147461
1745726123.339181,0.03866620734333992,-0.011619898490607738,-0.2988399267196655,0.22095520794391632,-0.7444567680358887,-9.734039306640625
1745726123.3721445,0.03548064082860947,-0.01793612912297249,-0.29737478494644165,0.5575532913208008,-0.8083783984184265,-9.721678733825684
1745726123.3760595,0.03643926978111267,-0.01929793506860733,-0.29858171939849854,0.35505351424217224,-0.7732548713684082,-9.931681632995605
1745726123.3793085,0.029855161905288696,-0.01799984835088253,-0.2983831763267517,0.4635341167449951,-0.9820162653923035,-9.850517272949219
1745726123.381515,0.02917654439806938,-0.02108088694512844,-0.29342395067214966,0.35604050755500793,-0.7602584958076477,-9.702404022216797
1745726123.3850079,0.02490752935409546,-0.017454005777835846,-0.2961793839931488,0.32596355676651,-0.9038830995559692,-9.64180850982666
1745726123.4178946,0.019450416788458824,-0.01782996952533722,-0.29581406712532043,0.620794415473938,-0.7505830526351929,-9.725156784057617
1745726123.4193873,0.02615218795835972,-0.01873205602169037,-0.2968851923942566,0.30909910798072815,-0.7042607665061951,-9.86556625366211
1745726123.4206119,0.025812799111008644,-0.019805263727903366,-0.2989947199821472,0.4504114091396332,-0.8148166537284851,-9.730688095092773
1745726123.421655,0.022170189768075943,-0.02312980219721794,-0.2962852120399475,0.38263779878616333,-0.736135721206665,-9.643120765686035
1745726123.4581683,0.027979305014014244,-0.01592164859175682,-0.29686492681503296,0.28938835859298706,-0.8766889572143555,-9.766069412231445
1745726123.460144,0.022008970379829407,-0.023834742605686188,-0.29600024223327637,0.4878058433532715,-0.8395944833755493,-9.78991413116455
1745726123.4624693,0.02452743425965309,-0.017217854037880898,-0.29309365153312683,0.27501243352890015,-0.8027187585830688,-9.835710525512695
1745726123.467216,0.01664726808667183,-0.021406881511211395,-0.29493650794029236,0.5002118945121765,-0.9330779314041138,-9.678547859191895
1745726123.4688325,0.01844600774347782,-0.024640094488859177,-0.29544273018836975,0.36258694529533386,-0.7141911387443542,-9.75437068939209
1745726123.505778,0.014862501993775368,-0.018273890018463135,-0.29505643248558044,0.3736511766910553,-0.8903988599777222,-9.836442947387695
1745726123.5081127,-0.01569283939898014,-0.03263116627931595,-0.2638757526874542,0.1927376389503479,-0.6845126748085022,-9.416007041931152
1745726123.5098486,-0.0039061016868799925,-0.03542335703969002,-0.2639444172382355,0.30696526169776917,-0.8087803721427917,-9.935589790344238
1745726123.5454373,-0.0022224474232643843,-0.03607356920838356,-0.260567307472229,0.2458217889070511,-0.41203784942626953,-10.074939727783203
1745726123.548915,0.0047441027127206326,-0.030818864703178406,-0.2627703547477722,0.0562257282435894,-0.7753680944442749,-9.663423538208008
1745726123.5522952,0.008264081552624702,-0.042885731905698776,-0.2657896876335144,0.3348853588104248,-0.7339714765548706,-9.337973594665527
1745726123.555373,-0.007002178579568863,-0.038213033229112625,-0.2620416283607483,0.12067057937383652,-0.7563648223876953,-9.898228645324707
1745726123.5591614,-0.011295011267066002,-0.03382159024477005,-0.26135581731796265,0.2798217236995697,-1.0716469287872314,-10.084822654724121
1745726123.5889,-0.012175284326076508,-0.03653521090745926,-0.2568725645542145,0.3461633622646332,-0.9148648381233215,-9.608698844909668
1745726123.598758,-0.025910284370183945,-0.03386176377534866,-0.25319233536720276,0.23031847178936005,-0.9239307641983032,-9.464652061462402
1745726123.6020825,-0.03367481380701065,-0.0426979623734951,-0.25237876176834106,0.43490561842918396,-0.8133010864257812,-9.900118827819824
1745726123.6021833,-0.019143741577863693,-0.03286966681480408,-0.25327572226524353,0.08646754175424576,-0.5871700644493103,-10.065759658813477
1745726123.6320467,-0.020631093531847,-0.03362449258565903,-0.2516424059867859,0.2857501804828644,-0.7356373071670532,-9.555510520935059
1745726123.6336243,-0.018667062744498253,-0.04071062430739403,-0.24976535141468048,0.20952288806438446,-0.6004101634025574,-9.573347091674805
1745726123.6373994,-0.014591437764465809,-0.037986595183610916,-0.24885371327400208,0.034422148019075394,-0.7668458223342896,-9.969738960266113
1745726123.6429057,-0.009280012920498848,-0.03476247191429138,-0.24697811901569366,0.23241165280342102,-0.6212455630302429,-9.791621208190918
1745726123.6732142,-0.013825120404362679,-0.03444267436861992,-0.24833837151527405,0.16610872745513916,-0.7148777842521667,-9.519937515258789
1745726123.6788557,-0.009810715913772583,-0.04130296781659126,-0.24447493255138397,0.46587586402893066,-0.8460378646850586,-9.696948051452637
1745726123.6818228,-0.01585734635591507,-0.04099646583199501,-0.24355840682983398,0.2869648337364197,-0.5950835347175598,-10.167102813720703
1745726123.6845164,-0.010979535058140755,-0.03526252508163452,-0.2441788613796234,0.22581246495246887,-0.970293402671814,-9.925357818603516
1745726123.6883943,-0.014546357095241547,-0.04059302806854248,-0.24078813195228577,0.3124335706233978,-0.7479872703552246,-9.358589172363281
1745726123.7152789,-0.013349471613764763,-0.028822224587202072,-0.23302879929542542,0.15264792740345,-0.6081641316413879,-9.897788047790527
1745726123.7174466,-0.0326320081949234,-0.03524377569556236,-0.23117394745349884,0.3032156825065613,-0.6916331052780151,-9.474303245544434
1745726123.7245338,-0.013164269737899303,-0.037156447768211365,-0.2327604591846466,0.1946296989917755,-0.5904057025909424,-9.707053184509277
1745726123.724584,-0.02449006959795952,-0.03152962774038315,-0.23430976271629333,0.3586100935935974,-0.6828402280807495,-9.98483657836914
1745726123.7612014,-0.00943176168948412,-0.03088303841650486,-0.22908544540405273,0.28300970792770386,-0.749191164970398,-9.977278709411621
1745726123.7612364,-0.005921562202274799,-0.029530441388487816,-0.23089218139648438,0.1862953007221222,-0.562533974647522,-9.484135627746582
1745726123.764835,-0.018982738256454468,-0.03245649114251137,-0.22776496410369873,0.3792399764060974,-0.7529317736625671,-9.625330924987793
1745726123.7707152,-0.0008238473674282432,-0.02778812311589718,-0.22873172163963318,0.1350233256816864,-0.5861049890518188,-10.052949905395508
1745726123.8022556,-0.009929212741553783,-0.026637021452188492,-0.22904987633228302,0.38458776473999023,-0.7576881647109985,-9.89859676361084
1745726123.806513,-0.009744163602590561,-0.029784703627228737,-0.23155100643634796,0.1695784628391266,-0.6484557390213013,-9.66596794128418
1745726123.810269,-0.01692933775484562,-0.021072644740343094,-0.22805443406105042,0.19621625542640686,-0.8858431577682495,-9.6347074508667
1745726123.8130946,-0.022151703014969826,-0.029418539255857468,-0.22711744904518127,0.4521726667881012,-0.7552146315574646,-9.844161987304688
1745726123.8172522,-0.021040957421064377,-0.023378942161798477,-0.22518177330493927,0.1926422417163849,-0.7066494822502136,-10.004976272583008
1745726123.8477225,-0.020514003932476044,-0.019661489874124527,-0.2241961508989334,0.39608708024024963,-0.6636103391647339,-9.667683601379395
1745726123.8489013,-0.022116782143712044,-0.027843451127409935,-0.22417613863945007,0.2044205665588379,-0.4511186480522156,-9.640527725219727
1745726123.8508136,-0.009980425238609314,-0.01733545958995819,-0.22536861896514893,0.28151825070381165,-0.6237343549728394,-9.865155220031738
1745726123.852212,-0.010886024683713913,0.005538911558687687,-0.2175559252500534,0.2717360556125641,-0.6985449194908142,-9.6458158493042
1745726123.888845,-0.000625713262706995,-0.005733100231736898,-0.2151751071214676,0.36693206429481506,-0.5344529151916504,-9.592493057250977
1745726123.8915226,0.003405813593417406,-0.006463772151619196,-0.21538111567497253,0.23196275532245636,-0.5985391736030579,-9.900590896606445
1745726123.8929238,0.006545564625412226,0.005203737877309322,-0.2161388099193573,0.5043826103210449,-0.6002758145332336,-9.94137954711914
1745726123.894208,0.0016955736791715026,0.0009397921967320144,-0.2169046700000763,0.1340366154909134,-0.5075012445449829,-9.719581604003906
1745726123.8956275,0.011263248510658741,-0.0047195469960570335,-0.21666955947875977,0.42804160714149475,-0.7413013577461243,-9.465606689453125
1745726123.9325056,0.0012629230041056871,-0.004305497743189335,-0.21782369911670685,0.4452632963657379,-0.5949546098709106,-9.879905700683594
1745726123.933009,0.011850095354020596,0.0033738117199391127,-0.2188342809677124,0.1491645872592926,-0.737339973449707,-10.10776138305664
1745726123.936266,0.00532784778624773,0.00047577443183399737,-0.21635696291923523,0.3856484889984131,-0.5321232676506042,-9.52328109741211
1745726123.9370697,-0.0021380181424319744,-0.0005703974748030305,-0.21864375472068787,0.16695289313793182,-0.669522225856781,-9.521977424621582
1745726123.975959,0.01641209051012993,0.001762832747772336,-0.21758051216602325,0.3714058995246887,-0.7220016121864319,-9.816141128540039
1745726123.9788804,-0.0020654841791838408,-0.0022571368608623743,-0.220087930560112,0.3069673478603363,-0.5719509124755859,-9.992037773132324
1745726123.9803958,0.012305805459618568,0.007818222045898438,-0.22100487351417542,0.25077056884765625,-0.8222658038139343,-9.72889518737793
1745726123.9823582,0.0020883220713585615,0.0027206940576434135,-0.21685561537742615,0.3374376893043518,-0.6086040139198303,-9.435480117797852
1745726123.9860463,-0.0007710488280281425,-0.0003621654468588531,-0.2177627831697464,0.2596077024936676,-0.7677947282791138,-9.803037643432617
1745726124.0180137,0.007195102982223034,0.0078078075312078,-0.2183915674686432,0.4656831622123718,-0.6629098653793335,-9.957526206970215
1745726124.0201771,-0.008577353321015835,0.0016502204816788435,-0.218287393450737,0.2526457905769348,-0.5989644527435303,-9.8276948928833
1745726124.0235484,0.004133080132305622,0.0058423252776265144,-0.21838310360908508,0.2539157569408417,-0.7124019265174866,-9.487297058105469
1745726124.0260377,-0.01541269849985838,-0.0022104030940681696,-0.21825948357582092,0.4090498089790344,-0.6771677136421204,-9.678571701049805
1745726124.0632114,0.0043810163624584675,-0.0007985949632711709,-0.21706800162792206,0.2673063576221466,-0.6269134283065796,-10.033806800842285
1745726124.069297,-0.00406516483053565,0.006242113653570414,-0.2189018279314041,0.43334293365478516,-0.5084234476089478,-9.792217254638672
1745726124.0693872,-0.013116994872689247,-0.003431662218645215,-0.22136211395263672,0.4518044888973236,-0.8713022470474243,-9.389975547790527
1745726124.069431,0.0018663142109289765,-0.006548338569700718,-0.21983850002288818,0.34344682097435,-0.7366014719009399,-10.043211936950684
1745726124.1044607,-0.002296569524332881,0.002946502296254039,-0.21851515769958496,0.416050523519516,-0.6906238794326782,-10.072084426879883
1745726124.108744,-0.006728366948664188,0.0015597682213410735,-0.2161981612443924,0.21950499713420868,-0.5780714154243469,-9.55841064453125
1745726124.1122603,-0.002000683918595314,0.0005357791669666767,-0.21763089299201965,0.2702433466911316,-0.6179847121238708,-9.259623527526855
1745726124.1158338,0.005832216702401638,-0.005170161370187998,-0.216403529047966,0.4775822162628174,-0.5267577171325684,-9.9925537109375
1745726124.1482105,0.02073149010539055,0.00028525589732453227,-0.2192579060792923,0.23009279370307922,-0.33910536766052246,-10.179746627807617
1745726124.153661,0.01617353968322277,0.004543178714811802,-0.2208222895860672,0.3535020351409912,-0.69127357006073,-9.503190994262695
1745726124.157259,0.021576611325144768,-0.003934997133910656,-0.2160586416721344,0.23903913795948029,-0.5481737852096558,-9.31712818145752
1745726124.16691,0.021992556750774384,-0.005152967292815447,-0.21791903674602509,0.32015854120254517,-0.7278289198875427,-9.943090438842773
1745726124.1679537,0.015759076923131943,-0.0036619200836867094,-0.21231651306152344,0.3814789354801178,-0.7622304558753967,-10.19630241394043
1745726124.19296,0.017502237111330032,-0.004372589290142059,-0.21136648952960968,0.005203092470765114,-0.8070789575576782,-9.664104461669922
1745726124.1956756,-0.010131405666470528,-0.005487375892698765,-0.20741590857505798,0.2562980651855469,-0.7732387185096741,-9.249604225158691
1745726124.1991668,-0.011277241632342339,-0.012892027385532856,-0.20854489505290985,0.15605275332927704,-0.6060551404953003,-9.83084774017334
1745726124.2017303,0.002691443543881178,-0.008109895512461662,-0.20973460376262665,0.2861339747905731,-0.671092689037323,-10.085872650146484
1745726124.2338862,-0.027463946491479874,-0.019197162240743637,-0.18126873672008514,0.2588655948638916,-0.6710494756698608,-9.7006254196167
1745726124.235453,-0.010903560556471348,-0.022760899737477303,-0.18134033679962158,0.2606582045555115,-0.44503146409988403,-9.689839363098145
1745726124.238708,-0.021401578560471535,-0.01744091883301735,-0.181033656001091,0.20506469905376434,-0.6315200924873352,-9.856938362121582
1745726124.2406888,-0.027194922789931297,-0.02292298711836338,-0.18024949729442596,0.3515864908695221,-0.7784655690193176,-9.908449172973633
1745726124.2421677,-0.015445977449417114,-0.014152780175209045,-0.17794468998908997,0.21027138829231262,-0.5776574015617371,-9.629762649536133
1745726124.2748275,-0.04574383422732353,-0.020476404577493668,-0.17701455950737,0.40289559960365295,-0.7903040647506714,-9.651017189025879
1745726124.2776291,-0.035839639604091644,-0.022892799228429794,-0.178236722946167,0.2488391399383545,-0.5528039336204529,-9.921422004699707
1745726124.2803576,-0.0321846529841423,-0.01809292659163475,-0.17705224454402924,0.2796758711338043,-0.5557118058204651,-9.904085159301758
1745726124.2814407,-0.039773356169462204,-0.02094491757452488,-0.1773216426372528,0.3113050162792206,-0.4315532147884369,-9.745019912719727
1745726124.3194795,-0.027905378490686417,-0.019911115989089012,-0.17886894941329956,0.05390695482492447,-0.4868840277194977,-9.671370506286621
1745726124.3235893,-0.02308945171535015,-0.02095213159918785,-0.1763584464788437,0.31265756487846375,-0.532006561756134,-9.647132873535156
1745726124.333532,-0.029430460184812546,-0.020349940285086632,-0.1777580976486206,0.15312524139881134,-0.4560989439487457,-9.906427383422852
1745726124.333604,-0.012708837166428566,-0.015307371504604816,-0.17389175295829773,0.26623690128326416,-0.6854246258735657,-9.802958488464355
1745726124.3342185,-0.017515210434794426,-0.018423255532979965,-0.17548367381095886,0.33266425132751465,-0.4049402177333832,-9.656508445739746
1745726124.3631415,-0.024406205862760544,-0.01718662492930889,-0.17635974287986755,0.15743312239646912,-0.6681857705116272,-9.845693588256836
1745726124.3663728,-0.018695125356316566,-0.018988192081451416,-0.17552100121974945,0.43488985300064087,-0.6717499494552612,-9.832941055297852
1745726124.3710077,-0.03107747808098793,-0.01495891809463501,-0.17415004968643188,0.2644435465335846,-0.5900164842605591,-9.814125061035156
1745726124.3722956,-0.036520905792713165,-0.016471372917294502,-0.17743928730487823,0.25597336888313293,-0.7821246981620789,-9.770121574401855
1745726124.4073331,-0.037706561386585236,-0.019364694133400917,-0.17352397739887238,0.24563130736351013,-0.556933581829071,-9.751459121704102
1745726124.414936,-0.041005250066518784,-0.013512629084289074,-0.1760025918483734,0.2185252606868744,-0.4599454402923584,-9.766892433166504
1745726124.4200456,-0.04650028422474861,-0.014159989543259144,-0.1776575744152069,0.33880919218063354,-0.5760118365287781,-9.829954147338867
1745726124.4289677,-0.029393956065177917,-0.010100092738866806,-0.17871028184890747,0.2376510202884674,-0.6775909662246704,-9.654012680053711
1745726124.45,-0.03758462518453598,-0.019061852246522903,-0.177686870098114,0.3350202441215515,-0.4965641498565674,-9.76964282989502
1745726124.4510884,-0.03596452251076698,-0.011598407290875912,-0.17562898993492126,0.17086514830589294,-0.5906802415847778,-10.000995635986328
1745726124.4530022,-0.032314032316207886,-0.011015265248715878,-0.17472736537456512,0.2901768684387207,-0.5848273038864136,-9.742774963378906
1745726124.4555411,-0.02842996083199978,-0.013087754137814045,-0.17376753687858582,0.08453991264104843,-0.39435988664627075,-9.626646041870117
1745726124.489437,-0.03338880091905594,-0.011430339887738228,-0.1751536875963211,0.2099321335554123,-0.603375256061554,-9.7374849319458
1745726124.5013752,-0.03414434939622879,-0.010837839916348457,-0.17333868145942688,0.18361490964889526,-0.423625648021698,-9.897049903869629
1745726124.5014837,-0.024597156792879105,-0.008185157552361488,-0.1733824461698532,0.07932653278112411,-0.47972702980041504,-9.75278377532959
1745726124.501583,-0.0370522066950798,-0.010537664406001568,-0.17477896809577942,0.3287189304828644,-0.5778246521949768,-9.70120906829834
1745726124.502349,-0.030832212418317795,-0.01329104881733656,-0.17162983119487762,0.13756343722343445,-0.49717187881469727,-9.922478675842285
1745726124.53491,-0.03271792456507683,-0.010420295409858227,-0.17348040640354156,0.27759239077568054,-0.556463360786438,-9.863471031188965
1745726124.5369,-0.044318147003650665,-0.0139070525765419,-0.17020058631896973,0.22699236869812012,-0.48414379358291626,-9.78227424621582
1745726124.5387332,-0.02962356247007847,-0.012218937277793884,-0.17118409276008606,0.1904573142528534,-0.5564872026443481,-9.686124801635742
1745726124.5410872,-0.03920651227235794,-0.01398342102766037,-0.17008964717388153,0.3619260787963867,-0.3793492913246155,-9.792173385620117
1745726124.576435,-0.03383790701627731,-0.011644268408417702,-0.16854098439216614,0.10921549797058105,-0.4543667435646057,-9.936342239379883
1745726124.580899,0.02175993099808693,0.02565133571624756,-0.21359939873218536,0.46603384613990784,-0.6370142698287964,-9.840807914733887
1745726124.5870824,0.0069637238048017025,0.02082664705812931,-0.21479174494743347,0.6211487054824829,-0.6029181480407715,-9.353677749633789
1745726124.5913346,0.01143121812492609,0.01089983806014061,-0.21437866985797882,0.6139293909072876,-0.5789836049079895,-9.607532501220703
1745726124.6220715,0.00481437798589468,0.01634320616722107,-0.21544337272644043,0.6482200622558594,-0.4758744239807129,-10.30752182006836
1745726124.6240795,0.013554779812693596,0.019850201904773712,-0.21764609217643738,0.23339423537254333,-0.3942868411540985,-10.126283645629883
1745726124.6272202,0.019739581272006035,0.01982787251472473,-0.21813277900218964,0.3434663414955139,-0.49103355407714844,-9.143152236938477
1745726124.633392,0.005795624107122421,0.011722028255462646,-0.22081033885478973,0.3856331706047058,-0.13736040890216827,-9.464406967163086
1745726124.6358004,0.03085743822157383,0.01730627380311489,-0.22687998414039612,0.3227573037147522,-0.3618309795856476,-10.248353958129883
1745726124.6662235,0.03842443227767944,0.023046042770147324,-0.22690355777740479,0.6059857606887817,-0.2515071630477905,-9.799333572387695
1745726124.6673145,0.03238570690155029,0.02048027515411377,-0.22851887345314026,0.41910773515701294,-0.48517370223999023,-9.454760551452637
1745726124.6684818,0.04697181284427643,0.014609349891543388,-0.2278582751750946,0.5627378225326538,-0.5658888816833496,-9.709939002990723
1745726124.6719203,0.03318258374929428,0.01072055846452713,-0.2275063693523407,0.5998984575271606,-0.548488974571228,-10.182875633239746
1745726124.7057185,0.046118948608636856,0.02748347446322441,-0.22724199295043945,0.37494346499443054,-0.5747740268707275,-9.886327743530273
1745726124.7105136,0.024400219321250916,0.01329774223268032,-0.2282363623380661,0.5494370460510254,-0.5461736917495728,-9.248170852661133
1745726124.7154229,0.036742109805345535,0.013361560180783272,-0.22872383892536163,0.38840407133102417,-0.33028852939605713,-9.633258819580078
1745726124.7197094,0.021010782569646835,0.016420375555753708,-0.2343534231185913,0.4847332835197449,-0.4791417717933655,-10.196863174438477
1745726124.7222698,0.039779797196388245,0.010485249571502209,-0.23527605831623077,0.3881543278694153,-0.4888571798801422,-9.934409141540527
1745726124.7514238,0.032275937497615814,0.024722039699554443,-0.23559918999671936,0.3831520974636078,-0.36014866828918457,-9.344466209411621
1745726124.7546737,0.028490234166383743,0.004283427260816097,-0.23223480582237244,0.4491671919822693,-0.7239153385162354,-9.711297988891602
1745726124.757785,0.058499790728092194,0.010773311369121075,-0.22702214121818542,0.1604524850845337,-0.47363585233688354,-9.966924667358398
1745726124.7611728,0.027913561090826988,0.02359427511692047,-0.22180967032909393,0.5459467172622681,-0.8671116828918457,-9.656801223754883
1745726124.7933857,0.034308187663555145,-0.000245864677708596,-0.21373336017131805,-0.11713071167469025,-0.6015047430992126,-9.716453552246094
1745726124.7958078,-0.004765181336551905,-0.019768204540014267,-0.1945590376853943,0.43972864747047424,-0.4924982190132141,-9.377421379089355
1745726124.7981203,0.02239912375807762,-0.016333770006895065,-0.18934586644172668,0.1741604506969452,-0.45011740922927856,-10.175897598266602
1745726124.800176,0.03093532845377922,-0.020860325545072556,-0.18979783356189728,0.21613645553588867,0.002391219139099121,-10.076250076293945
1745726124.8347597,0.04511731490492821,-0.018655315041542053,-0.19033268094062805,0.035671450197696686,-0.23454999923706055,-9.44770336151123
1745726124.837005,0.05519287660717964,-0.022877175360918045,-0.19568488001823425,0.1764131486415863,-0.2350236475467682,-9.24754524230957
1745726124.8389544,0.025777647271752357,-0.03757967799901962,-0.1934242993593216,0.15761883556842804,-0.5935119986534119,-10.150466918945312
1745726124.8413048,0.04468180611729622,-0.016205694526433945,-0.1922846883535385,0.25709450244903564,-0.9407628774642944,-10.05415153503418
1745726124.8433042,0.006751026958227158,-0.0211270060390234,-0.18692469596862793,0.40329378843307495,-0.885710597038269,-9.253583908081055
1745726124.8879519,-0.014944696798920631,-0.03565780073404312,-0.18063592910766602,0.2758309245109558,-0.9704347848892212,-9.41297435760498
1745726124.8880548,-0.02151814103126526,-0.028429418802261353,-0.17777082324028015,0.486917108297348,-0.6877252459526062,-10.06182861328125
1745726124.8881073,-0.02568857930600643,-0.025653818622231483,-0.1771935522556305,0.24249669909477234,-0.4231511056423187,-10.216290473937988
1745726124.8881693,-0.014184054918587208,-0.027071475982666016,-0.17631050944328308,0.05794484540820122,-0.34210529923439026,-9.417156219482422
1745726124.9208567,-0.016217490658164024,-0.0390421561896801,-0.17637981474399567,0.2643812596797943,-0.3693539500236511,-9.371604919433594
1745726124.9278612,0.006949552800506353,-0.03486344590783119,-0.1752668172121048,-0.08163215219974518,-0.09694359451532364,-10.093853950500488
1745726124.9311671,-0.020086854696273804,-0.024286171421408653,-0.1752348691225052,0.5127199292182922,-0.6617649793624878,-10.121610641479492
1745726124.9331615,-0.028695419430732727,-0.02035548910498619,-0.17146869003772736,0.38006502389907837,-0.6329872012138367,-10.148756980895996
1745726124.9628158,-0.009791931137442589,-0.015678543597459793,-0.17163293063640594,0.2083156555891037,-0.3378295302391052,-9.387325286865234
1745726124.9659052,-0.020613692700862885,-0.02593858912587166,-0.17204536497592926,0.45840033888816833,-0.29391294717788696,-9.376592636108398
1745726124.9671566,0.0038723715115338564,-0.02509492263197899,-0.17251594364643097,0.1673140972852707,-0.06499054282903671,-10.281195640563965
1745726124.9693916,0.03082292713224888,-0.0061562322080135345,-0.17659728229045868,0.16934576630592346,-0.09681543707847595,-10.037352561950684
1745726124.9715135,0.03636246174573898,-0.013896675780415535,-0.18054015934467316,0.14922484755516052,-0.1664450615644455,-9.295245170593262
1745726125.0077646,0.04545322805643082,-0.015734408050775528,-0.17951910197734833,0.22864404320716858,-0.42556729912757874,-9.455879211425781
1745726125.0097904,0.03256014734506607,-0.018094126135110855,-0.18102070689201355,0.5665727853775024,-0.5867668986320496,-10.233304977416992
1745726125.0106132,0.042900312691926956,-0.004651463124901056,-0.18076379597187042,0.26751551032066345,-0.6467240452766418,-10.296719551086426
1745726125.020769,0.022072529420256615,-0.0017932929331436753,-0.18044009804725647,0.4460815489292145,-0.719637393951416,-9.23217487335205
1745726125.0525908,0.006526702083647251,-0.017222275957465172,-0.1778654158115387,0.5397000312805176,-0.729026198387146,-9.426164627075195
1745726125.057687,0.005345684476196766,-0.006324229296296835,-0.17955820262432098,0.3083483576774597,-0.6117563247680664,-10.354657173156738
1745726125.0620933,-0.002019913401454687,-0.003209826070815325,-0.18210390210151672,0.4314599633216858,-0.5588659048080444,-10.197271347045898
1745726125.0660188,0.005469880532473326,-0.0009463818860240281,-0.18381893634796143,0.02295578643679619,-0.36021366715431213,-9.353981971740723
1745726125.0941918,-0.0056160567328333855,-0.008449189364910126,-0.18372926115989685,0.28263339400291443,-0.4695090651512146,-9.300658226013184
1745726125.0978212,0.003085338743403554,-0.00773530313745141,-0.18331937491893768,0.3152942955493927,-0.3088974356651306,-10.227826118469238
1745726125.1034365,0.016640912741422653,0.0050522442907094955,-0.1850063055753708,0.24706295132637024,-0.4553810656070709,-10.273097038269043
1745726125.1068718,0.02180374786257744,0.002181112067773938,-0.1835755556821823,0.41777533292770386,-0.41068071126937866,-9.391895294189453
1745726125.10823,0.019716959446668625,0.0006501895259134471,-0.18291424214839935,0.25293901562690735,-0.38083919882774353,-9.396502494812012
1745726125.1401243,0.023848647251725197,0.0007483329973183572,-0.1817701905965805,0.5828779339790344,-0.6540418863296509,-10.141572952270508
1745726125.1438403,0.015347209759056568,0.003496893448755145,-0.18399302661418915,0.16171807050704956,-0.6800538301467896,-9.91124153137207
1745726125.1478467,0.0252445749938488,0.023946354165673256,-0.17656585574150085,0.17775245010852814,-0.9351733922958374,-9.96031379699707
1745726125.1510487,-0.0010107718408107758,-0.0012665350222960114,-0.167393296957016,0.14398130774497986,-0.6445352435112,-9.713102340698242
1745726125.1822302,-0.008343184366822243,0.009025024250149727,-0.16610851883888245,-0.08940441906452179,-0.7178374528884888,-9.808338165283203
1745726125.1864827,-0.005940769333392382,0.019780324772000313,-0.16708382964134216,0.2347726821899414,-0.3342417776584625,-9.464373588562012
1745726125.1896214,-0.029801126569509506,-0.0005238410085439682,-0.17059776186943054,0.34615960717201233,-0.4647236764431,-9.841638565063477
1745726125.1914468,-0.01712186075747013,0.0010969022987410426,-0.1715375781059265,0.3082939386367798,-0.18378446996212006,-10.134904861450195
1745726125.222012,-0.033225931227207184,0.005456035025417805,-0.16705480217933655,0.34017759561538696,-0.7157911658287048,-9.955187797546387
1745726125.2248294,-0.008556735701858997,0.005392303224653006,-0.15864434838294983,0.18292896449565887,-0.43994012475013733,-9.395293235778809
1745726125.227805,-0.039525359869003296,0.002331939758732915,-0.15175026655197144,0.241889089345932,-0.6521247625350952,-9.630486488342285
1745726125.229311,0.007724354974925518,-0.009694695472717285,-0.14426779747009277,0.3199358880519867,-0.25225645303726196,-10.224184036254883
1745726125.2307088,0.013849129900336266,0.015042806975543499,-0.14463230967521667,0.06293795257806778,0.21522215008735657,-9.843622207641602
1745726125.2677665,0.0198802649974823,0.0010660596890375018,-0.14756768941879272,0.14130282402038574,-0.31929081678390503,-9.297526359558105
1745726125.2707555,0.0404965877532959,-0.010486523620784283,-0.14748673141002655,0.2140413075685501,-0.1190231591463089,-9.3990478515625
1745726125.274585,0.014020383358001709,-0.00040484368219040334,-0.14470042288303375,0.20253250002861023,-0.8386505842208862,-10.365966796875
1745726125.2855487,-0.058929670602083206,-0.014078694395720959,-0.09545422345399857,0.27168795466423035,-0.5305196046829224,-9.907499313354492
1745726125.309778,-0.05470694974064827,-0.010132694616913795,-0.09333913028240204,0.22964727878570557,-0.32334864139556885,-9.84675407409668
1745726125.3144825,-0.06864644587039948,-0.01928778365254402,-0.09301330894231796,0.3527769148349762,-0.4514818787574768,-9.730630874633789
1745726125.3180647,-0.03796053305268288,-0.011335802264511585,-0.09039252996444702,0.1904611587524414,-0.10405491292476654,-9.674492835998535
1745726125.321501,-0.0573476180434227,-0.01628647930920124,-0.0922483578324318,0.3189142942428589,-0.39341098070144653,-9.8631591796875
1745726125.3511872,-0.029505595564842224,-0.01985635608434677,-0.0883709043264389,0.20249983668327332,-0.27568331360816956,-9.927970886230469
1745726125.3533099,-0.04201047122478485,-0.00906397309154272,-0.08734983205795288,0.1461338996887207,-0.47016793489456177,-9.668224334716797
1745726125.3565292,-0.045594412833452225,-0.01808798313140869,-0.08713048696517944,0.20753316581249237,-0.4691336154937744,-9.605791091918945
1745726125.3601608,-0.04858240485191345,-0.011578881181776524,-0.08678197860717773,0.129800945520401,-0.4003395438194275,-9.725553512573242
1745726125.3628528,-0.06465506553649902,-0.016666587442159653,-0.08579958975315094,0.4005868434906006,-0.5837494134902954,-9.91601276397705
1745726125.3943844,-0.054910868406295776,-0.011777663603425026,-0.0865406021475792,0.2051536738872528,-0.25062429904937744,-9.910436630249023
1745726125.398226,-0.07037778943777084,-0.011235609650611877,-0.08488897234201431,0.3263130784034729,-0.5546420216560364,-9.683473587036133
1745726125.4010417,-0.07012148946523666,-0.019968723878264427,-0.08224112540483475,0.30598217248916626,-0.30603164434432983,-9.74341106414795
1745726125.4048896,-0.07609184086322784,-0.011386917904019356,-0.07919902354478836,0.13865509629249573,-0.4099277853965759,-9.834127426147461
1745726125.4381206,-0.06908893585205078,-0.01377615612000227,-0.076322540640831,0.30732566118240356,-0.4047338366508484,-9.758323669433594
1745726125.4413092,-0.057343535125255585,-0.008323500864207745,-0.0759822279214859,0.06891969591379166,0.009273258969187737,-9.652408599853516
1745726125.451687,-0.05787298083305359,-0.015239874832332134,-0.07338031381368637,0.27906984090805054,-0.2595275640487671,-9.781152725219727
1745726125.451752,-0.041840896010398865,-0.017551422119140625,-0.07436947524547577,0.2496521919965744,0.07290749251842499,-9.918373107910156
1745726125.4517994,-0.04068746417760849,-0.01017127837985754,-0.07628056406974792,0.19219262897968292,-0.42869314551353455,-9.974508285522461
1745726125.482304,-0.033962514251470566,-0.014761732891201973,-0.07352089136838913,0.3228550851345062,-0.24290840327739716,-9.63104248046875
1745726125.4860435,-0.05243982747197151,-0.015432489104568958,-0.06941542029380798,0.1159903034567833,-0.4927547872066498,-9.70966625213623
1745726125.488964,-0.05799631401896477,-0.014399779960513115,-0.05918123200535774,0.3601471185684204,-0.16947145760059357,-9.805679321289062
1745726125.4913998,-0.05457855015993118,-0.005972937680780888,-0.05892322212457657,0.18462996184825897,-0.16650930047035217,-9.946374893188477
1745726125.526234,-0.05474323779344559,-0.010821297764778137,-0.058560289442539215,0.38669881224632263,-0.2282237559556961,-9.704978942871094
1745726125.528102,-0.05408332496881485,-0.012324321083724499,-0.05915697664022446,0.13329139351844788,-0.14461389183998108,-9.690893173217773
1745726125.5292935,-0.05928485840559006,-0.0064696683548390865,-0.059982262551784515,0.29725033044815063,-0.3135795593261719,-9.783600807189941
1745726125.5328157,-0.06315017491579056,-0.011084457859396935,-0.06365780532360077,0.5868736505508423,-0.18609391152858734,-9.941900253295898
1745726125.5680428,-0.045068055391311646,-0.017992038279771805,-0.07160019874572754,0.27495306730270386,0.21857993304729462,-10.037370681762695
1745726125.571503,-0.0299630556255579,0.010752541944384575,-0.08217741549015045,0.6479503512382507,0.129954993724823,-9.541009902954102
1745726125.5728602,-0.018016576766967773,-0.01316501758992672,-0.09001051634550095,0.5778357982635498,0.2779979109764099,-9.447677612304688
1745726125.5739472,-0.005464449990540743,-0.01571255549788475,-0.09221751987934113,0.718924880027771,-0.5439063906669617,-10.203834533691406
1745726125.575927,0.015292024239897728,0.00595749681815505,-0.08922891318798065,0.2703517973423004,-0.13719895482063293,-10.096349716186523
1745726125.616978,0.004453829023987055,0.01677538827061653,-0.08768462389707565,0.015932392328977585,-0.9385286569595337,-9.357290267944336
1745726125.6171088,-0.0058034369722008705,-0.00413745129480958,-0.08628539741039276,0.43829330801963806,-0.38866597414016724,-9.121273040771484
1745726125.617501,-0.032489124685525894,0.0025503237266093493,-0.09657682478427887,0.46928519010543823,-0.3636621832847595,-10.332855224609375
1745726125.6212983,-0.012121602892875671,0.021695321425795555,-0.1081094890832901,0.42038393020629883,-0.22351638972759247,-10.419069290161133
1745726125.6541843,0.07047493755817413,0.026524677872657776,-0.19223186373710632,0.34879353642463684,-0.03453627973794937,-10.057002067565918
1745726125.656491,0.07302245497703552,0.025110919028520584,-0.1913614571094513,0.40331172943115234,-0.47010278701782227,-9.636802673339844
1745726125.6578393,0.0748453214764595,0.021033819764852524,-0.18374116718769073,0.3328182101249695,-0.4297497272491455,-9.644742012023926
1745726125.6590862,0.083284392952919,0.025604020804166794,-0.17626765370368958,-0.0012621793430298567,-0.6812503933906555,-9.81638240814209
1745726125.6951234,0.07069103419780731,0.025221074000000954,-0.17075768113136292,0.39944547414779663,-0.719996988773346,-9.639734268188477
1745726125.6976955,0.0341762974858284,0.005973497871309519,-0.1664247363805771,-0.20165666937828064,-0.6053541898727417,-9.965375900268555
1745726125.69957,0.036169715225696564,0.023277102038264275,-0.16563618183135986,-0.07861325889825821,-0.5565754175186157,-9.722847938537598
1745726125.7015946,0.008339355699717999,0.018100954592227936,-0.17061848938465118,-0.010355313308537006,0.023160064592957497,-9.337321281433105
1745726125.7043438,-0.0013060845667496324,0.008364756591618061,-0.17516261339187622,0.3216167092323303,-0.6866082549095154,-9.750436782836914
1745726125.7409165,-0.010916760191321373,-0.0010803279001265764,-0.17351089417934418,0.46095776557922363,-0.04198923334479332,-10.157500267028809
1745726125.7422345,-0.013044113293290138,0.0019914216827601194,-0.16753658652305603,0.11919154971837997,-0.6611261367797852,-10.189967155456543
1745726125.7441266,0.020672785118222237,0.00635706540197134,-0.1553613543510437,0.32199758291244507,-0.3506627380847931,-9.187044143676758
1745726125.745696,-0.012677988037467003,-0.010862156748771667,-0.14365842938423157,0.20448510348796844,-0.19836194813251495,-9.452388763427734
1745726125.7824728,0.05235055088996887,-0.005871032830327749,-0.14199820160865784,0.14244598150253296,0.08072169125080109,-10.335295677185059
1745726125.7857199,0.04963367059826851,-0.0059076957404613495,-0.14304418861865997,0.09493730962276459,0.5585692524909973,-9.979799270629883
1745726125.7893429,0.08871547132730484,-0.006896367762237787,-0.14943799376487732,-0.08066630363464355,-0.027155255898833275,-9.308513641357422
1745726125.7928753,0.08233700692653656,-0.02177717722952366,-0.15119193494319916,0.23400898277759552,-0.0666624903678894,-9.464269638061523
1745726125.7973232,0.06794771552085876,-0.023610958829522133,-0.15270504355430603,0.005180579610168934,-0.6849340200424194,-10.415373802185059
1745726125.8307295,0.05847448110580444,-0.004958292935043573,-0.147180438041687,0.12344853579998016,-0.8100730776786804,-9.933187484741211
1745726125.8308442,0.013309648260474205,-0.020495275035500526,-0.139855295419693,0.4214908480644226,-1.0886518955230713,-9.090723037719727
1745726125.8321774,0.0023338566534221172,-0.026353701949119568,-0.1344894915819168,0.33922824263572693,-0.7505835294723511,-9.55595588684082
1745726125.8344586,0.05142676830291748,-0.0465155765414238,-0.12480588257312775,0.3608296513557434,0.1425216943025589,-10.436037063598633
1745726125.874731,0.03492651879787445,-0.032042987644672394,-0.13678808510303497,0.07787179201841354,-0.11110498011112213,-9.612548828125
1745726125.8748608,0.03059818409383297,-0.05546007305383682,-0.13599060475826263,-0.09353317320346832,-0.6139784455299377,-9.27299690246582
1745726125.8749156,0.0025690305046737194,-0.037134263664484024,-0.12782013416290283,-0.3451889157295227,-0.798126220703125,-9.75537109375
1745726125.8749595,-0.013184873387217522,-0.035055141896009445,-0.1134193167090416,0.4364032745361328,-1.2063243389129639,-9.646535873413086
1745726125.9118457,0.001787083805538714,-0.028281668201088905,-0.10516615211963654,0.36264654994010925,-0.3875451982021332,-9.78465461730957
1745726125.9164255,-0.043738268315792084,-0.03288701921701431,-0.10394375026226044,0.5282127857208252,-0.5196136236190796,-9.899994850158691
1745726125.9212809,-0.010465800762176514,-0.0511326789855957,-0.10302488505840302,0.8117058873176575,-0.25494322180747986,-9.988422393798828
1745726125.9260716,-0.018990617245435715,-0.03429747000336647,-0.1049928069114685,0.23550744354724884,0.10039643198251724,-10.139070510864258
1745726125.9288962,-0.03138076514005661,-0.0390758141875267,-0.10177688300609589,0.06978023797273636,-0.7896726727485657,-9.847694396972656
1745726125.954554,-0.016996409744024277,-0.03993639722466469,-0.0958481878042221,0.06033977121114731,-0.08594197779893875,-9.107539176940918
1745726125.956184,-0.05479173734784126,-0.028732817620038986,-0.09431131929159164,0.309990793466568,-0.3871798515319824,-9.643289566040039
1745726125.958335,-0.016536083072423935,-0.04191875457763672,-0.09422750771045685,0.49126434326171875,0.3656502962112427,-10.174551010131836
1745726125.9593875,-0.018376722931861877,-0.03458695858716965,-0.09710045903921127,0.6039105653762817,0.1871272623538971,-10.045724868774414
1745726125.9983866,0.025734607130289078,-0.037457723170518875,-0.09905429929494858,0.553094208240509,0.08131309598684311,-9.76988410949707
1745726125.998948,-0.03953538089990616,-0.011536862701177597,-0.07866846024990082,0.4052955210208893,-0.4051911234855652,-9.934843063354492
1745726126.0025423,-0.01267727930098772,-0.0028756153769791126,-0.07635568082332611,0.09914974868297577,-0.19019900262355804,-10.094864845275879
1745726126.0034063,-0.03603389114141464,-0.003529806388542056,-0.0739639401435852,0.3233703672885895,-0.5203988552093506,-9.68988037109375
1745726126.0390203,-0.012254525907337666,-0.0024975682608783245,-0.06853505969047546,0.15899087488651276,-0.18941864371299744,-9.531850814819336
1745726126.0406973,-0.031238028779625893,-0.003837777767330408,-0.0690804123878479,0.19678358733654022,-0.10653265565633774,-9.806770324707031
1745726126.0457702,-0.013809609226882458,-0.003554773982614279,-0.07295949012041092,0.35705453157424927,0.021108979359269142,-10.04568099975586
1745726126.048398,-0.004072356503456831,0.0009637870825827122,-0.07870253920555115,0.12329611927270889,0.16132082045078278,-9.838168144226074
1745726126.0500379,-0.008120796643197536,-0.005112305749207735,-0.08088075369596481,0.41357022523880005,-0.2385832965373993,-9.646078109741211
1745726126.0857964,0.0060331677086651325,-0.0045199645683169365,-0.0798267349600792,0.19579553604125977,-0.09230776131153107,-9.844228744506836
1745726126.0888171,-0.004534759558737278,0.0008148356573656201,-0.07474138587713242,0.26628515124320984,-0.5581424236297607,-9.960302352905273
1745726126.0933318,0.000521792215295136,-0.0017926546279340982,-0.070162832736969,0.24595145881175995,-0.3806374967098236,-9.727432250976562
1745726126.0960054,0.000286848284304142,0.005255651660263538,-0.06628575921058655,0.15087909996509552,-0.36517125368118286,-9.551239013671875
1745726126.1283488,0.0013568546855822206,0.002286228584125638,-0.06636141985654831,0.2979641854763031,-0.25832080841064453,-9.918305397033691
1745726126.1324363,0.0018701578956097364,-0.002472356427460909,-0.06724630296230316,-0.07287218421697617,-0.17187514901161194,-9.960529327392578
1745726126.1365573,-0.010037366300821304,0.021169880405068398,-0.06464440375566483,0.3301718235015869,-0.6993318796157837,-9.550891876220703
1745726126.1405458,-0.03407794237136841,-0.0074433209374547005,-0.05643758177757263,0.15682931244373322,-0.5313664078712463,-9.607874870300293
1745726126.1442995,-0.05157681554555893,0.01706685684621334,-0.050763607025146484,0.18454137444496155,-0.9496713876724243,-10.011022567749023
1745726126.1714773,-0.0726298913359642,0.02090376988053322,-0.04205748438835144,0.5587849020957947,-0.42242178320884705,-9.636021614074707
1745726126.1732802,-0.09289644658565521,0.008048223331570625,-0.03881513327360153,0.5615566968917847,-0.5466017723083496,-9.65939998626709
1745726126.175373,-0.08504228293895721,0.006770513951778412,-0.03455512970685959,0.7580448985099792,0.1222817450761795,-10.00205135345459
1745726126.1767554,-0.08633164316415787,0.010785969905555248,-0.03252816200256348,0.38377001881599426,0.027745520696043968,-10.301950454711914
1745726126.2117584,-0.046574387699365616,0.015826480463147163,0.01293734647333622,0.24268904328346252,-0.744489312171936,-9.243772506713867
1745726126.2145457,-0.09170974791049957,0.02140742912888527,0.015517966821789742,0.406345933675766,-0.6380815505981445,-10.139792442321777
1745726126.2161698,-0.0948440209031105,0.01668245904147625,0.014932838268578053,0.2817687392234802,-0.35513028502464294,-10.286239624023438
1745726126.2174718,-0.09543970972299576,0.026513120159506798,0.011634361930191517,0.10167618095874786,-0.0501503124833107,-9.315289497375488
1745726126.254721,-0.10639449208974838,0.02017519436776638,0.01684206910431385,0.3077794909477234,-0.23659023642539978,-9.316225051879883
1745726126.2582293,-0.0767214298248291,0.013498370535671711,0.02159109339118004,0.18630817532539368,0.1160205602645874,-10.092485427856445
1745726126.2591891,-0.07499638944864273,0.030681360512971878,0.02958754263818264,0.40111270546913147,-0.1928759217262268,-10.132894515991211
1745726126.261541,-0.04878082126379013,0.025664091110229492,0.034866899251937866,0.2748574912548065,0.18470783531665802,-9.44119644165039
1745726126.2626557,-0.04203464463353157,0.01949917897582054,0.03549111634492874,0.28385138511657715,0.09633015096187592,-9.364015579223633
1745726126.2989929,-0.031087100505828857,0.01761031150817871,0.03715994209051132,0.5863173604011536,0.12686213850975037,-10.048354148864746
1745726126.304296,-0.017129158601164818,0.023832175880670547,0.03647584468126297,0.31292086839675903,0.07738218456506729,-10.257627487182617
1745726126.307536,-0.029198413714766502,0.020157698541879654,0.03639229014515877,0.39223986864089966,-0.2361384928226471,-9.512792587280273
1745726126.311202,-0.03497109189629555,0.014379327185451984,0.040969785302877426,0.24085760116577148,-0.294391393661499,-9.461971282958984
1745726126.3420112,-0.04658040031790733,0.019856762140989304,0.04238947480916977,0.26836535334587097,-0.44569072127342224,-9.797528266906738
1745726126.3439012,-0.058209557086229324,0.02250666916370392,0.04799279943108559,0.4250473082065582,-0.35995426774024963,-9.963041305541992
1745726126.3493278,-0.09390391409397125,0.0022659138776361942,0.09790967404842377,0.3392503559589386,0.21404209733009338,-9.462218284606934
1745726126.3526993,-0.0734797790646553,0.005966109223663807,0.10124526917934418,0.22533130645751953,0.1368846297264099,-9.90814208984375
1745726126.3847153,-0.07467559725046158,0.0021462307777255774,0.10071879625320435,0.5506750345230103,0.09268119186162949,-9.932700157165527
1745726126.386292,-0.06784550100564957,0.0048049502074718475,0.10228057205677032,0.35516357421875,0.11577783524990082,-9.79683780670166
1745726126.3873818,-0.07017028331756592,0.0025432889815419912,0.10293214023113251,0.30895474553108215,-0.14129269123077393,-9.660039901733398
1745726126.3903236,-0.07595986127853394,-0.00461182976141572,0.1064690575003624,0.35680416226387024,-0.060364942997694016,-9.758207321166992
1745726126.3916204,-0.07782869040966034,0.006062351167201996,0.10726948082447052,0.28382593393325806,-0.06334821879863739,-9.856290817260742
1745726126.4275553,-0.08730743080377579,0.0003964370989706367,0.11135631799697876,0.35493558645248413,-0.08370384573936462,-9.748841285705566
1745726126.4319153,-0.08647539466619492,-0.006502724252641201,0.11163049936294556,0.2771444022655487,0.04409804567694664,-9.728620529174805
1745726126.4394002,-0.0843975618481636,0.001059716916643083,0.11275584995746613,0.4429088234901428,-0.10393793880939484,-9.817960739135742
1745726126.4394631,-0.09170041233301163,-0.005309488158673048,0.11457078158855438,0.2961861789226532,0.014380943961441517,-9.91198444366455
1745726126.470838,-0.08914195001125336,-0.000996273010969162,0.11751256138086319,0.2826407253742218,-0.13334105908870697,-9.691081047058105
1745726126.4724157,-0.09743545949459076,-0.004640921019017696,0.12249644100666046,0.47955045104026794,-0.057332225143909454,-9.636969566345215
1745726126.4742057,-0.09072840958833694,-0.0029829409904778004,0.12543952465057373,0.2530994713306427,0.10820319503545761,-9.80739688873291
1745726126.4758124,-0.09958595037460327,0.0012353596976026893,0.12605704367160797,0.429623544216156,0.03659231215715408,-9.862863540649414
1745726126.513926,-0.08923844248056412,-0.007859021425247192,0.12534622848033905,0.3153155446052551,0.3006931245326996,-9.751545906066895
1745726126.5161386,-0.08646401017904282,0.0015670533757656813,0.1270226240158081,0.34234634041786194,0.15563833713531494,-9.651369094848633
1745726126.5203738,-0.08222609013319016,-0.0073064700700342655,0.1260441541671753,0.435380220413208,0.21648716926574707,-9.844667434692383
1745726126.5204759,-0.07787604629993439,-0.005168454255908728,0.13014750182628632,0.14070233702659607,0.15719649195671082,-9.940971374511719
1745726126.5218875,-0.07012156397104263,-0.0025822489988058805,0.13058151304721832,0.471592515707016,0.020487019792199135,-9.63038444519043
1745726126.5569637,-0.08086620271205902,-0.003097578650340438,0.13347706198692322,0.20628567039966583,0.1387621909379959,-9.729863166809082
1745726126.559063,-0.03859730064868927,-0.02701534330844879,0.10997837781906128,0.05324611812829971,0.3392714560031891,-10.105886459350586
1745726126.5630229,0.0021725508850067854,0.0075833797454833984,0.10559561103582382,0.1791047602891922,0.3079361915588379,-10.048871994018555
1745726126.5654335,-0.02595752850174904,0.0029143616557121277,0.10249171406030655,-0.13690850138664246,0.0574401319026947,-9.392030715942383
1745726126.6056871,-0.01313717383891344,-0.008070484735071659,0.10268574953079224,0.3630959391593933,-0.4151345193386078,-9.18154239654541
1745726126.607064,-0.03131091594696045,-0.004549610428512096,0.10269049555063248,0.7173539400100708,-0.09312286227941513,-10.123671531677246
1745726126.6075742,-0.03749488294124603,0.0023518111556768417,0.09871846437454224,0.18659713864326477,-0.2558194696903229,-10.722272872924805
1745726126.61306,-0.06934139132499695,0.0013084529200568795,0.09606314450502396,0.36638012528419495,-0.3969647288322449,-9.355783462524414
1745726126.6148348,-0.08053213357925415,-0.011309316381812096,0.08925777673721313,0.3493840992450714,-0.1963217705488205,-9.072015762329102
1745726126.6420681,-0.11132867634296417,-0.010081435553729534,0.08664868772029877,0.3194549083709717,0.06123136729001999,-10.236936569213867
1745726126.644759,-0.1266566812992096,-0.008991186507046223,0.07722441107034683,0.29617321491241455,0.027073871344327927,-10.660158157348633
1745726126.6472268,-0.07430762052536011,0.00045642099576070905,0.07214654237031937,0.13269132375717163,0.5721241235733032,-9.321150779724121
1745726126.6840692,-0.11463513225317001,-0.018122967332601547,0.06900694221258163,0.39987072348594666,0.5498009920120239,-9.097101211547852
1745726126.686773,-0.06277734786272049,-0.022225895896553993,0.06716972589492798,0.3866802453994751,0.43451792001724243,-10.459671974182129
1745726126.689235,-0.0210331492125988,-0.002712131245061755,0.06413280218839645,0.3845486640930176,0.7047417163848877,-10.418069839477539
1745726126.7033556,-0.023292362689971924,-0.01020901184529066,0.06648428738117218,0.28005701303482056,0.4544258117675781,-9.435067176818848
1745726126.704234,0.049869220703840256,0.002350864466279745,-0.0031830654479563236,0.39772140979766846,0.049750275909900665,-10.104580879211426
1745726126.7298503,0.043716661632061005,0.009801027365028858,-0.004179071635007858,0.18644125759601593,-0.19562548398971558,-9.773524284362793
1745726126.7314494,0.037536460906267166,0.001911789528094232,-0.008204540237784386,0.45701083540916443,0.11240748316049576,-9.307123184204102
1745726126.7329502,0.02087322436273098,-0.0006149868713691831,-0.016702380031347275,0.3542019724845886,0.2511180341243744,-9.859155654907227
1745726126.741819,0.03708198666572571,0.00622151605784893,-0.023978620767593384,0.4655798077583313,0.14957675337791443,-10.274894714355469
1745726126.773038,0.03042910061776638,0.000560615211725235,-0.028240149840712547,0.20983490347862244,0.4105459153652191,-9.81482982635498
1745726126.7764103,0.044577937573194504,0.007800559047609568,-0.03251499682664871,0.3525913655757904,-0.08789141476154327,-9.377225875854492
1745726126.781353,0.03715455159544945,-0.005419585388153791,-0.03264471888542175,0.5261930227279663,0.281497061252594,-9.727621078491211
1745726126.7847865,0.049105092883110046,0.005091510713100433,-0.03159238025546074,0.3430016338825226,-0.15493354201316833,-10.344255447387695
1745726126.7886024,0.06927226483821869,0.00769417267292738,-0.032939232885837555,0.5560470223426819,0.36706990003585815,-9.689214706420898
1745726126.8172872,0.05225982517004013,0.0009491328382864594,-0.03443784639239311,0.28557202219963074,0.2322026789188385,-9.519485473632812
1745726126.8184893,0.08819912374019623,-0.00010950597788905725,-0.04045848548412323,0.34784644842147827,0.223379448056221,-9.768487930297852
1745726126.820901,0.06810832023620605,-0.00029854002059437335,-0.047468625009059906,0.4325970709323883,0.3550596237182617,-10.060632705688477
1745726126.822927,0.08330251276493073,0.010374514386057854,-0.05278276279568672,0.19666214287281036,0.03211098536849022,-9.839349746704102
1745726126.865327,0.07137911021709442,-0.001078068627975881,-0.0581725649535656,0.44672703742980957,0.07239003479480743,-9.333791732788086
1745726126.865445,0.07169608026742935,0.0015267631970345974,-0.05825207382440567,0.3457266390323639,0.008522179909050465,-9.69726276397705
1745726126.8655417,0.058789052069187164,0.009568237699568272,-0.06134090572595596,0.4423786699771881,-0.0775047093629837,-10.109312057495117
1745726126.8656182,0.07232637703418732,0.006897925399243832,-0.06303466111421585,0.49388188123703003,0.008962476626038551,-9.825839042663574
1745726126.8658397,0.07580944895744324,0.009199986234307289,-0.06576517969369888,0.4194709360599518,0.2094525843858719,-9.518478393554688
1745726126.9129431,0.06136159226298332,-0.00014626186748500913,-0.06734449416399002,0.46387434005737305,-0.02905404008924961,-9.89164924621582
1745726126.9130316,0.094937264919281,0.005290293600410223,-0.09663957357406616,0.24377956986427307,0.2253180295228958,-9.618694305419922
1745726126.920418,0.09558846801519394,0.0025503418873995543,-0.10248763859272003,0.4615374505519867,0.23725326359272003,-9.867467880249023
1745726126.944999,0.12027754634618759,0.004263531416654587,-0.10726411640644073,0.27832847833633423,0.1780913770198822,-9.942614555358887
1745726126.9491496,0.11758895218372345,0.008131762035191059,-0.11016209423542023,0.37751826643943787,-0.045024000108242035,-9.578466415405273
1745726126.9524336,0.11121932417154312,-0.0004283788148313761,-0.10748694092035294,0.3616073727607727,-0.236411452293396,-9.647809028625488
1745726126.9567206,0.10997024923563004,0.007224954664707184,-0.10446009784936905,0.25127869844436646,-0.30021438002586365,-9.848082542419434
1745726126.9592295,0.09694130718708038,0.007652068044990301,-0.10281340032815933,0.44169044494628906,-0.41022953391075134,-9.786766052246094
1745726126.9915268,0.09089693427085876,0.0005278160679154098,-0.10150271654129028,0.01482545305043459,-0.11043481528759003,-9.732900619506836
1745726126.994044,0.06901369243860245,0.004251723177731037,-0.10178341716527939,0.22150711715221405,-0.3354918956756592,-9.6759614944458
1745726126.9989674,0.07803277671337128,0.004352367017418146,-0.1056651845574379,0.054170478135347366,0.1947004497051239,-9.715582847595215
1745726127.0003326,0.05703897401690483,-0.0009327773004770279,-0.10955610126256943,0.19158034026622772,-0.15225037932395935,-9.758249282836914
1745726127.0288239,0.06682373583316803,-0.006175787188112736,-0.11096100509166718,0.32755088806152344,0.08243604004383087,-9.846487998962402
1745726127.0312984,0.06791196763515472,-0.005128104239702225,-0.1081007719039917,0.1318720132112503,-0.07513926178216934,-9.935412406921387
1745726127.0343142,0.08472724258899689,-0.003763738553971052,-0.10416765511035919,0.3509655296802521,-0.19889764487743378,-9.664876937866211
1745726127.0398257,0.0788053423166275,-0.011394244618713856,-0.09892426431179047,0.1604524850845337,0.11696672439575195,-9.676755905151367
1745726127.042943,0.09842132031917572,-0.009490082040429115,-0.09634821116924286,0.39339572191238403,-0.1861853152513504,-9.88874626159668
1745726127.0744333,0.0552520677447319,-0.026854049414396286,-0.11421842873096466,0.5375835299491882,-0.28374990820884705,-9.892820358276367
1745726127.075778,0.08075390756130219,-0.024064186960458755,-0.11720136553049088,0.3566141426563263,-0.058063067495822906,-9.97131633758545
1745726127.0773222,0.05412384122610092,0.0044008661061525345,-0.1178402453660965,0.3945772051811218,-0.20566758513450623,-9.730469703674316
1745726127.079845,0.08418767154216766,-0.011593913659453392,-0.11823184788227081,0.20361383259296417,-0.006660762242972851,-9.403497695922852
1745726127.119021,0.08023607730865479,-0.008191627450287342,-0.12102542817592621,0.5871928930282593,-0.03802680969238281,-9.577725410461426
1745726127.1306794,0.0853860005736351,-0.005606938153505325,-0.12911106646060944,0.6047781705856323,-0.028703778982162476,-10.39062786102295
1745726127.130772,0.09849437326192856,-0.002149079227820039,-0.13210612535476685,0.21507883071899414,-0.12262704223394394,-10.070266723632812
1745726127.13102,0.08467253297567368,-0.0037495805881917477,-0.13017792999744415,0.457500159740448,-0.5696070194244385,-9.158775329589844
1745726127.1328,0.08386977016925812,-0.0012343296548351645,-0.12839333713054657,0.2984410524368286,-0.3870934844017029,-9.528246879577637
1745726127.160315,0.05738533288240433,4.6401099098147824e-05,-0.13029122352600098,0.3705132007598877,-0.586222767829895,-10.232796669006348
1745726127.1629891,0.06341399252414703,-0.004491542465984821,-0.12977778911590576,0.5360811948776245,-0.25266534090042114,-10.018813133239746
1745726127.1642952,0.06096867471933365,0.011874194256961346,-0.13476060330867767,0.3264210820198059,-0.14118692278862,-9.517189979553223
1745726127.1713316,0.04594741016626358,-0.007232981733977795,-0.13627776503562927,0.4767605662345886,-0.2816978991031647,-9.642438888549805
1745726127.2039216,0.05876348167657852,-0.005040128715336323,-0.14048650860786438,0.4144074320793152,-0.12520664930343628,-10.084383010864258
1745726127.206356,0.05418025329709053,0.007303457707166672,-0.1429787427186966,0.4587826728820801,-0.2953541874885559,-9.973939895629883
1745726127.2082887,0.06191228702664375,0.002192526124417782,-0.1389911025762558,0.2551751434803009,-0.16552773118019104,-9.519136428833008
1745726127.213859,0.05996299535036087,0.00558043597266078,-0.14036600291728973,0.3789204955101013,-0.17430700361728668,-9.455850601196289
1745726127.2469897,0.07495518028736115,0.004838055931031704,-0.1422143280506134,0.5316896438598633,-0.07747723162174225,-10.020344734191895
1745726127.250441,0.07934586703777313,0.0068490030243992805,-0.14784273505210876,0.22496552765369415,0.13120225071907043,-10.177510261535645
1745726127.2549064,0.0937744602560997,0.010731871239840984,-0.14989447593688965,0.5723553895950317,-0.2537473142147064,-9.569513320922852
1745726127.2579968,0.07177621126174927,0.02052953839302063,-0.16385965049266815,0.47140151262283325,-0.1933993250131607,-9.692018508911133
1745726127.2904727,0.06380622088909149,0.010560018941760063,-0.16779127717018127,0.49420905113220215,-0.12172702699899673,-9.606592178344727
1745726127.2905624,0.08019210398197174,0.013202281668782234,-0.16910266876220703,0.3782583773136139,-0.25685960054397583,-9.94178295135498
1745726127.2923205,0.07516342401504517,0.012104460969567299,-0.17009620368480682,0.5111283659934998,-0.2931266725063324,-9.94311237335205
1745726127.2956948,0.07706116139888763,0.01978091523051262,-0.17019085586071014,0.22283431887626648,-0.26751017570495605,-9.667939186096191
1745726127.2992637,0.07219438254833221,0.015973487868905067,-0.16984963417053223,0.44431108236312866,-0.5001505613327026,-9.509920120239258
1745726127.3359027,0.07822321355342865,0.010353168472647667,-0.17304208874702454,0.4754711985588074,-0.11565492302179337,-9.802885055541992
1745726127.3394127,0.07289993762969971,0.021863048896193504,-0.175075501203537,0.3502238690853119,-0.38500335812568665,-10.089422225952148
1745726127.3450575,0.0783550962805748,0.015413740649819374,-0.17520885169506073,0.4461343288421631,-0.36004966497421265,-9.742072105407715
1745726127.3474855,0.07209642231464386,0.015750642865896225,-0.18021439015865326,0.2735881209373474,-0.35835370421409607,-9.46032428741455
1745726127.3734999,0.07131993025541306,0.016803648322820663,-0.17726626992225647,0.4738280773162842,-0.6059485077857971,-9.780019760131836
1745726127.37625,0.06444983184337616,0.019257614389061928,-0.1783062070608139,0.37276142835617065,-0.3006463050842285,-10.00205135345459
1745726127.3780572,0.061900198459625244,0.02414213865995407,-0.17986416816711426,0.4093471169471741,-0.5841348767280579,-9.693856239318848
1745726127.3794363,0.05547274276614189,0.015385148115456104,-0.17699171602725983,0.4297409951686859,-0.3066657483577728,-9.578508377075195
1745726127.381681,0.06164390966296196,0.017302295193076134,-0.18357186019420624,0.38627171516418457,-0.3629569113254547,-9.894037246704102
1745726127.4180238,0.056935619562864304,0.01671280525624752,-0.18231350183486938,0.5143343210220337,-0.3473142087459564,-9.996528625488281
1745726127.4246795,0.013073948211967945,-0.01881680265069008,-0.14059242606163025,0.41881436109542847,-0.49651002883911133,-9.632780075073242
1745726127.4248662,0.034828849136829376,-0.015220507979393005,-0.1387912929058075,0.23665527999401093,-0.18585896492004395,-9.595308303833008
1745726127.4249542,0.0129605233669281,-0.01452113501727581,-0.13892307877540588,0.48698991537094116,-0.48561152815818787,-9.92540168762207
1745726127.461358,0.02738082967698574,-0.018164854496717453,-0.1375935673713684,0.3223758637905121,-0.4021624028682709,-9.944217681884766
1745726127.4649062,0.023704862222075462,-0.013258138671517372,-0.13441044092178345,0.28396737575531006,-0.43760165572166443,-9.47462272644043
1745726127.4685674,0.00242180866189301,-0.022609557956457138,-0.13529035449028015,0.3333509862422943,-0.5310560464859009,-9.686239242553711
1745726127.4719784,0.022419001907110214,-0.013992530293762684,-0.1356469690799713,0.1443393975496292,-0.3800585865974426,-9.987231254577637
1745726127.4753358,0.010023658163845539,-0.01647983118891716,-0.13452646136283875,0.3319852352142334,-0.48152104020118713,-9.804908752441406
1745726127.5062046,0.005426310934126377,-0.021321922540664673,-0.13452288508415222,0.20906774699687958,-0.30157333612442017,-9.688894271850586
1745726127.5108507,0.004563105292618275,-0.019143376499414444,-0.13692858815193176,0.2956417202949524,-0.5887669324874878,-9.73161506652832
1745726127.5143785,0.005003719590604305,-0.02524888888001442,-0.13140961527824402,0.41296300292015076,-0.42674288153648376,-9.846231460571289
1745726127.5175803,-0.0016811287496238947,-0.015643779188394547,-0.13153702020645142,0.17583522200584412,-0.5296726822853088,-9.856711387634277
1745726127.5480235,-0.002594409044831991,-0.020779015496373177,-0.12925037741661072,0.38580483198165894,-0.577834963798523,-9.612025260925293
1745726127.553098,-0.0035114034544676542,-0.02257189340889454,-0.12732979655265808,0.2456798553466797,-0.31435626745224,-9.760584831237793
1745726127.5534098,-0.0047483197413384914,-0.016040220856666565,-0.12656942009925842,0.34623122215270996,-0.4564394950866699,-9.902986526489258
1745726127.5552669,-0.003913045395165682,-0.025466060265898705,-0.12648606300354004,0.3507997393608093,-0.2538059651851654,-9.7951021194458
1745726127.5898314,-2.066204251605086e-05,-0.023396247997879982,-0.12942317128181458,0.17038892209529877,-0.3299819827079773,-9.756728172302246
1745726127.5920622,-0.011727847158908844,-0.023120950907468796,-0.12911143898963928,0.4149371087551117,-0.4150571823120117,-9.757874488830566
1745726127.5957072,0.009992823004722595,-0.02186686173081398,-0.12676319479942322,0.2355358600616455,-0.3421739935874939,-9.759073257446289
1745726127.5996127,-0.01296992041170597,-0.018018871545791626,-0.12678061425685883,0.3069913983345032,-0.4030740261077881,-9.789281845092773
1745726127.6033278,-0.002601769519969821,-0.030385244637727737,-0.12429563701152802,0.3589811623096466,-0.4485397934913635,-9.832906723022461
1745726127.6336696,-0.013825925067067146,-0.02307439222931862,-0.12027088552713394,0.4138409495353699,-0.5343605279922485,-9.782907485961914
1745726127.6397107,-0.012958899140357971,-0.020331166684627533,-0.11915415525436401,0.3007897436618805,-0.31743764877319336,-9.73351001739502
1745726127.6507921,-0.016168585047125816,-0.01799740456044674,-0.11822298914194107,0.2548162341117859,-0.47110190987586975,-9.802050590515137
1745726127.6508791,-0.021951274946331978,-0.025748545303940773,-0.11726193130016327,0.2652614116668701,-0.37204137444496155,-9.84776496887207
1745726127.6803367,-0.004903469234704971,-0.01604555919766426,-0.11642859876155853,0.23724043369293213,-0.30943232774734497,-9.6819429397583
1745726127.6818058,-0.014512057416141033,-0.017701270058751106,-0.11746605485677719,0.35660117864608765,-0.2770269811153412,-9.684602737426758
1745726127.6828353,-0.004930656868964434,-0.02501552365720272,-0.11832370609045029,0.17152050137519836,-0.27076244354248047,-9.959630966186523
1745726127.6846662,-0.004092273768037558,-0.01631843112409115,-0.11783996969461441,0.3832783102989197,-0.31707969307899475,-9.80168342590332
1745726127.7272797,-0.0054534547962248325,-0.0202585831284523,-0.11813464015722275,0.34316718578338623,-0.37375831604003906,-9.836933135986328
1745726127.727386,0.00829213485121727,-0.016510169953107834,-0.11555036157369614,0.16369418799877167,-0.3668377995491028,-9.679450035095215
1745726127.7274442,-0.016249073669314384,-0.024091526865959167,-0.11700904369354248,0.4503716826438904,-0.5572611093521118,-9.725434303283691
1745726127.7320259,-4.714028909802437e-05,-0.012563931755721569,-0.11505734920501709,0.16589193046092987,-0.31377577781677246,-9.866315841674805
1745726127.7355628,-0.01971510425209999,-0.013964012265205383,-0.11678491532802582,0.34134477376937866,-0.46901935338974,-9.692556381225586
1745726127.76911,-0.009850339964032173,-0.0186652522534132,-0.11503006517887115,0.26364731788635254,-0.3769072890281677,-9.79572868347168
1745726127.787425,-0.010551638901233673,-0.012498767115175724,-0.11627817153930664,0.22291843593120575,-0.35268858075141907,-9.8580322265625
1745726127.8074765,0.0005433792248368263,0.006479737348854542,-0.14774581789970398,0.43552646040916443,-0.4762973189353943,-9.911657333374023
1745726127.8075383,-0.00020219125144649297,0.009630052372813225,-0.1452549248933792,0.20287294685840607,-0.39899715781211853,-9.573911666870117
1745726127.8075874,-0.003846587613224983,0.012315282598137856,-0.14810290932655334,0.28703436255455017,-0.4226159155368805,-9.529104232788086
1745726127.8076875,-0.0037290994077920914,0.002015043282881379,-0.15017059445381165,0.4299694001674652,-0.28647124767303467,-9.992047309875488
1745726127.8114896,0.0009514849516563118,0.014945311471819878,-0.1505916565656662,0.26217302680015564,-0.25933557748794556,-10.074041366577148
1745726127.8115413,-0.0040610418654978275,0.00698099797591567,-0.1533665657043457,0.4712499976158142,-0.4859260022640228,-9.632993698120117
1745726127.8465884,0.00798407755792141,0.009201097302138805,-0.15160512924194336,0.2605397701263428,-0.254161536693573,-9.523519515991211
1745726127.8585384,-0.010142289102077484,0.008885188028216362,-0.15292012691497803,0.44611087441444397,-0.5441471338272095,-9.88952350616455
1745726127.858605,0.00842929445207119,0.008098706603050232,-0.15255749225616455,0.39993396401405334,-0.3502693772315979,-10.00729751586914
1745726127.862532,-0.0019055325537919998,0.015795787796378136,-0.15230253338813782,0.3091011047363281,-0.22117166221141815,-9.63856029510498
1745726127.869635,-0.005186168011277914,0.006335272453725338,-0.15542426705360413,0.4975740313529968,-0.4057772755622864,-9.619054794311523
1745726127.8907855,0.0180923193693161,0.00728023424744606,-0.15743395686149597,0.19979995489120483,-0.09104596078395844,-9.9170560836792
1745726127.8941545,0.004094032105058432,0.010354405269026756,-0.15865139663219452,0.5072637796401978,-0.3821547329425812,-9.87462329864502
1745726127.898205,0.019242700189352036,0.009694965556263924,-0.16105635464191437,0.2822086215019226,-0.17216041684150696,-9.699551582336426
1745726127.900168,0.016623642295598984,0.010157723911106586,-0.16029036045074463,0.24293914437294006,-0.4388975203037262,-9.579557418823242
1745726127.9334216,0.018677767366170883,0.006064864341169596,-0.15832999348640442,0.3496421277523041,-0.32526224851608276,-9.764805793762207
1745726127.93584,0.017007946968078613,0.012966257520020008,-0.15782424807548523,0.1702115535736084,-0.5108726024627686,-9.933083534240723
1745726127.9384866,0.01656038872897625,0.0017243626061826944,-0.15407074987888336,0.2617744505405426,-0.6029941439628601,-9.806127548217773
1745726127.940095,0.0002273116260766983,0.006450239568948746,-0.15441450476646423,0.08101202547550201,-0.3188464045524597,-9.745755195617676
1745726127.9497492,-0.002976620104163885,0.006189368665218353,-0.1546909511089325,0.15856370329856873,-0.6104264259338379,-9.730508804321289
1745726127.9790535,-0.0055631110444664955,-0.0007848035311326385,-0.1519462615251541,0.32935142517089844,-0.34986841678619385,-9.706217765808105
1745726127.9813125,-0.021008700132369995,0.005250333342701197,-0.15514205396175385,0.21300330758094788,-0.42282095551490784,-9.854108810424805
1745726127.9818292,0.021260160952806473,-0.006794290151447058,-0.1469792276620865,0.11076472699642181,-0.061157118529081345,-9.687200546264648
1745726127.9841912,0.012399904429912567,-0.006583471782505512,-0.14893069863319397,0.36677098274230957,-0.47026705741882324,-9.889538764953613
