timestamp,angular_vel_x,angular_vel_y,angular_vel_z,linear_acc_x,linear_acc_y,linear_acc_z
1745726241.4530334,-0.00368893938139081,0.004959081765264273,-0.024798933416604996,0.19651654362678528,-0.09991800040006638,-9.790918350219727
1745726241.4531314,-0.01209921296685934,0.0038015246391296387,-0.025146503001451492,0.4065335690975189,-0.1787864863872528,-9.746866226196289
1745726241.4532182,-0.006521427072584629,0.0021520303562283516,-0.027965545654296875,0.26074326038360596,-0.05220143124461174,-9.82404613494873
1745726241.4532702,-0.0054701268672943115,0.006618741899728775,-0.026092806831002235,0.3028683662414551,-0.20956197381019592,-9.787909507751465
1745726241.453366,-0.010967068374156952,-0.0028600834775716066,-0.026424676179885864,0.32980766892433167,-0.06711909919977188,-9.787405967712402
1745726241.4534516,-0.005705639254301786,0.00452400604262948,-0.025006365031003952,0.22222793102264404,-0.14684836566448212,-9.81741714477539
1745726241.4535034,-0.009700419381260872,0.0014474430354312062,-0.025235360488295555,0.4140266478061676,-0.1378941386938095,-9.74811840057373
1745726241.4535494,-0.005658193491399288,0.0029672300443053246,-0.025230705738067627,0.2089274823665619,-0.04489657282829285,-9.792689323425293
1745726241.453609,-0.01054123044013977,0.0024208712857216597,-0.026246171444654465,0.37263837456703186,-0.20027101039886475,-9.739058494567871
1745726241.4649231,-0.008029057644307613,-0.0007823021151125431,-0.026132801547646523,0.29327473044395447,-0.034333281219005585,-9.813875198364258
1745726241.4649813,-0.004593871999531984,0.005184088833630085,-0.023917097598314285,0.267106831073761,-0.16496926546096802,-9.790151596069336
1745726241.4650056,-0.011477440595626831,-0.0002549760101828724,-0.024845687672495842,0.4040587544441223,-0.09517509490251541,-9.738420486450195
1745726241.4660277,-0.003226006869226694,0.0017892526229843497,-0.026446957141160965,0.19294831156730652,-0.08106736838817596,-9.826581954956055
1745726241.475341,-0.012088285759091377,0.001508778310380876,-0.02508903108537197,0.40674924850463867,-0.1887647807598114,-9.769014358520508
1745726241.478563,-0.006064681801944971,-0.0011954379733651876,-0.02376950904726982,0.268113911151886,-0.03567301854491234,-9.798892974853516
1745726241.4798157,-0.00745204696431756,0.0034746688324958086,-0.02650853432714939,0.2899337112903595,-0.18406839668750763,-9.75535774230957
1745726241.4824722,-0.010991312563419342,-0.0018478354904800653,-0.02380826510488987,0.35845956206321716,-0.07920364290475845,-9.785490989685059
1745726241.5231774,-0.004701148718595505,0.003620487404987216,-0.025416221469640732,0.21059289574623108,-0.09794660657644272,-9.823554992675781
1745726241.5233092,0.04510357975959778,0.02360689640045166,-0.06805652379989624,0.47736015915870667,0.06606253981590271,-10.253772735595703
1745726241.5274453,0.05053820461034775,0.034510742872953415,-0.07108805328607559,0.49200090765953064,-0.14669743180274963,-9.193551063537598
1745726241.5307825,0.04205230996012688,0.016915012151002884,-0.07312538474798203,0.7133646607398987,0.05190058797597885,-9.24239444732666
1745726241.692652,0.04807953163981438,0.022942248731851578,-0.0753563642501831,0.5507422685623169,-0.31892484426498413,-10.334644317626953
1745726241.6927717,0.06485693156719208,0.03183431178331375,-0.07609187066555023,0.7079592943191528,-0.10054142773151398,-10.231721878051758
1745726241.692833,0.0418466217815876,0.03161166235804558,-0.07966890931129456,0.33329078555107117,-0.18444350361824036,-9.463491439819336
1745726241.6930008,0.053618498146533966,0.03239569813013077,-0.07925141602754593,0.4420241713523865,-0.28913792967796326,-9.138821601867676
1745726241.6930728,0.04169689863920212,0.02551894821226597,-0.08367383480072021,0.6325719952583313,0.06422003358602524,-9.89419937133789
1745726241.6931684,0.04760578274726868,0.03267386555671692,-0.08699856698513031,0.5325743556022644,-0.15167328715324402,-10.368316650390625
1745726241.6932905,0.047878723591566086,0.03168341517448425,-0.0923956036567688,0.6184409260749817,-0.18269410729408264,-9.690649032592773
1745726241.6933417,0.04199602082371712,0.029013127088546753,-0.09494984149932861,0.48834681510925293,-0.13785982131958008,-9.321929931640625
1745726241.693464,0.046754054725170135,0.030585503205657005,-0.09233017265796661,0.6994592547416687,-0.2907734513282776,-9.79663372039795
1745726241.6935308,0.03641192987561226,0.02748342975974083,-0.09275458753108978,0.7160161137580872,-0.19435866177082062,-10.296059608459473
1745726241.693611,0.06030169129371643,0.04026814550161362,-0.0929633155465126,0.4424038827419281,-0.14846475422382355,-9.820868492126465
1745726241.693673,0.04505980387330055,0.02653523162007332,-0.09400273859500885,0.5640647411346436,0.0009854317177087069,-9.197298049926758
1745726241.6937168,0.07066324353218079,0.02905689738690853,-0.10063643753528595,0.4877359867095947,0.12465032190084457,-9.724081039428711
1745726241.6937554,0.07422443479299545,0.035082004964351654,-0.1043892651796341,0.6150298118591309,0.13666678965091705,-10.14527416229248
1745726241.69462,0.07734768837690353,0.03104546293616295,-0.10937110334634781,0.4963394105434418,0.03290415555238724,-9.857597351074219
1745726241.6979632,0.09064806997776031,0.03711261600255966,-0.11185918003320694,0.4493642747402191,-0.08016116917133331,-9.255457878112793
1745726241.7028403,0.07690152525901794,0.027390513569116592,-0.11206310987472534,0.6471095681190491,-0.31023502349853516,-9.574438095092773
1745726241.7063508,0.09081904590129852,0.03796481713652611,-0.1118505597114563,0.49440139532089233,-0.2485729455947876,-10.182113647460938
1745726241.7360275,0.0769200250506401,0.03205248340964317,-0.12323322147130966,0.49111348390579224,-0.011987283825874329,-9.592903137207031
1745726241.7382896,0.06595702469348907,0.034706927835941315,-0.12694533169269562,0.6522700190544128,-0.41110095381736755,-10.105497360229492
1745726241.7405198,0.08401545137166977,0.021998737007379532,-0.1269872486591339,0.6403847932815552,-0.10783827304840088,-9.982763290405273
1745726241.7435899,0.07632441073656082,0.03369670361280441,-0.1283619999885559,0.614364504814148,-0.23198190331459045,-9.533873558044434
1745726241.7802644,0.0821712464094162,0.028642797842621803,-0.128268301486969,0.6270673871040344,-0.21813663840293884,-9.604191780090332
1745726241.7806945,0.07569154351949692,0.021322328597307205,-0.13061866164207458,0.4352472722530365,-0.12539063394069672,-9.888750076293945
1745726241.7835298,0.08269324153661728,0.02973080798983574,-0.1312132328748703,0.6513239741325378,-0.27013254165649414,-9.813035011291504
1745726241.785862,0.0782097727060318,0.020849810913205147,-0.13519464433193207,0.5132165551185608,0.003177788807079196,-9.715079307556152
1745726241.9383068,0.09147826582193375,0.0206522885710001,-0.13691560924053192,0.48594775795936584,-0.30015677213668823,-9.743062019348145
1745726241.938413,0.08102760463953018,0.017164889723062515,-0.13655418157577515,0.6984169483184814,-0.15198636054992676,-9.75753402709961
1745726241.9384863,0.0832476019859314,0.019625898450613022,-0.14058879017829895,0.5304828882217407,-0.36657318472862244,-9.88876724243164
1745726241.9385593,0.08207479119300842,0.01783672161400318,-0.1393735706806183,0.7155817747116089,-0.3714601695537567,-9.68452262878418
1745726241.9386628,0.07420548051595688,0.016050711274147034,-0.13953499495983124,0.5652602910995483,-0.36828911304473877,-9.727572441101074
1745726241.9388015,0.08135213702917099,0.01837468519806862,-0.13749882578849792,0.5491975545883179,-0.33960217237472534,-9.68519401550293
1745726241.9389074,0.03869050741195679,-0.030639246106147766,-0.17788846790790558,0.6685117483139038,-0.26820579171180725,-9.738476753234863
1745726241.9389603,0.04113784432411194,-0.03117108717560768,-0.18260031938552856,0.5464596748352051,-0.3053225576877594,-9.928861618041992
1745726241.939006,0.03973236307501793,-0.0236172117292881,-0.18292318284511566,0.6295766234397888,-0.5410197973251343,-9.889859199523926
1745726241.9390516,0.034463070333004,-0.030130162835121155,-0.18202129006385803,0.5640514492988586,-0.4034062325954437,-9.576140403747559
1745726241.9390955,0.037795327603816986,-0.022660665214061737,-0.17987856268882751,0.4932316243648529,-0.5126373171806335,-9.681862831115723
1745726241.93914,0.019260186702013016,-0.034476764500141144,-0.18301449716091156,0.6385590434074402,-0.4547026753425598,-9.887499809265137
1745726241.9391818,0.03444362431764603,-0.0241635050624609,-0.18457470834255219,0.4964091181755066,-0.4122372269630432,-9.895971298217773
1745726241.9517026,0.016878243535757065,-0.023277197033166885,-0.18825069069862366,0.6118066906929016,-0.308891236782074,-9.675996780395508
1745726241.953579,0.025692250579595566,-0.031351298093795776,-0.1888638734817505,0.47048911452293396,-0.3220386505126953,-9.754351615905762
1745726241.9536202,0.020602038130164146,-0.025856411084532738,-0.19152326881885529,0.5899541974067688,-0.3316473066806793,-9.775457382202148
1745726241.95598,0.010924192145466805,-0.023709231987595558,-0.1934226006269455,0.5727725028991699,-0.44860395789146423,-9.924117088317871
1745726241.9925325,0.02796570025384426,-0.02752436324954033,-0.19180791079998016,0.4052923321723938,-0.25395578145980835,-9.793681144714355
1745726241.9963615,0.019084759056568146,-0.028087874874472618,-0.1941504031419754,0.7816981077194214,-0.4253712594509125,-9.727212905883789
1745726241.9999003,0.04069886356592178,-0.02608383819460869,-0.1959308385848999,0.4555297791957855,-0.05164005607366562,-9.851709365844727
1745726242.0025244,0.024456892162561417,-0.026237403973937035,-0.1980244368314743,0.5756970643997192,-0.3300115168094635,-9.778179168701172
1745726242.004693,0.04208644479513168,-0.03297174721956253,-0.1986430585384369,0.5997442603111267,-0.2109602391719818,-9.719796180725098
1745726242.0391722,0.04281068965792656,-0.025493675842881203,-0.20013689994812012,0.4488239288330078,-0.3464304208755493,-9.834735870361328
1745726242.0394762,0.040443576872348785,-0.029227888211607933,-0.20227575302124023,0.5735236406326294,-0.4067758619785309,-9.916135787963867
1745726242.0409448,0.04269019514322281,-0.032271724194288254,-0.20213718712329865,0.4158124029636383,-0.3736453950405121,-9.824219703674316
1745726242.042458,0.036741096526384354,-0.025565195828676224,-0.20349447429180145,0.616110622882843,-0.5469716191291809,-9.718894958496094
1745726242.1847966,0.02343340590596199,-0.031999751925468445,-0.20485761761665344,0.5008803009986877,-0.36451536417007446,-9.80224609375
1745726242.1849813,0.0291404128074646,-0.02711605653166771,-0.20592951774597168,0.5655489563941956,-0.6638833284378052,-9.836993217468262
1745726242.185073,0.026028644293546677,-0.023053163662552834,-0.2159840613603592,0.4777224659919739,-0.2883390784263611,-9.835668563842773
1745726242.1851707,0.025427287444472313,-0.02370307222008705,-0.21433648467063904,0.5838464498519897,-0.3123568594455719,-9.761858940124512
1745726242.18527,0.0365707129240036,-0.024900589138269424,-0.21825671195983887,0.4334561824798584,-0.23611441254615784,-9.7505464553833
1745726242.1853516,0.028394777327775955,-0.023714521899819374,-0.21773791313171387,0.6096299290657043,-0.44830313324928284,-9.748395919799805
1745726242.185436,0.025925129652023315,-0.02744525671005249,-0.21700064837932587,0.5499118566513062,-0.3508683443069458,-9.837035179138184
1745726242.1854951,0.03445110470056534,-0.018421050161123276,-0.22040370106697083,0.4847976267337799,-0.4246588349342346,-9.796817779541016
1745726242.1855514,0.017950311303138733,-0.031052764505147934,-0.2178969830274582,0.5809561014175415,-0.45581793785095215,-9.798257827758789
1745726242.1856048,0.034583210945129395,-0.02295224741101265,-0.22238294780254364,0.42157548666000366,-0.4197567403316498,-9.85283088684082
1745726242.1856568,0.011128309182822704,-0.024862807244062424,-0.22335128486156464,0.5413047671318054,-0.4961751103401184,-9.741216659545898
1745726242.185701,0.012186619453132153,-0.03273141384124756,-0.22316010296344757,0.4442799985408783,-0.5207494497299194,-9.79912281036377
1745726242.1857467,0.015379315242171288,-0.020097102969884872,-0.2232452630996704,0.46857327222824097,-0.519944429397583,-9.76230525970459
1745726242.1857765,-0.004885145463049412,-0.02732895314693451,-0.22272169589996338,0.47525686025619507,-0.46786412596702576,-9.825798988342285
1745726242.2114532,0.009772339835762978,-0.021683460101485252,-0.22204160690307617,0.39935678243637085,-0.5142424702644348,-9.716492652893066
1745726242.2115703,-0.003008248982951045,-0.02558956667780876,-0.22418785095214844,0.5908037424087524,-0.36765506863594055,-9.654378890991211
1745726242.2135828,-0.01576872542500496,-0.018420113250613213,-0.22852912545204163,0.3718542754650116,-0.4222920835018158,-9.781633377075195
1745726242.2512214,-0.021565323695540428,-0.012814586982131004,-0.2271319180727005,0.4695777893066406,-0.3990444242954254,-9.794604301452637
1745726242.251572,-0.024708015844225883,-0.01542250532656908,-0.2293594628572464,0.42159953713417053,-0.32710593938827515,-9.787490844726562
1745726242.2540343,-0.014553944580256939,-0.01129604410380125,-0.23036205768585205,0.4274001121520996,-0.3551587462425232,-9.674510955810547
1745726242.2569141,-0.014725910499691963,-0.010883164592087269,-0.22691866755485535,0.546096920967102,-0.3215222954750061,-9.722768783569336
1745726242.2593203,-0.009452988393604755,-0.01722380518913269,-0.2300787717103958,0.37313103675842285,-0.20583994686603546,-9.836797714233398
1745726242.2950876,-0.005388126242905855,-0.00477129640057683,-0.22975771129131317,0.5474967956542969,-0.4513372480869293,-9.662786483764648
1745726242.4785085,-0.011702906340360641,-0.013708630576729774,-0.2290305644273758,0.42181453108787537,-0.14110103249549866,-9.568692207336426
1745726242.4785666,-0.005095015279948711,-0.01014154963195324,-0.23035688698291779,0.35203295946121216,-0.5088719725608826,-9.829333305358887
1745726242.4786816,-0.0039138877764344215,-0.010791972279548645,-0.22808969020843506,0.577019989490509,-0.2954375743865967,-9.81614875793457
1745726242.4787793,-3.740899410331622e-05,-0.004015919752418995,-0.22964899241924286,0.22621774673461914,-0.42198625206947327,-9.818984031677246
1745726242.478849,-0.008676575496792793,-0.009819191880524158,-0.2273760288953781,0.4796256124973297,-0.3560933470726013,-9.631973266601562
1745726242.478938,-0.011773069389164448,-0.013909196481108665,-0.2290809154510498,0.42267197370529175,-0.41048622131347656,-9.791494369506836
1745726242.4790165,-0.001246325671672821,-0.0026691716630011797,-0.22728940844535828,0.40283387899398804,-0.4479580819606781,-9.830121994018555
1745726242.4790642,-0.021852891892194748,-0.013697485439479351,-0.22820508480072021,0.50702303647995,-0.38655826449394226,-9.709625244140625
1745726242.4791522,-0.004999139346182346,-0.0067046163603663445,-0.22610023617744446,0.381504625082016,-0.43570417165756226,-9.707755088806152
1745726242.4792097,-0.02339692786335945,-0.006939618848264217,-0.22301554679870605,0.5011219382286072,-0.49369415640830994,-9.760747909545898
1745726242.4792795,-0.013665181584656239,-0.012881219387054443,-0.2231878936290741,0.34149545431137085,-0.3741045892238617,-9.832470893859863
1745726242.4793348,-0.01796315796673298,-0.004805092699825764,-0.22463011741638184,0.5087171792984009,-0.446679025888443,-9.724740028381348
1745726242.4793847,-0.017500901594758034,-0.010360600426793098,-0.2231585532426834,0.4205380380153656,-0.2668994069099426,-9.75634479522705
1745726242.479422,-0.01286810077726841,-0.0029517842922359705,-0.22413036227226257,0.3647381663322449,-0.29704749584198,-9.712368965148926
1745726242.4794602,-0.008637582883238792,-0.004585531074553728,-0.22075948119163513,0.42097845673561096,-0.5469835996627808,-9.73287296295166
1745726242.4794955,0.00011772270954679698,-0.0036515865940600634,-0.21980313956737518,0.42401090264320374,-0.24861018359661102,-9.668411254882812
1745726242.4925072,-0.011543864384293556,0.0009908381616696715,-0.21854627132415771,0.43717068433761597,-0.5655456781387329,-9.952986717224121
1745726242.4925668,-0.009462129324674606,-0.006946550216525793,-0.21530751883983612,0.3899737000465393,-0.2860901951789856,-9.862967491149902
1745726242.492607,-0.014263209886848927,-0.0019066475797444582,-0.21642903983592987,0.4584401547908783,-0.4912850856781006,-9.633828163146973
1745726242.4926653,-0.014782091602683067,-0.0017917081713676453,-0.2150898426771164,0.5247564315795898,-0.4033347964286804,-9.699867248535156
1745726242.511533,-0.018274899572134018,-0.00391812389716506,-0.21689307689666748,0.28409066796302795,-0.30048903822898865,-9.935441970825195
1745726242.5115855,-0.019102202728390694,-0.0009566273656673729,-0.2146543264389038,0.6048698425292969,-0.4988428056240082,-9.752954483032227
1745726242.5154169,-0.01814991980791092,-0.0023642282467335463,-0.21161842346191406,0.3952183127403259,-0.2712104916572571,-9.717917442321777
1745726242.5185554,-0.01760208047926426,0.0001919255591928959,-0.212595134973526,0.3046860694885254,-0.35243624448776245,-9.803274154663086
1745726242.5225606,-0.022503534331917763,-0.005946666933596134,-0.21423014998435974,0.5620097517967224,-0.30745112895965576,-9.788324356079102
1745726242.5536551,0.002093412447720766,0.0010515222093090415,-0.2156434953212738,0.36972182989120483,-0.20211505889892578,-9.788908004760742
1745726242.5593336,-0.024251412600278854,-0.0017422714736312628,-0.2156873196363449,0.6210311055183411,-0.2750762104988098,-9.652119636535645
1745726242.5593636,-0.0030551301315426826,-0.0035419068299233913,-0.21677954494953156,0.3894314765930176,-0.2272665798664093,-9.94106388092041
1745726242.561948,0.003841764759272337,0.0030372764449566603,-0.2160600870847702,0.46093717217445374,-0.25763100385665894,-9.775306701660156
1745726242.6057942,-0.0024182533379644156,-0.001276093884371221,-0.2302970588207245,0.37201187014579773,-0.26790231466293335,-9.761974334716797
1745726242.6064305,0.0023452870082110167,0.006688727531582117,-0.23019075393676758,0.5546003580093384,-0.36832278966903687,-9.644285202026367
1745726242.6065402,0.00044057704508304596,0.0013773224782198668,-0.2270933836698532,0.5216737985610962,-0.1777021884918213,-9.89491081237793
1745726242.6065695,0.0013084860984236002,0.002291464013978839,-0.2300994098186493,0.37060609459877014,-0.256047785282135,-9.961413383483887
1745726242.610269,0.012708854861557484,0.0016205087304115295,-0.23137786984443665,0.6045061945915222,-0.3161979913711548,-9.680990219116211
1745726242.640547,0.006948493421077728,-0.0012868319172412157,-0.2327897995710373,0.3458753824234009,-0.06866173446178436,-9.723456382751465
1745726242.6417856,0.018346944823861122,0.0007739682914689183,-0.2339971512556076,0.5247906446456909,-0.4302918314933777,-9.871417999267578
1745726242.648791,0.016774281859397888,-0.0039862534031271935,-0.23353421688079834,0.523526132106781,-0.12309101969003677,-9.754399299621582
1745726242.6489272,0.014317390508949757,0.007333879359066486,-0.23057112097740173,0.3828732371330261,-0.40746432542800903,-9.667826652526855
1745726242.6818612,0.012474438175559044,-0.0023378932382911444,-0.23353604972362518,0.5374264717102051,-0.33876311779022217,-9.653345108032227
1745726242.68535,0.01986214891076088,-0.002258190419524908,-0.2304113805294037,0.3853653073310852,-0.37304919958114624,-9.897451400756836
1745726242.6897504,0.02130422368645668,0.007437240332365036,-0.23043200373649597,0.5128925442695618,-0.3690982758998871,-9.883358001708984
1745726242.6935406,0.007024714257568121,-0.0052950503304600716,-0.23248204588890076,0.4023706018924713,-0.3202894330024719,-9.756890296936035
1745726242.69606,0.02125941589474678,0.0012713350588455796,-0.23231442272663116,0.4564361572265625,-0.45158490538597107,-9.693704605102539
1745726242.726079,-0.0002493344363756478,-0.0033326614648103714,-0.23104706406593323,0.5426369905471802,-0.3331853747367859,-9.786925315856934
1745726242.7292802,0.010422191582620144,0.0019172212341800332,-0.23036877810955048,0.33945655822753906,-0.46468114852905273,-9.890983581542969
1745726242.7401378,-0.001993355108425021,-0.0024512200616300106,-0.2300245314836502,0.5730828046798706,-0.39050111174583435,-9.657608985900879
1745726242.7432072,0.0011275653960183263,-0.0033394545316696167,-0.23043589293956757,0.46097642183303833,-0.3052609860897064,-9.840583801269531
1745726242.772474,-0.00016810614033602178,-0.0005569272907450795,-0.2303159236907959,0.47922736406326294,-0.28945910930633545,-9.828532218933105
1745726242.7725635,-0.0002503477153368294,-0.006762005388736725,-0.23210367560386658,0.6127046346664429,-0.3096298575401306,-9.859637260437012
1745726242.7730005,0.01886974647641182,-0.0009817108511924744,-0.23191797733306885,0.31142789125442505,-0.15663976967334747,-9.765336990356445
1745726242.7776668,0.019217830151319504,-0.008997052907943726,-0.23315982520580292,0.3952469825744629,-0.22022473812103271,-9.760472297668457
1745726242.815828,-0.0017233876278623939,-0.0032224305905401707,-0.23322263360023499,0.4371820390224457,-0.5260056257247925,-9.674324989318848
1745726242.8159811,0.0060828314162790775,-0.01267786044627428,-0.2317887246608734,0.5599572062492371,-0.32714682817459106,-9.728837013244629
1745726242.8160412,0.000628890295047313,-0.007325909100472927,-0.23268654942512512,0.32080596685409546,-0.32817038893699646,-9.943967819213867
1745726242.8185074,0.0014927575830370188,-0.0068494095467031,-0.23069444298744202,0.569854736328125,-0.4489777088165283,-9.792767524719238
1745726242.855008,0.00113517080899328,-0.011696761474013329,-0.2322675734758377,0.40128928422927856,-0.14335474371910095,-9.661988258361816
1745726242.8564713,0.0021839153487235308,-0.006970617920160294,-0.2324131429195404,0.5394517779350281,-0.45740967988967896,-9.75175952911377
1745726242.8571706,0.012945610098540783,-0.014576313085854053,-0.2323637753725052,0.46685370802879333,-0.08418671786785126,-9.877991676330566
1745726242.8599331,0.00949440710246563,-0.005386366043239832,-0.23103651404380798,0.3902021050453186,-0.352372944355011,-9.775984764099121
1745726242.8600917,0.0183004941791296,-0.008230824023485184,-0.23405630886554718,0.5809698104858398,-0.14325791597366333,-9.554555892944336
1745726242.8986244,0.009511911310255527,-0.01362779550254345,-0.23452696204185486,0.3886871337890625,-0.24262718856334686,-9.827020645141602
1745726242.904427,0.022076062858104706,-0.008388279005885124,-0.23647896945476532,0.5540235638618469,-0.4118248522281647,-9.933367729187012
1745726242.9057326,0.020844554528594017,-0.012226820923388004,-0.23449382185935974,0.41860127449035645,-0.18567223846912384,-9.823095321655273
1745726242.9072075,0.02822285331785679,-0.0064038969576358795,-0.23432591557502747,0.36543336510658264,-0.45239466428756714,-9.656046867370605
1745726242.9395723,0.014737998135387897,-0.01896459236741066,-0.23384514451026917,0.5209043025970459,-0.287167489528656,-9.706327438354492
1745726242.9410949,0.009351946413516998,-0.010918701067566872,-0.22065606713294983,0.29922622442245483,-0.37748557329177856,-9.713396072387695
1745726242.9426634,0.010436713695526123,-0.022965949028730392,-0.222686767578125,0.5928558707237244,-0.3053993284702301,-9.727194786071777
1745726242.9448936,0.01744452677667141,-0.013485623523592949,-0.22279635071754456,0.32058054208755493,-0.2047376185655594,-9.937180519104004
1745726242.9460444,0.014052393846213818,-0.015237879939377308,-0.22264178097248077,0.4810550808906555,-0.38649076223373413,-9.852839469909668
1745726242.982071,0.021300438791513443,-0.023375561460852623,-0.22533293068408966,0.34616950154304504,-0.16548119485378265,-9.6392183303833
1745726242.9845803,0.013162326999008656,-0.014861690811812878,-0.22038349509239197,0.3128199279308319,-0.4639667570590973,-9.71045970916748
1745726242.9885588,0.015121251344680786,-0.020817654207348824,-0.22137859463691711,0.5150404572486877,-0.3782878816127777,-9.768768310546875
1745726242.9913907,0.014668229036033154,-0.01671748235821724,-0.2199290543794632,0.310554563999176,-0.35470208525657654,-9.803051948547363
1745726243.0268676,0.007570338901132345,-0.01929534040391445,-0.21816837787628174,0.5624521970748901,-0.5314632654190063,-9.765552520751953
1745726243.035853,0.011929655447602272,-0.019794780761003494,-0.21959170699119568,0.349915474653244,-0.2829159200191498,-9.810537338256836
1745726243.0358982,0.0034198537468910217,-0.017468292266130447,-0.21761827170848846,0.405402272939682,-0.5659252405166626,-9.78471565246582
1745726243.0371358,0.0007224750588648021,-0.021556898951530457,-0.21677716076374054,0.47334203124046326,-0.3313221037387848,-9.751686096191406
1745726243.04066,-0.0006275709602050483,-0.015117156319320202,-0.21739396452903748,0.30579107999801636,-0.4141501486301422,-9.768691062927246
1745726243.0693147,-0.008118554949760437,-0.019847894087433815,-0.21698279678821564,0.5340784788131714,-0.4232665002346039,-9.72872257232666
1745726243.070749,-0.0024746868293732405,-0.016690805554389954,-0.21841545403003693,0.28132233023643494,-0.15215173363685608,-9.750570297241211
1745726243.0748785,-0.014504578895866871,-0.018821584060788155,-0.21665267646312714,0.5108710527420044,-0.4695703387260437,-9.827041625976562
1745726243.076161,0.008787775412201881,-0.020229816436767578,-0.21821892261505127,0.33945053815841675,-0.1503046452999115,-9.813138961791992
1745726243.1169236,-0.003755815327167511,-0.013357408344745636,-0.21586573123931885,0.3987260162830353,-0.3486606180667877,-9.698294639587402
1745726243.1169994,0.006901439279317856,-0.01833377406001091,-0.21598076820373535,0.5064378976821899,-0.25700053572654724,-9.692779541015625
1745726243.1183991,0.007835490629076958,-0.016406675800681114,-0.21499650180339813,0.28704124689102173,-0.20259790122509003,-9.788443565368652
1745726243.1221113,0.005672893952578306,-0.013765275478363037,-0.21281278133392334,0.5025490522384644,-0.4394344687461853,-9.766546249389648
1745726243.1556847,-0.0037548220716416836,-0.011677009053528309,-0.20715217292308807,0.44324618577957153,-0.27646782994270325,-9.694231986999512
1745726243.1589923,-0.01537132728844881,-0.014901801943778992,-0.2077658474445343,0.4193194806575775,-0.3206145763397217,-9.86889362335205
1745726243.160557,0.0015237372135743499,-0.015623906627297401,-0.20739197731018066,0.21800410747528076,-0.2691250443458557,-9.816825866699219
1745726243.1641524,-0.005476883612573147,-0.010153500363230705,-0.20650804042816162,0.5190708041191101,-0.27165713906288147,-9.622365951538086
1745726243.1987221,-0.006625548005104065,-0.013377522118389606,-0.2065052092075348,0.29366618394851685,-0.27239280939102173,-9.8362455368042
1745726243.2032719,0.006184406578540802,-0.008566115982830524,-0.20229224860668182,0.3751334547996521,-0.33059799671173096,-9.81912612915039
1745726243.2066598,-0.003590430598706007,-0.014758685603737831,-0.20600636303424835,0.465097039937973,-0.23887117207050323,-9.787437438964844
1745726243.2098393,0.011435561813414097,-0.005196915008127689,-0.20631854236125946,0.24474170804023743,-0.26425737142562866,-9.791681289672852
1745726243.2142441,-0.0026515591889619827,-0.013754782266914845,-0.204090878367424,0.5378824472427368,-0.3794381618499756,-9.663002967834473
1745726243.2436318,0.007816599681973457,-0.00898229144513607,-0.20273669064044952,0.3076518476009369,-0.24767151474952698,-9.803458213806152
1745726243.246943,-0.0036659431643784046,-0.0029738699086010456,-0.2047596275806427,0.3305061459541321,-0.4276273846626282,-9.770395278930664
1745726243.2504296,-0.0012020369758829474,-0.013439605012536049,-0.20154790580272675,0.4256029725074768,-0.349428653717041,-9.736283302307129
1745726243.2534642,0.006641505751758814,0.0009697388741187751,-0.19997622072696686,0.2531198561191559,-0.3038022518157959,-9.818428039550781
1745726243.282812,-0.01422741450369358,-0.012285967357456684,-0.2035408318042755,0.43258947134017944,-0.42910236120224,-9.89335823059082
1745726243.2864451,0.004033574368804693,-0.010369614697992802,-0.20033836364746094,0.3249855637550354,-0.2773820757865906,-9.817383766174316
1745726243.2894385,-0.03217950090765953,-0.0066152410581707954,-0.1706448346376419,0.428077757358551,-0.37965288758277893,-9.583547592163086
1745726243.2957704,-0.0008296702289953828,-0.008063485845923424,-0.1633642166852951,0.3377414643764496,-0.040761567652225494,-9.694432258605957
1745726243.2990339,-0.0120815709233284,0.0008684828644618392,-0.16410598158836365,0.43265748023986816,-0.13447390496730804,-10.034324645996094
1745726243.3280032,0.009903986938297749,-0.005233366508036852,-0.1627962738275528,0.23982438445091248,-0.09593428671360016,-9.86357593536377
1745726243.3340237,0.015237892977893353,0.0016399869928136468,-0.1602344959974289,0.31902188062667847,-0.11763638257980347,-9.451615333557129
1745726243.340102,0.0019901965279132128,-0.010373550467193127,-0.1604304313659668,0.47637471556663513,-0.37164780497550964,-9.696803092956543
1745726243.3450496,0.009977580979466438,-0.0016548195853829384,-0.15752312541007996,0.2075759917497635,-0.40112781524658203,-10.093722343444824
1745726243.3691075,-0.00862092524766922,0.001756994053721428,-0.1539754569530487,0.4613965153694153,-0.6758140325546265,-9.773580551147461
1745726243.3727114,-0.011191161349415779,-0.00430473405867815,-0.15022285282611847,0.24623310565948486,-0.43212729692459106,-9.488273620605469
1745726243.3761752,-0.04127824306488037,-0.0021147464867681265,-0.14760830998420715,0.41399890184402466,-0.6397937536239624,-9.74224853515625
1745726243.37742,-0.03932870551943779,-0.006145448889583349,-0.14764457941055298,0.49957069754600525,-0.3864578604698181,-10.073668479919434
1745726243.379702,-0.04524308070540428,0.0008990356582216918,-0.1443467140197754,0.26022768020629883,-0.25727763772010803,-9.824957847595215
1745726243.4128008,-0.056991200894117355,-0.004464091267436743,-0.14318689703941345,0.49253588914871216,-0.38702425360679626,-9.568175315856934
1745726243.4161677,-0.03475701063871384,-0.007689895574003458,-0.14349612593650818,0.27769380807876587,0.0017448306316509843,-9.723034858703613
1745726243.419079,-0.049152813851833344,-0.004724130965769291,-0.13853928446769714,0.37166398763656616,-0.37046343088150024,-10.082090377807617
1745726243.4212165,-0.022251741960644722,-0.004535573534667492,-0.13607659935951233,0.3625852167606354,0.03854431211948395,-9.689254760742188
1745726243.4615233,-0.02426121011376381,-0.0002794095198623836,-0.13498322665691376,0.2841319441795349,-0.18552303314208984,-9.52746868133545
1745726243.4633484,-0.01575356535613537,-0.011099300347268581,-0.13459709286689758,0.48317259550094604,0.013669455423951149,-9.800860404968262
1745726243.4634216,-0.006472396664321423,-0.00787273794412613,-0.1327626258134842,0.3913027048110962,-0.11733412742614746,-10.053980827331543
1745726243.4670355,-0.0005734781734645367,-0.001287104794755578,-0.13328535854816437,0.47332948446273804,-0.23223654925823212,-9.84898567199707
1745726243.498826,-0.01389952003955841,-0.011926795355975628,-0.13190695643424988,0.2931554317474365,-0.25530806183815,-9.572874069213867
1745726243.5037074,-0.058217842131853104,-0.007271653972566128,-0.11618433147668839,0.43413811922073364,-0.3675670027732849,-9.775968551635742
1745726243.5073087,-0.019017815589904785,-0.005130888894200325,-0.11627589166164398,0.29967933893203735,-0.05899684503674507,-9.928034782409668
1745726243.5120158,-0.042750872671604156,-0.0008036738145165145,-0.11593441665172577,0.4916345477104187,-0.18469443917274475,-9.820289611816406
1745726243.5412645,-0.024895071983337402,-0.008770214393734932,-0.11463578790426254,0.3171503245830536,-0.03488009423017502,-9.788113594055176
1745726243.5435307,-0.02625543810427189,-0.006148280575871468,-0.11501618474721909,0.3703323304653168,-0.19305241107940674,-9.728581428527832
1745726243.5450354,-0.021244561299681664,-0.008134588599205017,-0.11420021206140518,0.48277974128723145,-0.11945052444934845,-9.79624080657959
1745726243.5472293,-0.014767490327358246,-0.00462976424023509,-0.11477313190698624,0.25840720534324646,-0.09624215215444565,-9.79302978515625
1745726243.5575924,-0.025112533941864967,-0.007521454244852066,-0.11202061176300049,0.3966235816478729,-0.34657809138298035,-9.764399528503418
1745726243.5841835,-0.003743726061657071,-0.008264563977718353,-0.11207953840494156,0.26724493503570557,-0.0317954495549202,-9.66986083984375
1745726243.5865314,-0.021069932729005814,-0.001472880714572966,-0.11186428368091583,0.37462934851646423,-0.4019133150577545,-9.82243537902832
1745726243.586574,-0.007362045347690582,-0.01141250692307949,-0.1117023229598999,0.3495793342590332,-0.11566615104675293,-9.872048377990723
1745726243.5876067,-0.01735037751495838,-0.006140532903373241,-0.11125417053699493,0.25763240456581116,-0.4069209098815918,-9.82261848449707
1745726243.6288655,-0.020774077624082565,-0.0016489916015416384,-0.1109004020690918,0.4615207612514496,-0.3201790153980255,-9.673604011535645
1745726243.62894,-0.033916302025318146,-0.006400828715413809,-0.10923459380865097,0.1948016881942749,-0.3695222735404968,-9.761902809143066
1745726243.6324458,-0.03183848410844803,-0.0029961250256747007,-0.11063249409198761,0.4654406011104584,-0.4087246358394623,-9.783319473266602
1745726243.636705,-0.017159033566713333,-0.002515445463359356,-0.09310029447078705,0.41356295347213745,-0.14187344908714294,-9.627607345581055
1745726243.67076,-0.010650123469531536,-0.0018790658796206117,-0.09504663944244385,0.3075945973396301,-0.26966896653175354,-9.844696998596191
1745726243.6732683,-0.008354385383427143,0.00407251063734293,-0.09286198019981384,0.46064138412475586,-0.10581328719854355,-9.82972240447998
1745726243.676289,-0.023075904697179794,-0.004519212059676647,-0.09272334724664688,0.24708516895771027,-0.15158376097679138,-9.916485786437988
1745726243.67933,0.0050993566401302814,0.002716343617066741,-0.09484847635030746,0.35527747869491577,-0.17778193950653076,-9.641820907592773
1745726243.6811862,-0.02072233334183693,-0.002140005584806204,-0.09398166090250015,0.40812045335769653,-0.059775788336992264,-9.735260963439941
1745726243.720261,0.0026291299145668745,0.00380881130695343,-0.09415934979915619,0.19851866364479065,-0.2543184161186218,-9.96342658996582
1745726243.7242532,-0.001315371715463698,0.0015527805080637336,-0.09565165638923645,0.4714215397834778,-0.09895864129066467,-9.607152938842773
1745726243.7297544,-0.01920541562139988,0.004568816162645817,-0.09257657825946808,0.21883313357830048,-0.16812562942504883,-9.686372756958008
1745726243.7327588,0.0026796148158609867,0.0027198714669793844,-0.09547556936740875,0.39998170733451843,-0.23195262253284454,-9.778489112854004
1745726243.755849,-0.015071201138198376,0.0038952871691435575,-0.09573914110660553,0.4384361207485199,-0.029239514842629433,-9.86275577545166
1745726243.7617319,-0.004653180483728647,0.007021320052444935,-0.09623726457357407,0.19553562998771667,-0.20958170294761658,-9.91376781463623
1745726243.7617757,-0.0044831507839262486,0.0017566427122801542,-0.09594064205884933,0.4926818013191223,-0.11519148200750351,-9.580155372619629
1745726243.763732,-0.006882797926664352,0.0029472659807652235,-0.09712965786457062,0.21474818885326385,-0.08265803009271622,-9.856514930725098
1745726243.7656314,-0.004147025290876627,0.004111346323043108,-0.0951305478811264,0.4329194128513336,-0.2191133052110672,-9.873997688293457
1745726243.8023298,0.001741042360663414,-0.0007891786517575383,-0.09534790366888046,0.3613181710243225,0.004263441078364849,-9.765290260314941
1745726243.8059914,0.0038435198366642,0.010576538741588593,-0.09561506658792496,0.28127044439315796,-0.12263800203800201,-9.654561996459961
1745726243.8093593,0.004940680228173733,-0.0023469228763133287,-0.09522733837366104,0.41973167657852173,-0.0983428880572319,-9.801486015319824
1745726243.8129857,0.008968757465481758,-0.0006360433180816472,-0.09642471373081207,0.2650980055332184,-0.03886885195970535,-9.88369369506836
1745726243.8438208,0.012693129479885101,0.005735353566706181,-0.09716381132602692,0.5316997766494751,-0.2812269628047943,-9.798151016235352
1745726243.8463433,0.005187562201172113,-9.563956700731069e-05,-0.0977097600698471,0.19231092929840088,0.028861001133918762,-9.751827239990234
1745726243.849167,0.021451396867632866,0.0016777595737949014,-0.09751833975315094,0.29067614674568176,-0.12283345311880112,-9.909261703491211
1745726243.8596191,0.02812759205698967,0.0068544126115739346,-0.09641239047050476,0.4908052980899811,-0.11002571880817413,-9.778791427612305
1745726243.8909519,0.016891056671738625,-0.0008228096994571388,-0.095486581325531,0.2140706479549408,-0.0433880090713501,-9.836565971374512
1745726243.8913853,0.03033001348376274,0.004415425006300211,-0.09647667407989502,0.37978845834732056,-0.29902684688568115,-9.715658187866211
1745726243.891482,0.022078363224864006,-0.0005358177586458623,-0.09781203418970108,0.4425908029079437,-0.040210239589214325,-9.693564414978027
1745726243.897977,0.019432973116636276,0.0008516965317539871,-0.09779991209506989,0.26124107837677,-0.26866328716278076,-9.905418395996094
1745726243.9019508,0.02333672158420086,-0.0005506394081749022,-0.09498609602451324,0.5016145706176758,-0.1687113493680954,-9.720185279846191
1745726243.9313245,0.014956611208617687,-0.0041892374865710735,-0.097211554646492,0.25872477889060974,-0.12466684728860855,-9.760912895202637
1745726243.9333966,0.02061534859240055,0.0031003053300082684,-0.09793566167354584,0.4334111213684082,-0.2601757347583771,-9.708854675292969
1745726243.93559,0.014682075008749962,-0.005136267282068729,-0.09717480838298798,0.3770434260368347,-0.09468810260295868,-9.846506118774414
1745726243.9397607,0.026396844536066055,0.0012304869014769793,-0.09497964382171631,0.3717105984687805,-0.18959805369377136,-9.8172025680542
1745726243.9707482,0.015375937335193157,-0.003217974677681923,-0.09666694700717926,0.40139055252075195,-0.15572227537631989,-9.69007396697998
1745726243.9724433,0.023761961609125137,-0.001611657440662384,-0.09516653418540955,0.05124678090214729,-0.27891188859939575,-9.805326461791992
1745726243.9746015,0.018146835267543793,0.0056190709583461285,-0.08698389679193497,0.6468464136123657,-0.3593599498271942,-9.436469078063965
1745726243.9767892,0.003395589767023921,-0.005926530342549086,-0.08138758689165115,0.2516065835952759,-0.29679033160209656,-10.075688362121582
1745726244.0151637,-0.021279584616422653,0.0009049211512319744,0.0002633144613355398,0.3913341760635376,-0.2715429365634918,-10.056623458862305
1745726244.020848,-0.013373966328799725,0.004750498570501804,0.0033289664424955845,0.2967446446418762,-0.3024510443210602,-9.575366020202637
1745726244.0231063,-0.03270123153924942,-0.0011491660261526704,0.006404528860002756,0.42802706360816956,-0.24342019855976105,-9.515106201171875
1745726244.024075,-0.01873542182147503,0.0024655344896018505,0.010237513110041618,0.23377442359924316,-0.23404784500598907,-9.970752716064453
1745726244.0254636,-0.03178676217794418,0.010967114008963108,0.014004433527588844,0.34251099824905396,-0.2692144513130188,-9.975995063781738
1745726244.0601418,-0.02613896131515503,0.0020492817275226116,0.016285955905914307,0.23483698070049286,-0.17334787547588348,-9.576126098632812
1745726244.0691602,-0.03015417419373989,0.014231461100280285,0.019189761951565742,0.34774431586265564,-0.1841287463903427,-9.496345520019531
1745726244.0727317,-0.03789403662085533,0.004149612504988909,0.018899936228990555,0.5012298822402954,-0.01751251332461834,-9.922755241394043
1745726244.074432,-0.027062034234404564,0.0045836609788239,0.02072746679186821,0.35500556230545044,-0.09502167999744415,-10.12702751159668
1745726244.1029344,-0.033144596964120865,0.005911019630730152,0.018762385472655296,0.5696660876274109,-0.049438439309597015,-9.715425491333008
1745726244.1065302,-0.02650557830929756,-0.0003094548301305622,0.01851281151175499,0.14748437702655792,0.07001341879367828,-9.715811729431152
1745726244.111089,-0.027246495708823204,0.0010919878259301186,0.018068578094244003,0.3171301484107971,-0.09035597741603851,-9.727602005004883
1745726244.114477,-0.013481149449944496,-0.004363585263490677,0.018377114087343216,0.32688695192337036,0.07241489738225937,-9.91114330291748
1745726244.1443856,-0.003067305078729987,0.00045803486136719584,0.016190167516469955,-0.09309925138950348,0.05400612950325012,-9.945634841918945
1745726244.1465786,-0.006187061313539743,-0.004790549632161856,0.017399486154317856,0.18335199356079102,-0.20353993773460388,-9.571843147277832
1745726244.1476984,0.004971704445779324,0.0014843217795714736,0.017509877681732178,0.049187831580638885,-0.11158387362957001,-9.6128568649292
1745726244.1503205,-0.01024048775434494,-0.0034105621743947268,0.015805335715413094,0.2868426740169525,-0.48300719261169434,-9.983879089355469
1745726244.1513343,-0.018666202202439308,-0.009719019755721092,0.02000267058610916,0.2902737259864807,-0.45166271924972534,-10.01319694519043
1745726244.1927793,-0.026925649493932724,0.004488794133067131,0.01883421093225479,0.13871222734451294,-0.5814202427864075,-9.695211410522461
1745726244.193749,-0.06617289781570435,-0.011021760292351246,0.022235143929719925,0.35740989446640015,-0.540371835231781,-9.492546081542969
1745726244.2062888,-0.07313258945941925,-0.008138925768435001,0.021804172545671463,0.24398401379585266,-0.4536919593811035,-9.952401161193848
1745726244.2063591,-0.007617156021296978,-0.0088930269703269,0.0216401144862175,0.2908633351325989,-0.026329195126891136,-9.851269721984863
1745726244.2312078,0.013907534070312977,-0.018838614225387573,0.02463863231241703,0.3121037483215332,-0.030610239133238792,-10.143902778625488
1745726244.2356029,0.00672148447483778,-0.005991662386804819,0.021608591079711914,0.21128931641578674,-0.165424183011055,-9.766858100891113
1745726244.2418907,-0.017871355637907982,-0.015687238425016403,0.021127905696630478,0.301861047744751,-0.4612273573875427,-9.53026008605957
1745726244.247559,-0.026674266904592514,-0.018758734688162804,0.021411065012216568,0.2517785429954529,-0.35661375522613525,-9.772956848144531
1745726244.2738924,-0.056337494403123856,-0.011488719843327999,0.022614840418100357,0.3558369278907776,-0.5236623287200928,-10.079145431518555
1745726244.2760236,-0.06865713000297546,-0.018726075068116188,0.021691402420401573,0.22376199066638947,-0.32776305079460144,-9.851856231689453
1745726244.2782938,-0.0768263190984726,-0.012844046577811241,0.025342106819152832,0.21365447342395782,-0.346941202878952,-9.516531944274902
1745726244.2794857,-0.08184424042701721,-0.02096596732735634,0.02631969377398491,0.330281138420105,-0.1241769939661026,-9.750592231750488
1745726244.282258,-0.07295817136764526,-0.013628858141601086,0.027581950649619102,0.1320621818304062,0.04660583660006523,-10.091196060180664
1745726244.3215656,-0.06597726047039032,-0.01383817195892334,0.02857193723320961,0.2614770531654358,-0.015826214104890823,-9.782037734985352
1745726244.3246083,-0.0466037392616272,-0.01671195589005947,0.02876945212483406,0.1183200478553772,0.3023720383644104,-9.491825103759766
1745726244.3274531,-0.045088816434144974,-0.013385551981627941,0.02766895294189453,0.1781792789697647,0.07456625998020172,-9.732704162597656
1745726244.3300042,-0.03302145376801491,-0.01874588243663311,0.026744335889816284,0.36371490359306335,0.19576895236968994,-10.017953872680664
1745726244.3633356,-0.021069061011075974,-0.011086216196417809,0.024254972115159035,0.2092302292585373,0.13273115456104279,-9.904458999633789
1745726244.365879,-0.044182248413562775,0.01484469324350357,0.041275378316640854,0.35069185495376587,-0.05010553076863289,-9.850666999816895
1745726244.3671522,-0.042838387191295624,0.007480589207261801,0.04255811125040054,0.23155078291893005,0.3813614845275879,-8.629109382629395
1745726244.3686304,-0.04070219397544861,0.002039513550698757,0.0426422543823719,0.2894761860370636,0.08697713911533356,-9.675145149230957
1745726244.4009645,-0.009409841150045395,0.00039559323340654373,0.04225868731737137,0.4014424681663513,0.3967801034450531,-10.718836784362793
1745726244.4035819,0.0026012782473117113,0.025331120938062668,0.0427556112408638,0.29364827275276184,0.14170196652412415,-9.833600997924805
1745726244.4051018,-0.0030527436174452305,0.008296005427837372,0.04387452080845833,0.2811543047428131,0.062008749693632126,-8.883728981018066
1745726244.4071498,-0.0037762350402772427,-0.0016092626610770822,0.04495701193809509,0.3374392092227936,-0.008927343413233757,-9.593571662902832
1745726244.4099386,0.0003601479984354228,0.01574842259287834,0.042221829295158386,0.615737795829773,-0.13163559138774872,-10.539433479309082
1745726244.463434,-0.014903721399605274,0.013857069425284863,0.04281582310795784,0.3466067314147949,-0.02519351802766323,-10.091629028320312
1745726244.4636028,-0.016991635784506798,0.011372885666787624,0.04303661361336708,0.3259328603744507,-0.24025225639343262,-9.063154220581055
1745726244.4639156,-0.026786427944898605,0.001997800078243017,0.04437660053372383,0.45010003447532654,-0.03186473995447159,-9.502256393432617
1745726244.464015,-0.029579967260360718,0.014383157715201378,0.046608272939920425,0.22421777248382568,-0.023046929389238358,-10.438228607177734
1745726244.489217,-0.030404765158891678,0.014217403717339039,0.04600423946976662,0.45165690779685974,-0.16247448325157166,-9.94926929473877
1745726244.4903045,-0.01865149848163128,0.00910191610455513,0.04674094542860985,0.21544012427330017,0.13611392676830292,-9.273508071899414
1745726244.4930947,-0.023244386538863182,0.013643583282828331,0.04804912209510803,0.2818918824195862,0.06237858533859253,-9.513699531555176
1745726244.4955115,-0.021068964153528214,0.0097854845225811,0.049005258828401566,0.42501959204673767,0.00015698373317718506,-10.235613822937012
1745726244.499285,0.0028175918851047754,0.016217853873968124,0.048712365329265594,0.31617021560668945,0.13229985535144806,-9.86821460723877
1745726244.5360613,-0.02656075358390808,0.017537374049425125,0.048735249787569046,0.45251932740211487,-0.10781817138195038,-9.418700218200684
1745726244.5493512,-0.007291138172149658,0.011661933735013008,0.050146400928497314,0.2895405888557434,0.03514276072382927,-9.65774154663086
1745726244.5505438,-0.021219102665781975,0.009324463084340096,0.05051171034574509,0.4172824025154114,-0.028903722763061523,-9.962271690368652
1745726244.5507038,-0.02352486178278923,0.014042344875633717,0.04976537078619003,0.4739803373813629,0.007764264941215515,-9.94898509979248
1745726244.5743158,-0.015036007389426231,0.023236898705363274,0.04909888282418251,0.15444274246692657,0.005233568139374256,-9.612896919250488
1745726244.5783305,-0.022073006257414818,0.01729787141084671,0.06706928461790085,0.28448089957237244,0.08768952637910843,-10.204712867736816
1745726244.5783927,-0.011315795592963696,0.02077215351164341,0.06826233118772507,0.46678128838539124,-0.0386718325316906,-9.517425537109375
1745726244.5792913,-0.02153591439127922,0.011945607140660286,0.07106111943721771,0.3003067970275879,0.18508175015449524,-9.345134735107422
1745726244.6200457,-0.025638068094849586,0.012061158195137978,0.07265694439411163,0.477164089679718,-0.1037842258810997,-9.934945106506348
1745726244.6231914,-0.012971112504601479,0.012047192081809044,0.07410933077335358,0.4448399543762207,0.113431915640831,-10.19322395324707
1745726244.6266115,-0.012946446426212788,0.02595025673508644,0.077316053211689,0.2344728261232376,0.0767107829451561,-9.563079833984375
1745726244.6325924,-0.02018272504210472,0.014978304505348206,0.08039040863513947,0.4715283513069153,-0.09795437008142471,-9.33810806274414
1745726244.662345,-0.00762471416965127,0.00846202950924635,0.08343897759914398,0.2959926724433899,0.12330444902181625,-9.833069801330566
1745726244.6640575,-0.013942116871476173,0.020298562943935394,0.08548742532730103,0.4722805917263031,-0.11335096508264542,-10.170571327209473
1745726244.6665041,-0.01546796690672636,0.017995934933423996,0.08608409017324448,0.32162725925445557,0.06730847805738449,-9.695185661315918
1745726244.6709993,-0.014338311739265919,0.017375705763697624,0.08816951513290405,0.20032992959022522,-0.12160048633813858,-9.317828178405762
1745726244.7033772,-0.031630534678697586,0.012974726036190987,0.08784801512956619,0.557944655418396,0.0011858254438266158,-9.712259292602539
1745726244.716626,-0.028836414217948914,0.019317692145705223,0.08931910246610641,0.2973555624485016,-0.008277924731373787,-10.249711990356445
1745726244.7168062,-0.04406047612428665,0.0017455320339649916,0.10974384844303131,0.3079212009906769,-0.017930028960108757,-9.691600799560547
1745726244.7169085,-0.05242579057812691,0.007245981600135565,0.10804357379674911,0.4354751706123352,-0.2258782684803009,-9.663297653198242
1745726244.7475543,-0.06783845275640488,-0.0022993471939116716,0.10838707536458969,0.48548752069473267,0.13612358272075653,-9.875711441040039
1745726244.7502596,-0.06344562768936157,0.009079387411475182,0.10579881817102432,0.15281029045581818,0.10183658450841904,-9.982956886291504
1745726244.7532587,-0.060149312019348145,0.0022246844600886106,0.10277341306209564,0.5102981328964233,0.25430408120155334,-9.518731117248535
1745726244.7537782,-0.05732163041830063,-0.0036887351889163256,0.10271526873111725,0.21766099333763123,0.3554192781448364,-9.758512496948242
1745726244.7577307,-0.036659806966781616,0.00665810564532876,0.10230006277561188,0.4144563674926758,0.288770854473114,-9.925355911254883
1745726244.812524,-0.029368862509727478,-0.0025742831639945507,0.10387130081653595,0.43290361762046814,0.4511982500553131,-9.825151443481445
1745726244.826088,-0.014075699262320995,0.004533887840807438,0.10153339058160782,0.2661053240299225,0.2493254840373993,-9.76266860961914
1745726244.8316329,-0.008075900375843048,-0.004283601883798838,0.10458425432443619,0.5732225179672241,0.28595638275146484,-9.662629127502441
1745726244.8317304,0.0009630341082811356,0.00039625895442441106,0.10288180410861969,0.26837924122810364,0.25925275683403015,-9.969170570373535
1745726244.8375752,-0.005908047314733267,0.0011176877887919545,0.10158805549144745,0.401483952999115,-0.03006432019174099,-9.85863971710205
1745726244.8376684,-0.010275714099407196,-0.008445448242127895,0.10260508954524994,0.4038788676261902,0.10422967374324799,-9.617330551147461
1745726244.838692,-0.01134510524570942,0.0031702392734587193,0.10101033747196198,0.39848965406417847,-0.05609067529439926,-9.806770324707031
1745726244.8403237,-0.037991974502801895,-0.007700592279434204,0.10097602754831314,0.40404969453811646,0.028361791744828224,-9.959722518920898
1745726244.841864,-0.024956317618489265,-0.005890431348234415,0.09957507997751236,0.2818221151828766,-0.08783519268035889,-9.830129623413086
1745726244.8798573,-0.042896002531051636,-0.0015099706361070275,0.1019647940993309,0.5372498631477356,0.0022840402089059353,-9.581511497497559
1745726244.8825972,-0.04791511595249176,-0.00783185102045536,0.10216043144464493,0.21564893424510956,0.11188912391662598,-9.878793716430664
1745726244.8858833,-0.036787211894989014,-0.005688653327524662,0.10293710231781006,0.44242581725120544,0.004432350397109985,-9.847288131713867
1745726244.888439,-0.03586956113576889,-0.0053716073743999004,0.10382332652807236,0.3727843165397644,0.301540732383728,-9.780305862426758
1745726244.9210565,-0.03485392779111862,-0.003560480894520879,0.10277815163135529,0.18738798797130585,0.2521129548549652,-9.756300926208496
1745726244.927789,-0.027548426762223244,-0.013908426277339458,0.10068307816982269,0.5353699922561646,0.23120374977588654,-9.697683334350586
1745726244.9292219,-0.013301877304911613,-0.006322638597339392,0.10069145262241364,0.5210626721382141,0.22710902988910675,-9.725062370300293
1745726244.9314113,-0.024940144270658493,-0.01234504021704197,0.1011025682091713,0.22637256979942322,0.1871005743741989,-9.875811576843262
1745726244.9630938,-0.003407950047403574,-0.006210308521986008,0.10476237535476685,0.04917126148939133,-0.1251949965953827,-9.75423526763916
1745726244.9650853,-0.03284871578216553,0.0001502506493125111,0.11365542560815811,0.7256180047988892,-0.20666232705116272,-9.342138290405273
1745726244.96805,-0.02938891388475895,-0.004424956161528826,0.12390643358230591,0.4995514750480652,-0.22492122650146484,-10.060322761535645
1745726244.9694922,-0.06488599628210068,-0.00017089191533159465,0.13032472133636475,0.7077421545982361,-0.32702451944351196,-10.093748092651367
1745726244.971422,-0.05730980634689331,0.0021133332047611475,0.13655097782611847,0.9465757608413696,0.039552461355924606,-9.48757553100586
1745726245.0136642,-0.10125114768743515,-0.005868685897439718,0.1418077051639557,1.0162279605865479,0.009854650124907494,-9.707235336303711
1745726245.0137506,-0.08634614944458008,-0.018715891987085342,0.14268270134925842,0.8432273864746094,0.3714846968650818,-10.36957836151123
1745726245.0138073,-0.08181831985712051,-0.0005982113070785999,0.14593955874443054,0.5617706179618835,0.6209944486618042,-9.97848129272461
1745726245.0138552,-0.07130599021911621,-0.004145365208387375,0.14827296137809753,0.4492051601409912,0.5717525482177734,-9.192916870117188
1745726245.0490663,-0.035576529800891876,-0.01015005074441433,0.15394282341003418,0.41312018036842346,1.0531728267669678,-9.362622261047363
1745726245.0504744,-0.0063318004831671715,3.247447239118628e-05,0.15436020493507385,0.6015869379043579,0.7528483271598816,-10.312952041625977
1745726245.053931,0.05114725977182388,0.002201457042247057,0.15914419293403625,0.3418436050415039,1.0241029262542725,-10.116239547729492
1745726245.0578012,-0.05212629958987236,-0.004324730020016432,0.24064740538597107,0.20552173256874084,0.38447171449661255,-9.881196975708008
1745726245.0924466,-0.03131072595715523,0.0002619285078253597,0.23365497589111328,0.3461952209472656,0.8905147314071655,-9.333723068237305
1745726245.0943098,-0.012214381247758865,-0.0029652260709553957,0.22838199138641357,-0.1639406979084015,0.9634886980056763,-9.854837417602539
1745726245.0961108,0.01098184660077095,-0.009204650297760963,0.21923784911632538,-0.24884025752544403,0.5485360026359558,-10.05683708190918
1745726245.097377,0.06362248212099075,0.0013798963045701385,0.22005195915699005,-0.23260383307933807,0.31243863701820374,-9.391945838928223
1745726245.099187,0.03246922045946121,0.012869248166680336,0.21807201206684113,-0.14426189661026,0.05874313786625862,-9.174981117248535
1745726245.1376672,0.029619252309203148,-0.016251081600785255,0.2192569524049759,0.2677629888057709,-0.6390897035598755,-9.901116371154785
1745726245.1400115,0.02879830077290535,-0.0075380876660346985,0.2246379405260086,0.48174190521240234,-0.4117579460144043,-10.281087875366211
1745726245.1445322,-0.04923460632562637,0.007320918142795563,0.2237849235534668,0.4020892083644867,-0.8196713328361511,-10.004338264465332
1745726245.1466076,-0.08363024145364761,-0.02122906967997551,0.22233185172080994,0.23608236014842987,-0.7061130404472351,-9.213170051574707
1745726245.179611,-0.12350331246852875,-0.01787787303328514,0.2173827886581421,0.5413104891777039,-0.4056774079799652,-9.469870567321777
1745726245.1830962,-0.18300127983093262,-0.02123440057039261,0.209494948387146,0.28357812762260437,0.17127597332000732,-10.461318969726562
1745726245.1845095,-0.1697782576084137,-0.020507391542196274,0.20245346426963806,0.023509828373789787,0.31806498765945435,-10.024006843566895
1745726245.1915798,-0.14202791452407837,-0.025376256555318832,0.1983821988105774,0.3208622336387634,0.8944491147994995,-8.972414016723633
1745726245.219869,-0.12615828216075897,-0.03349241241812706,0.19480252265930176,0.09015269577503204,1.3059741258621216,-9.722829818725586
1745726245.2233,-0.06509407609701157,-0.031964391469955444,0.194146990776062,0.29004913568496704,0.9197126626968384,-10.58267593383789
1745726245.2268484,0.019828330725431442,-0.028257597237825394,0.1964537799358368,0.25907281041145325,1.3090709447860718,-9.771058082580566
1745726245.2304578,0.04048857092857361,-0.02862427569925785,0.19706325232982635,0.08986014872789383,1.0295422077178955,-9.122730255126953
1745726245.2353334,0.06740729510784149,-0.048347488045692444,0.19843687117099762,0.3170556128025055,0.44926461577415466,-9.762941360473633
1745726245.2678456,0.10910318046808243,-0.037252090871334076,0.19461922347545624,0.14280205965042114,0.524755597114563,-10.380412101745605
1745726245.2700675,0.05573483556509018,-0.03046640194952488,0.18964874744415283,0.14658136665821075,-0.029755007475614548,-9.87151050567627
1745726245.271494,-0.020180048421025276,-0.05390726774930954,0.174509659409523,0.5731063485145569,1.151296854019165,-10.430523872375488
1745726245.2737582,0.027401242405176163,-0.040942829102277756,0.17472922801971436,-0.1549391746520996,1.1220144033432007,-9.749385833740234
1745726245.3068926,0.05401643365621567,-0.04601164907217026,0.1759229600429535,-0.18091318011283875,0.493770033121109,-9.0585355758667
1745726245.3089426,0.07422928512096405,-0.03900707885622978,0.1736326664686203,-0.030076157301664352,0.6165899634361267,-9.318807601928711
1745726245.3102849,0.03187662735581398,-0.03386343643069267,0.16244766116142273,0.6842061281204224,0.3275626301765442,-10.183252334594727
1745726245.311453,0.04409661889076233,-0.04321791231632233,0.14595501124858856,0.4653934836387634,0.7420411109924316,-10.318954467773438
1745726245.352795,0.00011695325520122424,-0.03775380179286003,0.138863667845726,0.6013342142105103,-0.28990668058395386,-9.488753318786621
1745726245.3577886,-0.012744011357426643,-0.03910449892282486,0.14372393488883972,1.1271952390670776,-0.14781546592712402,-9.35039234161377
1745726245.3616295,-0.06252122670412064,-0.048583023250103,0.1508929282426834,0.5705171823501587,-0.48582157492637634,-10.560093879699707
1745726245.365201,-0.03913136571645737,-0.04226008057594299,0.1641586422920227,0.4347727298736572,-0.266901433467865,-10.412898063659668
1745726245.365898,-0.031128844246268272,-0.028668588027358055,0.17386527359485626,0.06907311826944351,0.7996196746826172,-9.107026100158691
1745726245.3929853,-0.010528814978897572,-0.03909223526716232,0.171823650598526,0.0982624739408493,0.7243446111679077,-9.106867790222168
1745726245.3970368,0.03958848491311073,-0.052974898368120193,0.1644696444272995,0.2121264636516571,1.507581353187561,-10.29257869720459
1745726245.4070356,0.07620672881603241,-0.03398247808218002,0.15158900618553162,-0.008928006514906883,0.975274384021759,-10.68037223815918
1745726245.4349303,0.02194301225244999,0.012098738923668861,0.13401511311531067,0.3995587229728699,0.09158037602901459,-9.903040885925293
1745726245.4390416,-0.006759117357432842,-0.006805987562984228,0.13495416939258575,0.776088535785675,0.15022459626197815,-9.52243423461914
1745726245.442794,0.02130167745053768,-0.003020216478034854,0.13095857203006744,0.08308298885822296,0.5926529169082642,-10.079461097717285
1745726245.4462082,0.04792732000350952,0.020096827298402786,0.1210121363401413,0.7813350558280945,0.6229878067970276,-9.529060363769531
1745726245.449221,0.08245363086462021,-0.0032389946281909943,0.11450032889842987,0.6079168915748596,1.0085750818252563,-9.820215225219727
1745726245.4793515,0.10352723300457001,-0.0013666950399056077,0.10562636703252792,0.09304822981357574,0.4624536633491516,-10.319875717163086
1745726245.4819915,0.1507321298122406,0.01931780017912388,0.10453148186206818,0.15119096636772156,0.17444004118442535,-9.567472457885742
1745726245.484689,0.10380838811397552,0.02393566444516182,0.09951576590538025,-0.06712774932384491,-0.18449971079826355,-9.128931999206543
1745726245.4865465,0.0994807705283165,0.01241517998278141,0.09755589067935944,0.611002504825592,-0.6855150461196899,-9.665306091308594
1745726245.5217204,0.0648900717496872,0.013872412033379078,0.08725623786449432,0.5315461158752441,0.14194396138191223,-10.421987533569336
1745726245.5236254,0.023377489298582077,0.03260422497987747,0.07355057448148727,0.5125777125358582,-0.5418450832366943,-10.007988929748535
1745726245.524896,0.008498718030750751,0.023112758994102478,0.0679137259721756,0.7546719908714294,-0.05211201310157776,-8.899614334106445
1745726245.5277693,-0.03604782372713089,0.013905813917517662,0.06325968354940414,0.6644949913024902,-0.23161861300468445,-9.79869556427002
1745726245.5291033,-0.032286204397678375,0.017001599073410034,0.05984651297330856,0.6883182525634766,-0.02213902398943901,-10.74195671081543
1745726245.569862,-0.015046673826873302,0.031158823519945145,0.06091193109750748,0.013851350173354149,0.5682278871536255,-9.807781219482422
1745726245.5699272,0.02423383668065071,0.03801463916897774,0.05712392181158066,0.26440778374671936,0.8545700907707214,-8.54709529876709
1745726245.571131,0.05178698152303696,0.01245127897709608,0.050564371049404144,0.3339155912399292,1.3388643264770508,-9.5925874710083
1745726245.5732605,0.1242472305893898,0.029223520308732986,0.03902215510606766,0.281084269285202,1.1007506847381592,-10.95570182800293
1745726245.6087656,0.1665596067905426,0.04076116904616356,0.030210543423891068,0.4615964889526367,1.0388598442077637,-9.904881477355957
1745726245.6125903,0.17100903391838074,0.02950851060450077,0.02352038584649563,0.12035174667835236,0.3010638654232025,-8.83038330078125
1745726245.6164145,0.17063647508621216,0.028744960203766823,0.023315638303756714,0.6684688329696655,-0.23514294624328613,-9.529462814331055
1745726245.621214,0.07435376942157745,0.03243763744831085,-0.01016774121671915,0.29719576239585876,0.28162091970443726,-9.44188117980957
1745726245.6538417,0.11119718849658966,0.04331139475107193,-0.00877295434474945,0.36540061235427856,0.3131304681301117,-10.397210121154785
1745726245.6569102,0.12317077070474625,0.043389469385147095,-0.013211165554821491,0.6595755815505981,0.22511199116706848,-9.967604637145996
1745726245.6610126,0.12947514653205872,0.036610860377550125,-0.017674952745437622,0.48718714714050293,0.3842221200466156,-9.295757293701172
1745726245.664337,0.12865059077739716,0.034963689744472504,-0.023893041536211967,0.6716176271438599,-0.03264743834733963,-9.622995376586914
1745726245.6951687,0.12425027042627335,0.037043578922748566,-0.02972002886235714,0.5972526669502258,0.1227213591337204,-10.129098892211914
1745726245.6952288,0.11321128904819489,0.043516360223293304,-0.03554662689566612,0.5572856068611145,-0.18510691821575165,-9.858381271362305
1745726245.696338,0.09889315068721771,0.03176679089665413,-0.040069643408060074,0.590235710144043,0.060330916196107864,-9.369489669799805
1745726245.6963868,0.09721629321575165,0.03148975223302841,-0.04303375259041786,0.3748079240322113,0.17977282404899597,-9.738446235656738
1745726245.7359464,0.11331764608621597,0.03881096467375755,-0.04996154084801674,0.5073866248130798,0.20706912875175476,-9.980273246765137
1745726245.7382333,0.12173813581466675,0.02846919372677803,-0.052769552916288376,0.439969927072525,0.3695840537548065,-9.840065002441406
1745726245.7407959,0.14517144858837128,0.03778035566210747,-0.055610932409763336,0.45018038153648376,0.0682280957698822,-9.581789016723633
1745726245.7415512,0.15374311804771423,0.027676861733198166,-0.05358504503965378,0.31365853548049927,0.03931546211242676,-9.654719352722168
1745726245.745707,0.1785990297794342,0.0367077961564064,-0.0485471710562706,0.05135682225227356,-0.09539273381233215,-9.74502182006836
1745726245.7807455,0.14796629548072815,0.029142534360289574,-0.049534715712070465,0.46354350447654724,-0.42398133873939514,-9.629667282104492
1745726245.7821171,0.08004064857959747,-0.02664651907980442,-0.07041323184967041,0.35786494612693787,0.0666622519493103,-9.380074501037598
1745726245.7837396,0.0939825028181076,-0.03825055807828903,-0.0724295824766159,0.3089589774608612,0.09285740554332733,-9.908924102783203
1745726245.7859635,0.1092444658279419,-0.021596455946564674,-0.07061608135700226,0.24834243953227997,-0.20156875252723694,-10.130038261413574
1745726245.8290534,0.10928883403539658,-0.02327624335885048,-0.06541488319635391,0.39281052350997925,-0.40020543336868286,-9.599874496459961
1745726245.8291767,0.10236470401287079,-0.029255473986268044,-0.06267804652452469,0.26280680298805237,-0.31363120675086975,-9.52433967590332
1745726245.8292274,0.08667899668216705,-0.0305013544857502,-0.063469797372818,0.5797579884529114,-0.6113583445549011,-9.981886863708496
1745726245.8329396,0.08537770807743073,-0.02708052657544613,-0.06288743019104004,0.44744977355003357,-0.1445557177066803,-10.076272010803223
1745726245.8368113,0.05691111832857132,-0.02358514629304409,-0.06410463154315948,0.26511698961257935,-0.5549196004867554,-9.71622371673584
1745726245.8692605,0.05292782187461853,-0.034184522926807404,-0.06362813711166382,0.24960723519325256,-0.4389314651489258,-9.464666366577148
1745726245.8730726,0.02646762505173683,-0.024339934810996056,-0.05708044022321701,0.36899322271347046,-0.6046494245529175,-9.698893547058105
1745726245.8751385,0.007864315062761307,-0.031209424138069153,-0.05070364475250244,0.08769015222787857,-0.45462340116500854,-10.314589500427246
1745726245.877987,0.013414333574473858,-0.027253303676843643,-0.047703422605991364,0.15434294939041138,-0.23835530877113342,-9.701642990112305
1745726245.9090557,0.021204594522714615,-0.018833503127098083,-0.041704513132572174,0.4382200837135315,-0.011188814416527748,-9.306938171386719
1745726245.9111373,0.017651744186878204,-0.03827909380197525,-0.03977350518107414,0.5689354538917542,-0.023013323545455933,-10.049847602844238
1745726245.9129055,0.05677521228790283,-0.031831175088882446,-0.03704466670751572,0.3902139663696289,0.2264259159564972,-10.45426082611084
1745726245.9161828,0.04381726682186127,-0.032218046486377716,-0.033589836210012436,0.38347238302230835,-0.12631389498710632,-9.828049659729004
1745726245.9173203,0.07066523283720016,-0.026827221736311913,-0.02727838233113289,0.113251231610775,-0.19104084372520447,-9.164875030517578
1745726245.9523046,0.054638464003801346,-0.034431442618370056,-0.02184813842177391,0.426048219203949,-0.04942821338772774,-9.68842887878418
1745726245.954664,0.05556466430425644,-0.03946683555841446,-0.023729747161269188,0.30266454815864563,-0.1979300081729889,-10.583221435546875
1745726245.9572566,0.0702243372797966,-0.025731105357408524,-0.02723832055926323,0.17775346338748932,0.018902147188782692,-9.937944412231445
1745726245.959911,0.03821759670972824,-0.02822502888739109,-0.024044331163167953,0.24333500862121582,-0.5720207691192627,-9.19304370880127
1745726245.995215,0.05407209321856499,-0.026176994666457176,-0.015096756629645824,0.4435880184173584,-0.5552583932876587,-9.352631568908691
1745726245.998876,-0.04476167634129524,-0.002483429852873087,0.026903796941041946,0.454326331615448,0.26679444313049316,-10.217615127563477
1745726246.0009334,-0.02406298741698265,-0.003576637478545308,0.02803788147866726,0.1306578367948532,0.24771980941295624,-8.99443244934082
1745726246.0024233,-0.011003002524375916,-0.016124801710247993,0.03094599023461342,0.5726321935653687,0.162277489900589,-9.131474494934082
1745726246.0411904,0.0029632761143147945,-0.00968335010111332,0.03911789506673813,0.4024886190891266,0.20295338332653046,-10.733219146728516
1745726246.044396,0.03571631759405136,0.006586013827472925,0.04346320778131485,0.3946688771247864,0.01508122868835926,-10.307567596435547
1745726246.047363,0.04258280247449875,0.007657810114324093,0.05320775508880615,0.593103289604187,-0.2865423858165741,-8.922891616821289
1745726246.0504901,0.06872709095478058,0.0026208809576928616,0.06027866527438164,0.6195019483566284,-0.014285063371062279,-9.34594440460205
1745726246.0811615,0.02144770324230194,-0.0032005489338189363,0.06698048859834671,0.6503161191940308,-0.7847834825515747,-10.873041152954102
1745726246.083935,0.04430984705686569,0.010527756996452808,0.07476717978715897,0.4488878846168518,-0.734260082244873,-10.309776306152344
1745726246.084599,-0.01690066233277321,0.02769060805439949,0.07909176498651505,0.3796771168708801,-0.8385689854621887,-8.739015579223633
1745726246.087217,-0.06797531992197037,-0.003567097242921591,0.08280940353870392,0.47242870926856995,-0.8801006078720093,-9.350415229797363
1745726246.0885985,-0.07489818334579468,0.009888967499136925,0.08492617309093475,0.577294647693634,-0.5161037445068359,-10.615341186523438
1745726246.1285603,-0.11684595048427582,0.031495701521635056,0.08388237655162811,0.5627465844154358,-0.5056132674217224,-10.410943031311035
1745726246.1348026,-0.1054123193025589,0.02082100510597229,0.09089372307062149,0.3764512538909912,-0.17425981163978577,-9.010763168334961
1745726246.1348608,0.00959788542240858,-0.03162679821252823,0.12191835790872574,0.05811496824026108,-0.1689990758895874,-9.308531761169434
1745726246.1386266,0.01545762736350298,-0.006906428840011358,0.11395911872386932,-0.04541485756635666,-0.1751105785369873,-10.409780502319336
1745726246.1686146,-0.0630403608083725,-0.01273829210549593,0.10094301402568817,0.3827877640724182,-0.4356834888458252,-9.981287956237793
1745726246.170773,-0.09089621156454086,-0.021959248930215836,0.08898011595010757,-0.21126993000507355,-0.5445874929428101,-9.461223602294922
1745726246.1735876,-0.15489168465137482,-0.03479684889316559,0.08101997524499893,0.45846590399742126,-0.8411920666694641,-9.471349716186523
1745726246.177555,-0.16366033256053925,-0.00954127125442028,0.08429156243801117,0.2864244878292084,-0.3300555944442749,-10.156678199768066
1745726246.1811557,-0.1799687296152115,-0.016852183267474174,0.0877385213971138,0.6114820241928101,-0.6896494626998901,-9.791951179504395
1745726246.2151306,-0.1456889659166336,-0.029471421614289284,0.09736764430999756,0.7650960087776184,0.12999621033668518,-9.41535758972168
1745726246.217897,-0.13587835431098938,-0.032903604209423065,0.1060766950249672,0.19719496369361877,0.2355179339647293,-9.993690490722656
1745726246.2206144,-0.06901679933071136,-0.010519260540604591,0.11219082027673721,-0.3467633128166199,0.4684486389160156,-10.186254501342773
1745726246.232334,-0.05138549953699112,-0.00827064085751772,0.1029454842209816,0.025872061029076576,0.9379388689994812,-8.863951683044434
1745726246.2545662,-0.035725776106119156,-0.027188744395971298,0.08916300535202026,0.27938809990882874,0.5633684992790222,-9.411177635192871
1745726246.2585409,-0.022917669266462326,-0.025239909067749977,0.06958647817373276,0.35833603143692017,1.025229573249817,-10.484908103942871
1745726246.2634926,-0.016925789415836334,-0.005307881627231836,0.05481191724538803,0.33641666173934937,0.08959140628576279,-10.11214542388916
1745726246.2658057,-0.03783868998289108,-0.021286550909280777,0.051987893879413605,0.8749749064445496,-0.3806270956993103,-8.986797332763672
1745726246.2684777,-0.07842989265918732,-0.029552698135375977,0.05951332300901413,0.9132494926452637,-0.8931872248649597,-9.64656925201416
1745726246.2964692,-0.0840403288602829,-0.02401590719819069,0.06728477030992508,0.7430251836776733,-0.5038052797317505,-10.748099327087402
1745726246.2981672,-0.09477616101503372,-0.015389928594231606,0.07440173625946045,0.2814468443393707,-0.10492287576198578,-10.009690284729004
1745726246.3014135,-0.0574214942753315,-0.019885851070284843,0.07072238624095917,0.24076732993125916,0.36907628178596497,-8.767544746398926
1745726246.3044865,-0.06231462210416794,-0.03749817982316017,0.0650123581290245,0.21043363213539124,0.8753206133842468,-9.638827323913574
1745726246.3410425,-0.010600704699754715,-0.02854922041296959,0.0507599301636219,-0.2633596658706665,0.6942524909973145,-10.822256088256836
1745726246.3427744,0.005888846702873707,-0.013767790980637074,0.04261254519224167,-0.09746231138706207,0.3002454340457916,-9.671285629272461
1745726246.3465083,-0.09271108359098434,-0.03441208600997925,0.04545023664832115,0.5452884435653687,0.33802732825279236,-9.871761322021484
1745726246.34895,-0.09174705296754837,-0.01870347000658512,0.038428064435720444,0.3537624776363373,0.5303411483764648,-10.678560256958008
1745726246.384325,-0.06612364947795868,-0.016256505623459816,0.030855679884552956,-0.07624953985214233,0.6934503316879272,-9.704092979431152
1745726246.389035,-0.02048560418188572,-0.018905479460954666,0.025150116533041,-0.04001830890774727,0.8156558275222778,-8.667038917541504
1745726246.3918126,-0.01393709797412157,-0.025500018149614334,0.02021777257323265,0.2539517283439636,0.6874862313270569,-9.736802101135254
1745726246.3938982,0.04683944582939148,-0.006203728262335062,0.019796982407569885,0.2296026051044464,0.47882652282714844,-10.680293083190918
1745726246.428957,0.05618485063314438,-0.005022469907999039,0.02163868211209774,0.6912952661514282,0.14258350431919098,-9.750755310058594
1745726246.4326735,0.06094517558813095,-0.01658034697175026,0.024553434923291206,0.41989749670028687,-0.11209169775247574,-9.16010856628418
1745726246.435094,0.04448457434773445,-0.011516263708472252,0.024483708664774895,0.5671377182006836,-0.3685261607170105,-9.870451927185059
1745726246.4365842,0.0253654383122921,-0.013335669413208961,0.02616741694509983,0.5040649771690369,-0.41267266869544983,-10.45779037475586
1745726246.437816,0.0003770667244680226,-0.0021192841231822968,0.021134119480848312,0.18894746899604797,-0.2678529620170593,-9.767404556274414
1745726246.4687626,-0.04375508800148964,-0.013051154091954231,0.013766621239483356,0.31744760274887085,-0.3137454390525818,-9.205606460571289
1745726246.4764094,-0.04212656989693642,-0.016621585935354233,0.008314484730362892,0.19303098320960999,0.19667525589466095,-9.73222827911377
1745726246.476472,-0.0592077374458313,-0.008217067457735538,3.0792107281740755e-05,0.371540904045105,0.02277296595275402,-10.319681167602539
1745726246.4765081,0.11878492683172226,0.033382583409547806,-0.078622967004776,0.577540397644043,-0.36854472756385803,-10.34610652923584
1745726246.5108836,0.09305291622877121,0.03571592643857002,-0.0839824452996254,0.47959357500076294,-0.4666493535041809,-8.95214557647705
1745726246.5141456,0.047481708228588104,0.019569292664527893,-0.08267375081777573,0.8074524998664856,-0.7211681008338928,-9.227612495422363
1745726246.518232,0.05098167061805725,0.028537273406982422,-0.08647432178258896,0.5916248559951782,-0.2298305481672287,-10.626922607421875
1745726246.5222228,0.0263612512499094,0.03740764781832695,-0.09015831351280212,0.5164176821708679,-0.23629164695739746,-10.354736328125
1745726246.523738,0.05115538090467453,0.03117556869983673,-0.09534486383199692,0.2582091987133026,0.36363616585731506,-8.988473892211914
1745726246.5562232,0.059711992740631104,0.02864128351211548,-0.10022993385791779,0.34745413064956665,0.2770856022834778,-9.134306907653809
1745726246.5574338,0.08874057233333588,0.030015703290700912,-0.10579526424407959,0.44818606972694397,0.5967483520507812,-10.504321098327637
1745726246.559936,0.12657645344734192,0.03793751448392868,-0.11011550575494766,0.34121933579444885,0.3512365520000458,-10.34864616394043
1745726246.5626783,0.14467382431030273,0.038042426109313965,-0.11221889406442642,0.5054715275764465,0.10587886720895767,-9.101415634155273
1745726246.5988753,0.14562873542308807,0.02799920365214348,-0.11432071775197983,0.4573480486869812,0.032406825572252274,-9.251340866088867
1745726246.6017206,0.14778533577919006,0.033717624843120575,-0.11628558486700058,0.826872706413269,-0.39364761114120483,-10.329399108886719
1745726246.6075006,0.13505405187606812,0.035776663571596146,-0.11983045190572739,0.6510539650917053,-0.07007821649312973,-10.360867500305176
1745726246.6113226,0.12354820966720581,0.04055485874414444,-0.12654168903827667,0.6050430536270142,-0.4574381709098816,-9.290316581726074
1745726246.6416016,0.11149962246417999,0.028696749359369278,-0.13029082119464874,0.6700023412704468,-0.21216487884521484,-9.17264461517334
1745726246.64448,0.09603418409824371,0.03344941511750221,-0.13812458515167236,0.5040656328201294,-0.2820846140384674,-10.222646713256836
1745726246.6459124,0.09313952922821045,0.04141158610582352,-0.13948208093643188,0.6555426716804504,-0.2637585997581482,-10.269571304321289
1745726246.6524885,0.10048799216747284,0.040811385959386826,-0.14291994273662567,0.22414083778858185,-0.05489037558436394,-9.361040115356445
1745726246.6846843,0.11106379330158234,0.04024409502744675,-0.14506316184997559,0.36967048048973083,-0.14571118354797363,-9.183286666870117
1745726246.686403,0.11316747963428497,0.037290528416633606,-0.14578549563884735,0.6576505899429321,0.05267656594514847,-10.029729843139648
1745726246.6865172,0.1402815282344818,0.04293835908174515,-0.15040722489356995,0.48721036314964294,-0.06200650334358215,-10.343744277954102
1745726246.701315,0.1147172674536705,0.03400471433997154,-0.1791703701019287,0.6035966277122498,-0.16624005138874054,-10.150354385375977
1745726246.7292428,0.12688477337360382,0.026900257915258408,-0.18073250353336334,0.46754828095436096,-0.03368557617068291,-9.7121000289917
1745726246.729367,0.14377060532569885,0.0387372225522995,-0.18116886913776398,0.44369155168533325,-0.17849627137184143,-9.344529151916504
1745726246.7318623,0.13731549680233002,0.024860519915819168,-0.18473710119724274,0.6638115048408508,-0.19973912835121155,-9.65274429321289
1745726246.7332442,0.15981754660606384,0.03027108684182167,-0.18588146567344666,0.5467019081115723,-0.10408250987529755,-10.076823234558105
1745726246.7353485,0.14448481798171997,0.035263948142528534,-0.19257238507270813,0.8196636438369751,-0.3851810097694397,-9.850482940673828
1745726246.770849,0.1498292237520218,0.026336148381233215,-0.19558849930763245,0.5983518362045288,-0.36476820707321167,-9.586141586303711
1745726246.7753086,0.13336138427257538,0.0314156711101532,-0.19905562698841095,0.7385479211807251,-0.5570041537284851,-9.630270004272461
1745726246.7792227,0.10797293484210968,0.024403776973485947,-0.20277579128742218,0.7375931739807129,-0.6085020303726196,-9.979951858520508
1745726246.7822886,0.1199837177991867,0.03371581435203552,-0.20419681072235107,0.5169034600257874,-0.5403765439987183,-9.785888671875
1745726246.8140917,0.0814971998333931,0.02861224114894867,-0.20871496200561523,0.7618221044540405,-0.3626847565174103,-9.357175827026367
1745726246.8262677,0.10173700004816055,0.02652747929096222,-0.21108202636241913,0.5675334334373474,-0.1545206606388092,-9.698748588562012
1745726246.8308198,0.10516772419214249,0.02457543835043907,-0.21746475994586945,0.638850212097168,-0.15806469321250916,-10.039712905883789
1745726246.834087,0.1227971538901329,0.025117632001638412,-0.2194550484418869,0.6643134951591492,-0.09472428262233734,-9.952154159545898
1745726246.8635328,0.10590188205242157,-0.010073496028780937,-0.2664737105369568,0.25662726163864136,-0.6801451444625854,-9.647010803222656
1745726246.8637197,0.0707818791270256,-0.0253737960010767,-0.25856971740722656,0.6042975783348083,-1.0346288681030273,-9.560735702514648
1745726246.8638206,0.07258746027946472,-0.02688945271074772,-0.25298845767974854,-0.18701520562171936,-0.6538951992988586,-10.046575546264648
1745726246.8638926,0.05148240923881531,-0.020937124267220497,-0.25496727228164673,0.05762115865945816,-0.7715276479721069,-9.724163055419922
1745726246.8974442,0.056597840040922165,-0.025659063830971718,-0.25529223680496216,0.07083487510681152,-0.19658386707305908,-9.413445472717285
1745726246.901527,0.04407870024442673,-0.03211113065481186,-0.2601187229156494,0.3311949372291565,-0.5378236770629883,-9.742284774780273
1745726246.9115825,0.04985654354095459,-0.047959260642528534,-0.25920599699020386,0.6587686538696289,-0.359453022480011,-10.182960510253906
1745726246.9143066,0.05777277797460556,-0.03761240839958191,-0.2504853308200836,0.16001342236995697,-0.6942598819732666,-10.107275009155273
1745726246.9177816,0.053501833230257034,-0.03974653780460358,-0.24154038727283478,0.45110899209976196,-0.9940716028213501,-9.231761932373047
1745726246.943685,0.05353998392820358,-0.047541603446006775,-0.23022887110710144,0.27199679613113403,-0.6019160151481628,-9.439432144165039
1745726246.9453847,0.05690499022603035,-0.04782310873270035,-0.22712862491607666,0.3066045045852661,-0.6134623885154724,-10.222982406616211
1745726246.946736,0.062316976487636566,-0.05009160190820694,-0.23051409423351288,0.28269410133361816,-0.016658935695886612,-10.000048637390137
1745726246.9560466,0.06820758432149887,-0.04690305143594742,-0.23405134677886963,-0.0035520107485353947,-0.38696062564849854,-9.39007568359375
1745726246.98465,0.06352374702692032,-0.06288880109786987,-0.23948851227760315,0.4168526530265808,-0.4432106614112854,-9.366561889648438
1745726246.9877791,0.04743095487356186,-0.060616541653871536,-0.23895271122455597,0.08637276291847229,-0.7923511266708374,-10.32241153717041
1745726246.9889853,0.047467902302742004,-0.04772941768169403,-0.23277023434638977,0.3390045762062073,-1.0784523487091064,-10.092569351196289
1745726246.99071,0.017366141080856323,-0.057301897555589676,-0.22424885630607605,0.34800171852111816,-0.9018118977546692,-9.229494094848633
1745726246.9960673,0.009944247081875801,-0.05886555835604668,-0.21662434935569763,0.3167775273323059,-1.0510210990905762,-9.424833297729492
1745726247.029452,0.005957427434623241,-0.06300635635852814,-0.21453142166137695,0.5948987603187561,-0.5031220316886902,-10.093230247497559
1745726247.0360355,0.015269729308784008,-0.05426475405693054,-0.21433377265930176,0.10906572639942169,-0.4354550242424011,-10.270795822143555
1745726247.036161,0.014716317877173424,-0.05514087527990341,-0.21764671802520752,0.2501645088195801,-0.49711012840270996,-9.476059913635254
1745726247.0362377,0.021556837484240532,-0.06481003761291504,-0.2103744000196457,-0.06573492288589478,-0.5311306118965149,-9.635377883911133
1745726247.0713701,0.027690980583429337,-0.05293203517794609,-0.20713302493095398,0.07245129346847534,-0.7204447984695435,-8.960761070251465
1745726247.0738738,0.007891346700489521,-0.07746879011392593,-0.20553748309612274,0.38955849409103394,-0.5036300420761108,-9.746838569641113
1745726247.0796664,0.01428135670721531,-0.057996559888124466,-0.2049422264099121,0.024938613176345825,-0.7259095311164856,-10.608311653137207
1745726247.081374,0.019501004368066788,-0.049238868057727814,-0.20450088381767273,0.4311203062534332,-0.6595326662063599,-9.496036529541016
1745726247.1238463,0.0011348847765475512,-0.06210729479789734,-0.20103195309638977,0.3211227357387543,-0.6045206189155579,-9.226007461547852
1745726247.123977,0.014440407045185566,-0.06497683376073837,-0.2002088725566864,0.4158632159233093,-0.6812527775764465,-10.182493209838867
1745726247.1240766,-0.012147882953286171,-0.05968628078699112,-0.19443102180957794,0.4263889193534851,-0.9161180257797241,-10.525876998901367
1745726247.1255045,0.002284860238432884,-0.043828316032886505,-0.19168484210968018,-0.061155516654253006,-0.8076508641242981,-9.411026000976562
1745726247.158925,-0.028183111920952797,-0.055017173290252686,-0.18793907761573792,0.31369829177856445,-0.4891146719455719,-8.8933744430542
1745726247.1621559,-0.014812949113547802,-0.06302724033594131,-0.19043438136577606,0.35554438829421997,-0.3341906666755676,-10.192754745483398
1745726247.1622486,-0.005054137669503689,-0.04711056500673294,-0.19322292506694794,0.2250966578722,-0.3113561272621155,-10.63929271697998
1745726247.1663432,-0.004697615746408701,-0.04764791578054428,-0.19367441534996033,0.03813110664486885,-0.4303916096687317,-9.531587600708008
1745726247.1686783,0.0072987996973097324,-0.047201961278915405,-0.18531771004199982,0.4101179540157318,-0.7803276777267456,-8.905569076538086
1745726247.2050033,-0.02266276255249977,-0.06012582778930664,-0.1735876053571701,0.19746699929237366,-0.8021820783615112,-10.366548538208008
1745726247.20733,-0.078801229596138,0.002634816337376833,-0.05094100162386894,0.206857830286026,-0.6898902654647827,-9.904878616333008
1745726247.209701,-0.10542632639408112,-0.0001455888123018667,-0.049074556678533554,0.3328839838504791,-0.6652847528457642,-9.886270523071289
1745726247.2105434,-0.09625468403100967,-0.0009246908011846244,-0.04455384239554405,0.25029420852661133,-0.40285149216651917,-9.606700897216797
1745726247.2450285,-0.09234259277582169,0.005802669562399387,-0.04306643456220627,0.4112825393676758,-0.4305640161037445,-9.788505554199219
1745726247.249117,-0.09216899424791336,0.0006286058342084289,-0.038471803069114685,0.10635431855916977,-0.27437853813171387,-10.095635414123535
1745726247.2518866,-0.08290909230709076,0.010798404924571514,-0.03560580313205719,0.08926540613174438,-0.5519786477088928,-9.73825454711914
1745726247.2554407,-0.08373447507619858,0.011084359139204025,-0.03005141019821167,0.27969712018966675,-0.35349202156066895,-9.446359634399414
1745726247.2565415,-0.07989947497844696,0.013455028645694256,-0.027258163318037987,0.0510016605257988,-0.32145148515701294,-9.83535385131836
1745726247.2867088,-0.09374083578586578,0.007612656801939011,-0.02677154541015625,0.44054412841796875,-0.49659866094589233,-9.94102668762207
1745726247.2888386,-0.07572008669376373,0.013177561573684216,-0.026601921766996384,0.5057328939437866,-0.18344640731811523,-9.759376525878906
1745726247.2899036,-0.09617505967617035,0.006495276000350714,-0.02582743391394615,0.5405017137527466,-0.34217023849487305,-9.974099159240723
1745726247.2921302,-0.07393170893192291,-0.00271132355555892,-0.03190219774842262,-0.24680233001708984,0.07706991583108902,-10.277016639709473
1745726247.3289547,-0.06699524074792862,0.011416773311793804,-0.03815007209777832,0.355366051197052,-0.48754867911338806,-9.200145721435547
1745726247.333246,-0.06592026352882385,0.004425192717462778,-0.03483996540307999,-0.13134905695915222,0.02324143797159195,-9.6709623336792
1745726247.3362212,-0.08476601541042328,-0.014718200080096722,-0.04006778076291084,-0.5318440198898315,-0.5852130055427551,-10.352252006530762
1745726247.3415773,-0.011853186413645744,0.026374712586402893,-0.03766188770532608,-0.1725715696811676,-0.2546478807926178,-9.298291206359863
1745726247.3426232,-0.11346087604761124,0.018059495836496353,-0.03772759810090065,-0.2476133555173874,-0.9199415445327759,-9.24756908416748
1745726247.372865,-0.03511505573987961,-0.008511134423315525,-0.035784557461738586,0.3790709376335144,-0.855614185333252,-9.795469284057617
1745726247.3771467,-0.11198063939809799,0.008708379231393337,-0.03332297503948212,0.319201797246933,-0.43029409646987915,-10.702865600585938
1745726247.3808625,-0.11566903442144394,0.019494591280817986,-0.032094556838274,-0.10688163340091705,-1.5777218341827393,-10.03182315826416
1745726247.385236,-0.13714361190795898,0.006012135650962591,-0.029348129406571388,0.20897845923900604,-0.6337957382202148,-8.394001960754395
1745726247.4168372,-0.015468873083591461,-0.013842394575476646,-0.03019455075263977,0.1936562955379486,-0.05945628881454468,-9.77149772644043
1745726247.420523,-0.03716769069433212,-0.005101071670651436,-0.033893510699272156,0.23884089291095734,-0.41686874628067017,-10.915382385253906
1745726247.4241643,-0.027846354991197586,0.0016979165375232697,-0.039029479026794434,-0.08281302452087402,-0.3955698013305664,-9.775537490844727
1745726247.4270484,-0.0877070277929306,-0.010141327977180481,-0.04317273944616318,0.18171580135822296,-0.8887560963630676,-8.666544914245605
1745726247.4602551,-0.10633182525634766,-0.025316257029771805,-0.043277520686388016,0.10420747101306915,-0.7875255346298218,-9.826726913452148
1745726247.462119,-0.1458570808172226,-5.431040335679427e-05,-0.03967326134443283,0.11886350810527802,-0.8918701410293579,-10.657968521118164
1745726247.4621782,-0.16410033404827118,-0.005421626381576061,-0.04014626890420914,0.21509818732738495,-0.7849047780036926,-9.621039390563965
1745726247.4632316,-0.16650529205799103,-0.00883752666413784,-0.03399321436882019,-0.023872608318924904,-0.3237694799900055,-8.882296562194824
1745726247.5024514,-0.17259980738162994,-0.016355477273464203,-0.03076816536486149,0.24687083065509796,-0.16963490843772888,-9.887712478637695
1745726247.5057044,-0.13233551383018494,-0.012529921717941761,-0.03002539835870266,0.07694343477487564,0.25411683320999146,-10.550556182861328
1745726247.5062358,-0.11604718118906021,-0.0006430504145100713,-0.03101913258433342,-0.0492885448038578,0.13967572152614594,-9.665202140808105
1745726247.5093424,-0.09350638091564178,-0.015510134398937225,-0.031071549281477928,-0.03253161162137985,0.3495464324951172,-8.980669021606445
1745726247.5145314,-0.0740620493888855,-0.011912712827324867,-0.032557547092437744,-0.043396204710006714,0.15060338377952576,-9.770167350769043
1745726247.5471451,-0.07200909405946732,-0.010682749561965466,-0.033011309802532196,0.30561819672584534,-0.043087538331747055,-10.301403999328613
1745726247.5472784,-0.0651235431432724,-0.008557470515370369,-0.03723355382680893,0.19126711785793304,-0.016606900840997696,-9.779813766479492
1745726247.5519333,-0.05546202510595322,0.0031319428235292435,-0.05770080164074898,0.5109760165214539,0.022921215742826462,-11.013559341430664
1745726247.5553126,-0.055552609264850616,0.017823273316025734,-0.060014672577381134,-0.44214922189712524,0.13280639052391052,-10.4091215133667
1745726247.5931835,-0.03346111252903938,0.029046520590782166,-0.06539265811443329,0.017577430233359337,0.10093174129724503,-8.25293254852295
1745726247.5964267,-0.04790491238236427,0.0030689637642353773,-0.07433044910430908,0.29335159063339233,0.7452060580253601,-9.094929695129395
1745726247.599826,-0.017679698765277863,0.017545726150274277,-0.08750943839550018,0.3446539044380188,0.18923138082027435,-11.33444881439209
1745726247.6042504,0.021629992872476578,0.03172405809164047,-0.09488557279109955,1.0427817106246948,0.5600463151931763,-10.073113441467285
1745726247.6330364,-0.005768143106251955,0.022377829998731613,-0.0962890237569809,0.6271028518676758,-0.2811589539051056,-8.954164505004883
1745726247.6369703,0.01879219338297844,0.007880408316850662,-0.0897381454706192,0.8441287279129028,-0.5040619969367981,-9.51426887512207
1745726247.6380296,0.0034649416338652372,0.028111090883612633,-0.08491163700819016,0.467916339635849,0.09138181805610657,-10.662239074707031
1745726247.6413693,0.014298130758106709,0.04381207004189491,-0.08742000162601471,0.3694647252559662,-0.40315937995910645,-10.00112533569336
1745726247.6567228,0.0264907144010067,0.02692461386322975,-0.09205426275730133,0.37871742248535156,0.5510861277580261,-8.628735542297363
1745726247.6778297,0.015885744243860245,0.025783147662878036,-0.1070665493607521,0.10548347234725952,0.49959173798561096,-9.751429557800293
1745726247.6792665,0.049769848585128784,0.0311022587120533,-0.1214250698685646,0.34026509523391724,0.42047399282455444,-10.65962028503418
1745726247.6793303,0.06405843794345856,0.04690657928586006,-0.12753230333328247,0.11052297055721283,0.027719909325242043,-9.730688095092773
1745726247.6819048,0.042773984372615814,0.04450618848204613,-0.12700872123241425,0.513997495174408,-0.6312020421028137,-8.923267364501953
1745726247.7180932,0.0285134669393301,0.03484122082591057,-0.11748788505792618,0.5784710645675659,-0.5403029918670654,-9.758440971374512
1745726247.722726,0.041524987667798996,0.05701281875371933,-0.11374516785144806,0.5672794580459595,-0.5335044264793396,-10.53434944152832
1745726247.7267957,0.018532240763306618,0.057021938264369965,-0.11219930648803711,0.7290521860122681,-0.03834916278719902,-9.67164134979248
1745726247.7281284,0.033752381801605225,0.04752819985151291,-0.11816205084323883,0.3341885805130005,0.020859170705080032,-9.262701988220215
1745726247.731414,0.032825641334056854,0.047932036221027374,-0.12669503688812256,0.4072931706905365,0.3607253432273865,-9.885407447814941
1745726247.760626,0.04331847280263901,0.04949989169836044,-0.13782969117164612,0.3156405985355377,0.37149471044540405,-10.375804901123047
1745726247.7622254,0.04660845547914505,0.04263449087738991,-0.13992728292942047,0.042267780750989914,-0.16962198913097382,-9.833623886108398
1745726247.7654598,0.04997999593615532,0.044267233461141586,-0.1370101273059845,0.2925790846347809,-0.5032023191452026,-9.439518928527832
1745726247.7700217,0.03590511530637741,0.0336698442697525,-0.13300590217113495,0.40565991401672363,-0.09262840449810028,-9.667854309082031
1745726247.8230784,0.041358016431331635,0.04118570685386658,-0.13279569149017334,0.5112741589546204,-0.33884841203689575,-10.2387056350708
1745726247.8231661,0.05595908686518669,0.03653792664408684,-0.12868337333202362,0.3678714334964752,0.15816205739974976,-9.908331871032715
1745726247.8232183,0.06355898082256317,0.04117594659328461,-0.12885579466819763,0.15567263960838318,-0.016550784930586815,-9.330236434936523
1745726247.8232737,0.06644995510578156,0.030775878578424454,-0.12891905009746552,0.361927330493927,-0.014622208662331104,-9.442582130432129
1745726247.8233232,0.07145696133375168,0.02619139850139618,-0.12999089062213898,0.12194976955652237,0.008205873891711235,-10.252756118774414
1745726247.8476923,0.08834579586982727,0.043311070650815964,-0.1339687705039978,0.21313372254371643,0.006215014960616827,-10.042695045471191
1745726247.8548393,0.06870964914560318,0.027377551421523094,-0.13704851269721985,0.3138084411621094,-0.12215916812419891,-9.38569164276123
1745726247.854994,0.08323903381824493,0.025378653779625893,-0.13553892076015472,0.39791813492774963,-0.3349694609642029,-9.503498077392578
1745726247.8583648,0.05362623184919357,0.019070111215114594,-0.13590256869792938,0.6602698564529419,-0.316384494304657,-10.19716739654541
1745726247.8913863,0.06590356677770615,0.026423299685120583,-0.1335226595401764,0.25430768728256226,-0.4465135633945465,-10.165252685546875
1745726247.8935447,0.04897451400756836,0.027196144685149193,-0.12961092591285706,0.4167947769165039,-0.45083776116371155,-9.24034309387207
1745726247.8967736,0.039176903665065765,0.015159371308982372,-0.1260850727558136,0.41552481055259705,-0.26992470026016235,-9.45313549041748
1745726247.9088612,0.04246402531862259,-0.012403173372149467,-0.12254933267831802,0.5274646878242493,-0.42600101232528687,-10.125967025756836
1745726247.9393888,0.05515832453966141,-0.01453155092895031,-0.11757928133010864,0.23516544699668884,-0.34335216879844666,-9.28828239440918
1745726247.9394493,0.041220467537641525,-0.015276339836418629,-0.11079481989145279,0.4126693606376648,-0.3551717698574066,-9.397343635559082
1745726247.9446294,0.051813047379255295,-0.023705624043941498,-0.1071959137916565,0.4061164855957031,-0.151407852768898,-10.249375343322754
1745726247.9489005,0.07800857722759247,-0.01337496004998684,-0.10774292051792145,0.26466935873031616,0.025839578360319138,-10.040729522705078
1745726247.9750657,0.057128578424453735,-0.01679106056690216,-0.11381034553050995,0.32200923562049866,0.06560152024030685,-9.409815788269043
1745726247.9838572,0.09281466156244278,-0.023001736029982567,-0.11242552846670151,0.21288850903511047,-0.17749525606632233,-9.506075859069824
1745726247.9839911,0.06509140133857727,-0.01856820099055767,-0.11494030803442001,0.36491402983665466,-0.32787591218948364,-10.028738975524902
1745726247.984047,0.06329473108053207,-0.025037411600351334,-0.11230083554983139,0.3279324769973755,-0.610863208770752,-10.08594799041748
1745726247.984092,0.06084085628390312,-0.011221332475543022,-0.1067291647195816,0.40553513169288635,-0.6431909203529358,-9.482765197753906
1745726248.0200741,0.03641375154256821,-0.02308088168501854,-0.10098584741353989,0.4174376130104065,-0.4885420799255371,-9.58646297454834
1745726248.0217102,0.03472176566720009,-0.025081712752580643,-0.10263422876596451,0.3713930547237396,-0.4205111563205719,-9.999468803405762
1745726248.024833,0.032327406108379364,-0.021546076983213425,-0.10142475366592407,0.5309891700744629,-0.3541799485683441,-10.049666404724121
1745726248.0275528,0.034038618206977844,-0.02049504965543747,-0.10226462036371231,0.14911003410816193,-0.12355059385299683,-9.69542407989502
1745726248.06012,0.0297868549823761,-0.02521960437297821,-0.10452743619680405,0.2439189851284027,-0.37315553426742554,-9.546799659729004
1745726248.0630095,0.033866774290800095,-0.03239854425191879,-0.10107314586639404,0.29144302010536194,-0.20768728852272034,-9.787150382995605
1745726248.0655046,0.041010309010744095,-0.0163363479077816,-0.10251732915639877,0.17552192509174347,-0.26264065504074097,-9.978113174438477
1745726248.0764968,0.030014121904969215,-0.02614053152501583,-0.09976700693368912,0.3541392683982849,-0.2627728581428528,-9.661382675170898
1745726248.0765712,0.04604988545179367,-0.021823596209287643,-0.10217125713825226,0.3439708948135376,-0.2102985382080078,-9.553735733032227
1745726248.1040955,0.03713054209947586,-0.02226908691227436,-0.09731664508581161,0.5287554860115051,-0.34786301851272583,-9.916831016540527
1745726248.1097603,0.045168686658144,-0.027550121769309044,-0.09794414043426514,0.36258283257484436,-0.28997910022735596,-10.14732551574707
1745726248.1121795,-0.01319839060306549,-0.021270105615258217,-0.06983862072229385,0.33481207489967346,-0.223425954580307,-9.602258682250977
1745726248.1203148,-0.008878308348357677,-0.029410425573587418,-0.06799014657735825,0.6011489033699036,-0.20725980401039124,-9.918214797973633
1745726248.1478403,-0.01444869302213192,-0.022743359208106995,-0.0673101395368576,0.30297231674194336,0.04076208174228668,-10.210243225097656
1745726248.151334,0.0062240008264780045,-0.01515210885554552,-0.0679437667131424,0.14397509396076202,-0.18118241429328918,-9.643994331359863
1745726248.1564457,-0.003747715149074793,-0.027444344013929367,-0.06637915223836899,0.4484131336212158,-0.011507069692015648,-9.264949798583984
1745726248.1614244,0.027382541447877884,-0.0233148206025362,-0.0617266520857811,0.2406834065914154,-0.13440454006195068,-10.035374641418457
1745726248.1637714,0.028935402631759644,-0.020963262766599655,-0.056207992136478424,0.33185338973999023,-0.06916575133800507,-10.153040885925293
1745726248.1909602,0.042717888951301575,-0.02068517729640007,-0.054480232298374176,0.28283560276031494,-0.2346343696117401,-9.631814956665039
1745726248.195196,0.05873231962323189,-0.009372425265610218,-0.049154121428728104,0.357582151889801,-0.2948586046695709,-9.326159477233887
1745726248.198111,0.02606866881251335,-0.028864195570349693,-0.04758003354072571,0.3184153139591217,-0.43851834535598755,-10.057098388671875
1745726248.2005258,0.046195436269044876,-0.01518944837152958,-0.04523724690079689,0.24891908466815948,-0.6624028086662292,-10.165010452270508
1745726248.2405045,0.0141880689188838,-0.00884995423257351,-0.042596470564603806,0.3560275435447693,-0.6052232980728149,-9.527592658996582
1745726248.240596,-0.010343251749873161,-0.01752571575343609,-0.038371697068214417,0.048434920608997345,-0.6767328977584839,-9.535243034362793
1745726248.2424407,-0.018377702683210373,-0.01644264906644821,-0.03821473568677902,0.4352931082248688,-0.6682218313217163,-9.7779541015625
1745726248.245659,-0.04691904038190842,-0.013327178545296192,-0.03605128824710846,0.3563540577888489,-0.37986621260643005,-10.131933212280273
1745726248.2793877,-0.044874157756567,-0.009210638701915741,0.01639888435602188,0.7092641592025757,-0.11713030189275742,-9.960718154907227
1745726248.2828197,-0.02922271192073822,-0.008341407403349876,0.012011254206299782,0.08841092139482498,-0.12401137501001358,-10.186758041381836
1745726248.2836807,-0.03382813557982445,0.0038232370279729366,0.006671342998743057,0.555053174495697,-0.195365309715271,-9.282133102416992
1745726248.285019,-0.020629484206438065,-0.004971340298652649,0.00370961194857955,0.39371761679649353,0.03205185383558273,-9.425956726074219
1745726248.3205163,-0.02483443357050419,-0.005523688159883022,-0.0021034658420830965,0.2932843863964081,-0.3605283796787262,-10.225922584533691
1745726248.325041,-0.01535718608647585,0.0028417313005775213,-0.007000121288001537,0.20584622025489807,-0.13219037652015686,-9.972555160522461
1745726248.3264694,-0.02553059533238411,0.0203844141215086,-0.005935966968536377,0.06747641414403915,-0.6369462013244629,-9.238243103027344
1745726248.3305042,-0.02830362319946289,0.000733299064449966,-0.008380023762583733,0.4546002745628357,-0.4943672716617584,-9.358538627624512
1745726248.3383331,-0.04609258100390434,0.005460189189761877,-0.010863864794373512,0.3525560200214386,-0.2577715218067169,-10.407508850097656
1745726248.3656778,-0.046362604945898056,0.018117615953087807,-0.015679141506552696,0.4081270694732666,-0.6598484516143799,-10.264050483703613
1745726248.3672738,-0.060780107975006104,0.01391600538045168,-0.02006247639656067,0.2604295611381531,-0.0746743232011795,-8.983381271362305
1745726248.370771,-0.0895017459988594,0.006688731722533703,-0.02398647554218769,0.5609275102615356,-0.5869134664535522,-9.345976829528809
1745726248.374776,-0.0786706730723381,0.0024318674113601446,-0.026683136820793152,0.5255947709083557,-0.12173360586166382,-10.54920482635498
1745726248.4059942,-0.08778490126132965,0.016055021435022354,-0.028997812420129776,0.18553146719932556,-0.15849412977695465,-10.333125114440918
1745726248.4087694,-0.065434530377388,0.009759376756846905,-0.02966255322098732,0.5245898365974426,-0.0492447167634964,-9.063944816589355
1745726248.4115355,-0.06422028690576553,-0.002160643460229039,-0.03200773522257805,0.18256565928459167,0.30230242013931274,-9.452177047729492
1745726248.4145155,-0.037096016108989716,0.0001932847371790558,-0.03510681167244911,0.44241222739219666,0.04261449724435806,-10.486610412597656
1745726248.4189017,-0.004210229963064194,0.00844260398298502,-0.0376921221613884,0.4304230809211731,0.4074828028678894,-10.061896324157715
1745726248.4499161,0.007383002433925867,0.01212982926517725,-0.04025423526763916,0.05935000255703926,-0.0030874356161803007,-9.264366149902344
1745726248.4522073,0.0035253677051514387,-0.012717987410724163,-0.042709432542324066,0.5025961995124817,-0.1553165316581726,-9.280294418334961
1745726248.45563,0.018902815878391266,0.0038760241586714983,-0.04326101019978523,0.3243566155433655,-0.22609713673591614,-10.36230754852295
1745726248.4906898,-0.04010697454214096,0.011794930323958397,-0.05530242249369621,0.3563877046108246,-0.11147049814462662,-10.175243377685547
1745726248.4914746,-0.01883312687277794,0.01471194438636303,-0.05677565187215805,0.31492069363594055,0.1143127828836441,-10.025737762451172
1745726248.4941971,-0.004129996057599783,0.016973821446299553,-0.056119002401828766,0.24531050026416779,0.16571639478206635,-9.426218032836914
1745726248.49428,-0.010373877361416817,0.0013305713655427098,-0.059798263013362885,0.5493228435516357,-0.0992719903588295,-9.683810234069824
1745726248.5043705,0.0227656252682209,0.007121074013411999,-0.060986101627349854,0.3357260525226593,0.0649622306227684,-10.19411563873291
1745726248.5371547,-0.001366420998238027,0.01316967885941267,-0.06345775723457336,0.4189780354499817,-0.2175397127866745,-9.930675506591797
1745726248.5385692,0.010097687132656574,0.0012374997604638338,-0.06385447829961777,0.4548942446708679,-0.18410709500312805,-9.420578002929688
1745726248.5404115,0.008915378712117672,0.006694364361464977,-0.06618358194828033,0.37123745679855347,-0.11379408836364746,-9.627485275268555
1745726248.5426948,-0.009270737878978252,-0.0006980403559282422,-0.06847861409187317,0.5424262285232544,-0.24719707667827606,-10.170802116394043
1745726248.5792284,0.014647221192717552,0.008237401954829693,-0.07035429775714874,0.20157675445079803,-0.05478262901306152,-9.900197982788086
1745726248.5807312,-0.007454267702996731,0.004890325479209423,-0.07344518601894379,0.41399604082107544,-0.2779998183250427,-9.436454772949219
1745726248.5828187,0.008320075459778309,0.00044482742669060826,-0.07263478636741638,0.16127131879329681,-0.10979549586772919,-9.659189224243164
1745726248.5845625,0.005795133300125599,0.009038953110575676,-0.07156774401664734,0.17406418919563293,-0.30768126249313354,-9.9207124710083
1745726248.58524,0.0054139867424964905,0.011197209358215332,-0.07161972671747208,0.4023660123348236,-0.3008785843849182,-9.694180488586426
1745726248.623863,0.004679359495639801,0.007225388195365667,-0.0695701315999031,0.05476004630327225,-0.18264652788639069,-9.646295547485352
1745726248.6275873,0.005232433322817087,-0.010367334820330143,-0.0779629498720169,0.21328027546405792,-0.5061880350112915,-9.558195114135742
1745726248.631909,0.011914717964828014,0.00023657121346332133,-0.06922681629657745,0.3120197355747223,-0.326582670211792,-9.526514053344727
1745726248.635442,-0.020542431622743607,-0.013156997971236706,-0.06421303749084473,0.24523437023162842,-0.461418092250824,-10.187253952026367
1745726248.6661115,-0.0059581627137959,-0.002684461884200573,-0.05788246542215347,0.27631253004074097,-0.5076212286949158,-9.908285140991211
1745726248.6682947,-0.008630713447928429,0.010304858908057213,-0.05373965948820114,0.40787258744239807,-0.013030067086219788,-9.163252830505371
1745726248.6752832,-0.0525466725230217,-0.01481254119426012,-0.053232140839099884,0.6206406354904175,-0.36998090147972107,-9.761889457702637
1745726248.6754172,-0.0038715731352567673,-0.016793938353657722,-0.051404111087322235,0.5521949529647827,0.2052777260541916,-10.475442886352539
1745726248.6782742,-0.03027273342013359,0.004614472389221191,-0.04544935002923012,0.4845648407936096,-0.16839835047721863,-10.147821426391602
1745726248.7130888,-0.0035202237777411938,-0.006650890223681927,-0.04299835115671158,0.13013885915279388,0.11399857699871063,-9.234989166259766
1745726248.7202823,-0.012415699660778046,-0.013848076574504375,-0.039754174649715424,0.38689884543418884,0.020691055804491043,-9.294331550598145
1745726248.7203712,0.01976611092686653,-0.010587264783680439,-0.03423520550131798,0.4676683843135834,0.13357314467430115,-10.431990623474121
1745726248.7251036,0.037452004849910736,0.0009209519485011697,-0.033743854612112045,0.08769629895687103,0.4213024973869324,-10.196512222290039
1745726248.7504742,0.04704516753554344,-0.0025510217528790236,-0.0315411239862442,0.3815635144710541,-0.1826273798942566,-9.180169105529785
1745726248.7533393,0.07138580083847046,-0.016631077975034714,-0.02846682071685791,0.30311861634254456,0.06844411790370941,-9.337292671203613
1745726248.7571554,0.039419110864400864,-0.0014760970370844007,-0.02420971542596817,0.3234439194202423,-0.6266923546791077,-10.45646858215332
1745726248.7586486,0.042860470712184906,-0.003987467847764492,-0.019133800640702248,0.2389591932296753,-0.5871843695640564,-10.200067520141602
1745726248.794743,0.01722712069749832,0.0025469507090747356,-0.012344449758529663,0.235820934176445,-0.7241018414497375,-9.106297492980957
1745726248.7970436,-0.023978600278496742,-0.011740263551473618,-0.009160558693110943,0.5164533853530884,-0.723849892616272,-9.4296875
1745726248.7982898,-0.03143692761659622,-0.006606350187212229,-0.009392408654093742,0.2758954167366028,-0.4212893545627594,-10.459436416625977
1745726248.8001275,-0.052766136825084686,0.003391080303117633,-0.01026717759668827,0.37222427129745483,-0.47778797149658203,-10.088788986206055
1745726248.801831,-0.06362663954496384,-0.007377879228442907,-0.00836222805082798,0.30750682950019836,-0.23994266986846924,-9.227084159851074
1745726248.8380458,-0.05836901813745499,-0.003553833346813917,-0.005613610614091158,0.2534112334251404,-0.283053457736969,-9.559274673461914
1745726248.8408487,0.01531915832310915,0.0009907258208841085,0.006334805395454168,0.15620534121990204,-0.30949369072914124,-9.35977554321289
1745726248.8461003,-0.009044458158314228,-0.011252290569245815,0.01148954126983881,0.5194079279899597,-0.42732715606689453,-9.493667602539062
1745726248.8476,-0.011226179078221321,-0.003848060965538025,0.010889530181884766,0.28655940294265747,-0.3490770757198334,-10.282533645629883
1745726248.8817897,-0.023403050377964973,0.005391253158450127,0.014477667398750782,0.4259014129638672,-0.43151408433914185,-10.03133773803711
1745726248.8837523,-0.03454766422510147,-0.004966656677424908,0.014373582787811756,0.29232633113861084,-0.2458706647157669,-9.487902641296387
1745726248.8866603,-0.03750429302453995,-0.004983813501894474,0.01588677242398262,0.24500150978565216,-0.30048125982284546,-9.604362487792969
1745726248.8891237,-0.039656225591897964,-0.005623101722449064,0.019953563809394836,0.45179253816604614,-0.3100842833518982,-10.11231803894043
1745726248.9251525,-0.03312309831380844,0.002122422680258751,0.02249956503510475,0.023292560130357742,-0.1621042788028717,-10.061159133911133
1745726248.9284854,-0.04356486350297928,-0.0014150927308946848,0.02464636042714119,0.32935890555381775,-0.37240949273109436,-9.439022064208984
1745726248.9285324,-0.040206752717494965,-0.003873683512210846,0.0267866849899292,0.2570144832134247,0.018743615597486496,-9.472623825073242
1745726248.9303558,-0.044044993817806244,0.002110279630869627,0.02677653729915619,0.32862550020217896,-0.22177478671073914,-10.066752433776855
1745726248.932553,-0.04050591588020325,-0.0017372708534821868,0.025322437286376953,0.5248781442642212,-0.02007308416068554,-10.018013954162598
1745726248.9721506,-0.04298887029290199,0.003411283018067479,0.025905173271894455,0.2522146701812744,-0.18936112523078918,-9.71066665649414
1745726248.972289,-0.05061417818069458,-0.003557798219844699,0.02846626006066799,0.42159804701805115,-0.22642186284065247,-9.539457321166992
1745726248.9723682,-0.05583219602704048,0.012440139427781105,0.1385851502418518,0.4427555203437805,0.32052236795425415,-10.349458694458008
1745726248.9756112,-0.052996717393398285,0.021815964952111244,0.14034616947174072,0.434626966714859,-0.19876469671726227,-9.926180839538574
1745726249.0170655,-0.057202886790037155,0.02049596980214119,0.1442095786333084,0.4942169785499573,0.022519489750266075,-9.163640975952148
1745726249.020002,-0.06977104395627975,0.017322268337011337,0.14677897095680237,0.42761048674583435,-0.09705313295125961,-9.580604553222656
1745726249.0237997,-0.07679407298564911,0.007037913892418146,0.15093323588371277,0.6765506863594055,-0.2390632927417755,-10.272676467895508
1745726249.0283597,-0.06429275125265121,0.024945830926299095,0.15478406846523285,0.3959044814109802,0.008809125050902367,-9.978384017944336
1745726249.0320184,-0.08808893710374832,0.02584115043282509,0.15937545895576477,0.38614434003829956,-0.23645225167274475,-9.289177894592285
1745726249.0523815,-0.07296563684940338,0.010453781113028526,0.16392287611961365,0.41292595863342285,0.011755081824958324,-9.393842697143555
1745726249.0546145,-0.08729258179664612,0.0204054806381464,0.16713032126426697,0.4398723542690277,-0.07540228217840195,-10.150125503540039
1745726249.0553012,-0.08556728065013885,0.02360493876039982,0.16562429070472717,0.4376896023750305,-0.03981072083115578,-10.160674095153809
1745726249.0640888,-0.09150508046150208,0.026150193065404892,0.17047667503356934,0.21977035701274872,0.1229863166809082,-9.315864562988281
1745726249.0968637,-0.10054756700992584,0.016249727457761765,0.1712145358324051,0.5867690443992615,-0.18620377779006958,-9.316072463989258
1745726249.0990007,-0.08281548321247101,0.018669674172997475,0.17592830955982208,0.5686672329902649,0.2446708232164383,-10.054057121276855
1745726249.100697,-0.10526575893163681,0.02546146884560585,0.17685572803020477,0.5530229210853577,0.03305792063474655,-10.371110916137695
1745726249.1026223,-0.07991267740726471,0.0008228782680816948,0.17258603870868683,0.28598660230636597,0.5221988558769226,-9.659581184387207
1745726249.1373715,-0.07109518349170685,0.015050140209496021,0.16550585627555847,0.07613147795200348,0.4206753373146057,-9.241401672363281
1745726249.1386871,-0.057430438697338104,0.003477987367659807,0.16009649634361267,0.16592566668987274,0.5906779170036316,-9.823057174682617
1745726249.1408284,-0.039687979966402054,-0.005105575546622276,0.1541975885629654,-0.3555241525173187,0.3699670433998108,-10.39714527130127
1745726249.1437612,-0.014296801760792732,0.012976162135601044,0.15251900255680084,-0.08664657920598984,0.01261101383715868,-9.503087043762207
1745726249.1438262,-0.033902525901794434,0.012728693895041943,0.1540938913822174,-0.14576439559459686,-0.17141500115394592,-9.003805160522461
1745726249.1831958,-0.033757563680410385,-0.0029504704289138317,0.1551995575428009,0.09751827269792557,-0.5204542875289917,-9.755117416381836
1745726249.185745,-0.062353432178497314,-0.004341844469308853,0.15759186446666718,0.5856181979179382,-0.583035409450531,-10.426908493041992
1745726249.1910868,-0.14459188282489777,-0.009689493104815483,0.14028778672218323,-0.018856948241591454,0.8424665331840515,-8.958036422729492
1745726249.1940074,-0.1578141152858734,-0.023213040083646774,0.13781896233558655,0.29933932423591614,0.7274342179298401,-9.51939868927002
1745726249.2282305,-0.08957333862781525,-0.02486005611717701,0.13756823539733887,0.20784549415111542,0.8177935481071472,-10.581336975097656
1745726249.2283041,-0.03740319237112999,-0.0068692476488649845,0.135907843708992,0.24145174026489258,0.8012992143630981,-10.039358139038086
1745726249.2316177,-0.027028720825910568,-0.02616138383746147,0.1389535367488861,0.1093258410692215,0.725635826587677,-9.11574649810791
1745726249.2317874,0.00836334377527237,-0.027920827269554138,0.138018399477005,0.22542276978492737,0.23468375205993652,-9.45333480834961
1745726249.2663271,0.006251166574656963,-0.02526981756091118,0.13297708332538605,0.5403949022293091,0.3269999325275421,-10.30242919921875
1745726249.2691343,-0.014239382930099964,-0.026934847235679626,0.12640497088432312,-0.010579967871308327,0.047105737030506134,-10.344484329223633
1745726249.2721493,-0.010890585370361805,-0.024063479155302048,0.12697328627109528,0.4271256923675537,-0.2015327662229538,-9.042478561401367
1745726249.2751567,-0.03572916239500046,-0.031620513647794724,0.12622664868831635,0.16024726629257202,-0.14103829860687256,-9.309053421020508
1745726249.2790375,-0.0644209012389183,-0.028396237641572952,0.12583523988723755,-0.01406377274543047,-0.513159453868866,-10.387063980102539
1745726249.3153164,-0.0957135558128357,-0.031758058816194534,0.1269870102405548,0.36138755083084106,-0.5184250473976135,-9.99025821685791
1745726249.317469,-0.12516817450523376,-0.027567973360419273,0.1259259432554245,-0.2603548765182495,-0.24647045135498047,-9.45853328704834
1745726249.3255525,-0.1652657687664032,-0.03707318753004074,0.12438623607158661,0.1440868079662323,-0.1841665506362915,-9.339174270629883
1745726249.32949,0.010877767577767372,0.007209424860775471,0.006949824281036854,0.253761351108551,-0.18984922766685486,-9.630061149597168
1745726249.3524823,-0.022367600351572037,0.004122219048440456,0.004944727756083012,0.3967946469783783,0.19920353591442108,-9.58502197265625
1745726249.3554,0.0025083788204938173,0.008686380460858345,-0.004473806358873844,0.3339727520942688,0.6304000616073608,-9.941636085510254
1745726249.3616695,0.02511865273118019,0.00974942184984684,-0.013075950555503368,0.3980737626552582,0.624167263507843,-9.941113471984863
1745726249.3632736,0.05385712906718254,0.006922454573214054,-0.01708381436765194,0.39471760392189026,0.7894203662872314,-9.767178535461426
1745726249.3959596,0.07252421975135803,0.01603560522198677,-0.02092871628701687,0.20119893550872803,0.4594123959541321,-9.761053085327148
1745726249.398944,0.09259103983640671,0.012638231739401817,-0.018861642107367516,0.4297823905944824,0.03827616572380066,-9.752324104309082
1745726249.4013534,0.11108441650867462,0.013554287143051624,-0.018847297877073288,0.37312260270118713,0.3882415294647217,-9.737825393676758
1745726249.4014122,0.09028314054012299,0.017620043829083443,-0.021944399923086166,0.5115368962287903,0.055810701102018356,-9.913406372070312
1745726249.4035604,0.11579819768667221,0.017498422414064407,-0.029348645359277725,0.3973720073699951,0.3809348940849304,-9.808477401733398
1745726249.4390135,0.09652606397867203,0.020551076158881187,-0.03980005159974098,0.4727524220943451,0.10612243413925171,-9.644953727722168
1745726249.445667,0.07665679603815079,0.009936297312378883,-0.04402504861354828,0.6137052774429321,-0.021731087937951088,-9.914275169372559
1745726249.447326,0.07362598925828934,0.020384885370731354,-0.04948849976062775,0.2375449687242508,-0.14656926691532135,-10.010358810424805
1745726249.451007,0.06677975505590439,0.022518258541822433,-0.04999542236328125,0.3172515034675598,-0.16002488136291504,-9.595335006713867
1745726249.4823022,0.0537923201918602,0.020480278879404068,-0.05132213234901428,0.301858514547348,0.07043971121311188,-9.406207084655762
1745726249.4840357,0.06968217343091965,0.027606461197137833,-0.049828484654426575,0.4578283429145813,0.07059510052204132,-9.876250267028809
1745726249.4857635,0.08254655450582504,0.01963537000119686,-0.054714929312467575,0.45810866355895996,0.49856314063072205,-10.116555213928223
1745726249.4994345,0.0995381772518158,0.03289918228983879,-0.0580286979675293,0.2384084016084671,0.29601019620895386,-9.821064949035645
1745726249.5248437,0.10581276565790176,0.026052221655845642,-0.06306029111146927,0.46471548080444336,0.21364407241344452,-9.456209182739258
1745726249.5295093,0.12022813409566879,0.019474228844046593,-0.06021899729967117,0.20848898589611053,0.04382655769586563,-9.883485794067383
1745726249.5359392,0.1192895919084549,0.0275313351303339,-0.06026843190193176,0.16048595309257507,0.006451153662055731,-10.086122512817383
1745726249.537597,0.09750793874263763,0.022823922336101532,-0.05925578996539116,0.2976686954498291,-0.24689969420433044,-9.619803428649902
1745726249.5441709,0.09374482929706573,0.020307553932070732,-0.05669943243265152,-0.1141805648803711,-0.11202655732631683,-9.607352256774902
1745726249.5690804,0.0789167732000351,0.00727882469072938,-0.06776462495326996,0.26780617237091064,0.2513112425804138,-9.66778564453125
1745726249.5719457,0.06082158163189888,0.010534103959798813,-0.06014283746480942,0.017470499500632286,-0.05916555970907211,-9.902735710144043
1745726249.5745811,0.09120634943246841,0.008488004095852375,-0.05374380946159363,0.17560987174510956,-0.14118078351020813,-9.75843620300293
1745726249.5758846,0.09458889067173004,0.011808723211288452,-0.050022006034851074,-0.008758381009101868,0.3547961115837097,-9.591142654418945
1745726249.6121507,0.09205295890569687,0.005023811478167772,-0.05276123434305191,0.2515314519405365,0.0057180700823664665,-9.895252227783203
1745726249.6159058,0.12471475452184677,0.00122832169290632,-0.054807908833026886,0.07723046839237213,0.4623200297355652,-9.908514022827148
1745726249.618429,0.10121681541204453,0.010463271290063858,-0.0608055405318737,0.22155089676380157,-0.09680286049842834,-9.750277519226074
1745726249.6211205,0.09565099328756332,-0.005633231718093157,-0.0644463449716568,0.22709226608276367,-0.0874151960015297,-9.617976188659668
1745726249.6339417,0.07220886647701263,0.0016256552189588547,-0.05999227613210678,0.14419157803058624,-0.5136706233024597,-9.780957221984863
1745726249.6685193,0.05704124644398689,0.002091778675094247,-0.05737672001123428,0.39107054471969604,-0.33632704615592957,-9.813748359680176
1745726249.6686018,0.04078312963247299,-0.001829239772632718,-0.056169699877500534,0.21854858100414276,-0.22152924537658691,-9.760623931884766
1745726249.6687117,0.048123184591531754,-0.003498770296573639,-0.05107145383954048,0.32299506664276123,-0.1357077658176422,-9.760595321655273
1745726249.6687527,0.0461227223277092,-0.008712646551430225,-0.05411618947982788,0.2147638350725174,0.383453905582428,-9.891992568969727
1745726249.6975818,-0.03145184367895126,-0.0019242055714130402,-0.013958494178950787,0.3398801386356354,0.2446124106645584,-9.23902416229248
1745726249.7036874,-0.026235735043883324,-0.01775963418185711,-0.00833841785788536,-0.21165001392364502,0.08429370820522308,-8.612804412841797
1745726249.7076044,-0.0016425069188699126,-0.0032626562751829624,0.007886896841228008,0.2648383677005768,-0.25274601578712463,-9.774867057800293
1745726249.7121284,0.03465532138943672,0.005712246056646109,0.027454793453216553,0.46719926595687866,-0.020196186378598213,-10.679521560668945
1745726249.7405066,0.07216121256351471,0.018660221248865128,0.040436260402202606,0.25279709696769714,0.13407853245735168,-9.69659423828125
1745726249.7423604,0.0725393146276474,0.007606105413287878,0.046321190893650055,0.8278716206550598,-0.007836687378585339,-8.858528137207031
1745726249.744037,0.08376558125019073,0.002766253426671028,0.04673229530453682,0.7255417704582214,0.16699382662773132,-10.08024787902832
1745726249.746862,0.04443659260869026,0.0030285718385130167,0.04101652279496193,0.7918728590011597,-0.2880353033542633,-10.89836597442627
1745726249.7824512,0.01782084070146084,0.012218176387250423,0.03972012549638748,0.579684853553772,-0.6790727376937866,-9.739339828491211
1745726249.7857232,-0.02360779419541359,0.014696791768074036,0.04283655807375908,0.3211291432380676,-0.7202926874160767,-8.675884246826172
1745726249.7886717,-0.09195904433727264,-0.0013104489771649241,0.053460635244846344,0.6927391886711121,-0.5904630422592163,-9.546504974365234
