timestamp,angular_vel_x,angular_vel_y,angular_vel_z,linear_acc_x,linear_acc_y,linear_acc_z
1745726713.554906,-0.20841345191001892,-0.00874352641403675,0.03752080723643303,0.5315715670585632,-0.34972110390663147,-9.75317096710205
1745726713.5603895,-0.18736498057842255,-0.007417590357363224,0.040390513837337494,0.41184601187705994,-0.2417593002319336,-9.921720504760742
1745726713.5641253,-0.1688612848520279,-0.0018895205575972795,0.0436859093606472,0.42189493775367737,-0.25652334094047546,-9.787186622619629
1745726713.5939913,-0.169952392578125,-0.012997796759009361,0.04597678408026695,0.46893128752708435,-0.2600032091140747,-9.602993965148926
1745726713.5954123,-0.15644216537475586,-0.0030269448179751635,0.04529080539941788,0.3958669602870941,-0.45464855432510376,-9.75764274597168
1745726713.5972843,-0.17370334267616272,-0.006708134897053242,0.04822437837719917,0.5730470418930054,-0.45657625794410706,-9.94035816192627
1745726713.5988445,-0.17256078124046326,-0.0053802309557795525,0.04530823230743408,0.2707013487815857,-0.4545081555843353,-9.780481338500977
1745726713.6090608,-0.20319393277168274,-0.003204428358003497,0.042755644768476486,0.6225572228431702,-0.7782242298126221,-9.516057968139648
1745726713.640905,-0.2132624089717865,-0.005947131663560867,0.044222719967365265,0.5676597356796265,-0.3275757431983948,-9.653888702392578
1745726713.6422274,-0.22672978043556213,-0.00478434469550848,0.043119631707668304,0.42848992347717285,-0.6260084509849548,-10.03269100189209
1745726713.6444511,-0.2306700497865677,-0.003906291909515858,0.04568031430244446,0.5819100141525269,-0.2965061664581299,-9.752366065979004
1745726713.646275,-0.22224418818950653,0.005417351145297289,0.04680173844099045,0.37133607268333435,-0.22436757385730743,-9.596281051635742
1745726713.6804483,-0.2186385840177536,-0.004459545947611332,0.04961007088422775,0.460279643535614,-0.13934282958507538,-9.665102005004883
1745726713.6833005,-0.18864575028419495,-0.0016130793374031782,0.05050445720553398,0.37698259949684143,0.08763746917247772,-9.86403751373291
1745726713.6845272,-0.18366292119026184,0.005939330440014601,0.05071718245744705,0.4617169499397278,-0.07895748317241669,-9.910786628723145
1745726713.689275,-0.16367661952972412,-0.0028092763386666775,0.05042790248990059,0.3174370527267456,0.11812452971935272,-9.61048412322998
1745726713.696234,-0.15357628464698792,0.002841759007424116,0.044671542942523956,0.6601699590682983,-0.2563527226448059,-9.569330215454102
1745726713.7275658,-0.16979029774665833,-0.010370919480919838,0.04080925136804581,0.9027930498123169,-0.0048058778047561646,-10.012105941772461
1745726713.7295973,-0.15383030474185944,0.008209047839045525,0.029787713661789894,0.3735416531562805,-0.08214764297008514,-10.229101181030273
1745726713.7321017,-0.17694315314292908,0.011102288961410522,-0.010249489918351173,0.7714318037033081,-0.38076063990592957,-10.57012939453125
1745726713.7340953,-0.17472010850906372,0.027901027351617813,-0.010987154208123684,0.6159671545028687,-0.16127707064151764,-9.890423774719238
1745726713.7672484,-0.1917540580034256,0.013889332301914692,-0.01710575632750988,0.7361145615577698,0.07742758095264435,-9.04871940612793
1745726713.7686987,-0.1459021270275116,0.0068232277408242226,-0.01988661102950573,0.5045701265335083,0.43231019377708435,-9.713229179382324
1745726713.769917,-0.138111412525177,0.017782455310225487,-0.030016371980309486,0.5331202745437622,0.5943147540092468,-10.437559127807617
1745726713.772053,-0.09956929087638855,0.016942542046308517,-0.03664039820432663,0.34072333574295044,0.490386962890625,-9.737098693847656
1745726713.8082047,-0.07540316879749298,0.01762288436293602,-0.03849871829152107,0.45148491859436035,0.16488265991210938,-9.120716094970703
1745726713.8132708,-0.06464192271232605,0.007664869539439678,-0.04159493371844292,0.572123646736145,0.30241718888282776,-9.755595207214355
1745726713.8201356,-0.05285154655575752,0.020396951586008072,-0.043313510715961456,0.4438437521457672,-0.14990104734897614,-10.4150972366333
1745726713.8222373,-0.046796537935733795,0.01918538473546505,-0.04498815909028053,0.7389949560165405,-0.20325759053230286,-9.679374694824219
1745726713.8249972,-0.054604142904281616,0.01802680268883705,-0.0462457612156868,0.651033878326416,-0.12871401011943817,-9.217649459838867
1745726713.851806,-0.08555234223604202,0.010350964963436127,-0.04903610423207283,0.6658175587654114,-0.504582941532135,-10.022354125976562
1745726713.852808,-0.07561282068490982,0.01574823632836342,-0.05418980121612549,0.595625102519989,-0.2566859722137451,-10.189310073852539
1745726713.8552153,-0.10328619182109833,0.02555801533162594,-0.05679568648338318,0.4805680215358734,-0.3534548282623291,-9.624208450317383
1745726713.8557491,-0.11951909959316254,0.011335698887705803,-0.061611950397491455,0.3931150436401367,-0.141714408993721,-9.285186767578125
1745726713.897198,0.06112551689147949,-0.008165383711457253,-0.10046614706516266,0.34819674491882324,0.11600792407989502,-9.870423316955566
1745726713.8994024,0.04947170615196228,-0.008218197152018547,-0.10311635583639145,0.38322287797927856,0.007214018609374762,-10.253935813903809
1745726713.8995488,0.06058808043599129,-0.004252319689840078,-0.1032806858420372,0.34835007786750793,-0.23365657031536102,-9.72479248046875
1745726713.900277,0.03471701592206955,-0.016198409721255302,-0.0999431237578392,0.6309065818786621,-0.4497520923614502,-9.314643859863281
1745726713.9432533,0.027490850538015366,-0.016957787796854973,-0.09876254945993423,0.49112749099731445,-0.2874888479709625,-9.959685325622559
1745726713.943385,0.008858267217874527,-0.01293095014989376,-0.09792067110538483,0.6016727685928345,-0.45235389471054077,-10.31952953338623
1745726713.9434557,0.004413539078086615,-0.018734171986579895,-0.09796983748674393,0.4621807038784027,-0.06609740108251572,-9.656351089477539
1745726713.9456825,-0.00691541563719511,-0.013877677731215954,-0.10350330919027328,0.30445200204849243,-0.14428925514221191,-9.359167098999023
1745726713.982797,-0.014720045030117035,-0.02744300663471222,-0.10236756503582001,0.4312305450439453,0.09981586039066315,-9.748455047607422
1745726713.9845922,0.00804061908274889,-0.018704095855355263,-0.1037478819489479,0.2865954041481018,0.23913177847862244,-10.197114944458008
1745726713.987478,0.013235623016953468,-0.014903348870575428,-0.10588382184505463,0.3899262249469757,0.14077404141426086,-9.805601119995117
1745726713.9887733,0.03461908921599388,-0.024409035220742226,-0.10678718984127045,0.2831957936286926,0.2848006784915924,-9.354778289794922
1745726713.9906254,0.046406447887420654,-0.02074810303747654,-0.10703396797180176,0.511561930179596,0.12730835378170013,-9.684623718261719
1745726714.0248725,0.052977554500103,-0.016812752932310104,-0.10601016134023666,0.5559986233711243,0.2016962468624115,-10.104812622070312
1745726714.0326838,0.06870855391025543,-0.017298009246587753,-0.10259824991226196,0.547305703163147,-0.010649547912180424,-9.842409133911133
1745726714.0328445,0.06536201387643814,-0.023416489362716675,-0.1012863740324974,0.5896347761154175,-0.06723611801862717,-9.578402519226074
1745726714.0329182,0.07197070121765137,-0.017439935356378555,-0.10334131866693497,0.3343089818954468,0.016511166468262672,-9.721521377563477
1745726714.068427,0.050728678703308105,-0.021764429286122322,-0.10434863716363907,0.5853522419929504,-0.17095012962818146,-10.014226913452148
1745726714.0690565,0.06607894599437714,-0.027710074558854103,-0.10912294685840607,0.6746796369552612,0.2082350254058838,-9.849924087524414
1745726714.071046,0.05464179441332817,-0.02349134348332882,-0.11197743564844131,0.5726988911628723,-0.06256581842899323,-9.865944862365723
1745726714.0737143,0.05264977365732193,-0.022713854908943176,-0.1376061737537384,0.5569583773612976,-0.1641397923231125,-10.012529373168945
1745726714.1122115,0.05218719318509102,-0.009178166277706623,-0.1337299793958664,0.7223955988883972,-0.37997084856033325,-10.485879898071289
1745726714.1265953,0.06559018790721893,-0.005795407108962536,-0.13616767525672913,0.4026547372341156,0.2351425588130951,-9.58453369140625
1745726714.1287498,0.07837869971990585,-0.00944669358432293,-0.13601216673851013,0.4872603416442871,0.013472864404320717,-9.174705505371094
1745726714.1318817,0.09017044305801392,-0.023468170315027237,-0.1401146948337555,0.572726845741272,0.43414878845214844,-9.808233261108398
1745726714.1531663,0.11479802429676056,-0.0037979637272655964,-0.142678901553154,0.2789735198020935,0.1743077039718628,-10.50908374786377
1745726714.1541805,0.13418075442314148,-0.0045692576095461845,-0.1492060422897339,0.5179619789123535,0.1760663241147995,-9.587919235229492
1745726714.1563435,0.12966100871562958,-0.019023310393095016,-0.14798450469970703,0.2761302590370178,-0.06574038416147232,-9.269160270690918
1745726714.160072,0.13372988998889923,-0.012899982742965221,-0.1518319547176361,0.662943959236145,-0.43231526017189026,-9.941374778747559
1745726714.161266,0.11819811165332794,-0.012736598961055279,-0.1505376100540161,0.6341160535812378,-0.2154744565486908,-10.290098190307617
1745726714.1981235,0.11279328167438507,-0.0051376475021243095,-0.1518506556749344,0.5391924977302551,-0.6620378494262695,-9.77601432800293
1745726714.200757,0.08488505333662033,-0.01767677441239357,-0.15275433659553528,0.7593472599983215,-0.3661987781524658,-9.243227005004883
1745726714.2018373,0.08755548298358917,-0.011017031967639923,-0.1524750143289566,0.4393033981323242,-0.41354718804359436,-10.012855529785156
1745726714.2076876,0.06617959588766098,-0.00981112290173769,-0.15766827762126923,0.4775570034980774,-0.24857041239738464,-10.14928913116455
1745726714.2401779,0.07739927619695663,-0.007555095013231039,-0.15805648267269135,0.3434472680091858,-0.11554597318172455,-9.562849044799805
1745726714.2438967,0.08051421493291855,-0.005391822662204504,-0.15970176458358765,0.3558880388736725,-0.08592001348733902,-9.377131462097168
1745726714.2472482,0.10437805950641632,-0.00013084188685752451,-0.18018966913223267,0.2458711862564087,-0.17069372534751892,-9.720949172973633
1745726714.2503138,0.1053272932767868,-0.0067835608497262,-0.1821088045835495,0.47023677825927734,-0.3561182916164398,-9.713834762573242
1745726714.252317,0.10042227804660797,-0.005316900555044413,-0.18335041403770447,0.3989602029323578,-0.24020366370677948,-9.841615676879883
1745726714.2881255,0.10964928567409515,0.0070838117972016335,-0.18289193511009216,0.4030655026435852,-0.5322966575622559,-9.813993453979492
1745726714.2882326,0.08071496337652206,-0.006568020675331354,-0.18402500450611115,0.5233607888221741,-0.383670836687088,-9.53968620300293
1745726714.291339,0.09148559719324112,-0.0034056087024509907,-0.18449543416500092,0.5346696972846985,-0.5788108706474304,-9.797879219055176
1745726714.2922008,0.061187706887722015,-0.006027970928698778,-0.18375182151794434,0.6041138172149658,-0.4885029196739197,-10.059617042541504
1745726714.3287888,0.07728524506092072,-0.004739594645798206,-0.18417994678020477,0.46849045157432556,-0.44103294610977173,-9.851603507995605
1745726714.3360286,0.0648055374622345,-0.0038903977256268263,-0.18470364809036255,0.514325737953186,-0.4875358045101166,-9.516722679138184
1745726714.3364167,0.06399603933095932,-0.009545128792524338,-0.18354462087154388,0.38747867941856384,-0.15053792297840118,-9.615798950195312
1745726714.3364656,0.07182623445987701,-0.0020017907954752445,-0.18549148738384247,0.3659883439540863,-0.30866092443466187,-9.8877592086792
1745726714.3387198,0.0753876343369484,-0.004605288617312908,-0.18535847961902618,0.4099515378475189,-0.13727349042892456,-9.735038757324219
1745726714.369949,0.09805668890476227,0.0012527721701189876,-0.18921616673469543,0.31818482279777527,-0.15480804443359375,-9.607572555541992
1745726714.3704965,0.07902032136917114,-0.004826996009796858,-0.19007159769535065,0.5152960419654846,-0.4073660969734192,-9.739014625549316
1745726714.3733213,0.10468924045562744,-0.004877905827015638,-0.18969665467739105,0.40697675943374634,-0.3271391987800598,-9.879217147827148
1745726714.3748677,0.07661139219999313,0.0006035131518729031,-0.18884378671646118,0.5446178913116455,-0.6736547350883484,-9.803991317749023
1745726714.412836,0.08200546354055405,-0.0063710324466228485,-0.18726202845573425,0.4993039071559906,-0.553369402885437,-9.578813552856445
1745726714.4143808,0.06568717956542969,0.0015179456677287817,-0.18598012626171112,0.43900832533836365,-0.6224430799484253,-9.680670738220215
1745726714.418094,0.051155589520931244,-0.00736970966681838,-0.18701955676078796,0.5812569260597229,-0.5090583562850952,-9.909321784973145
1745726714.4204917,0.0611504502594471,0.0013187133008614182,-0.19289714097976685,0.35890084505081177,-0.27773553133010864,-9.894862174987793
1745726714.454224,0.027603749185800552,0.004616566933691502,-0.2371896505355835,0.8328598141670227,-0.8206185102462769,-9.91198444366455
1745726714.456123,0.045661889016628265,0.01449333131313324,-0.2358519732952118,0.5509526133537292,-0.5352753400802612,-10.135748863220215
1745726714.4585311,0.03541964665055275,0.025661995634436607,-0.23426350951194763,0.6888694763183594,-0.5048849582672119,-9.592912673950195
1745726714.4599168,0.05200619623064995,0.011536665260791779,-0.23487809300422668,0.5275996923446655,-0.0853046327829361,-9.379179954528809
1745726714.4985604,0.06673595309257507,0.011293726973235607,-0.24047081172466278,0.664253830909729,-0.18420317769050598,-9.952406883239746
1745726714.5013857,0.08664705604314804,0.017388928681612015,-0.2482132464647293,0.5712718367576599,0.16717080771923065,-10.102972984313965
1745726714.5027766,0.10066761821508408,0.023154962807893753,-0.25393015146255493,0.43310126662254333,-0.29534900188446045,-9.667234420776367
1745726714.5047748,0.0846841111779213,0.008681191131472588,-0.25388556718826294,0.7291627526283264,-0.5838454961776733,-9.32267951965332
1745726714.505939,0.08621008694171906,0.010278083384037018,-0.25668397545814514,0.6946738362312317,-0.6275564432144165,-9.934745788574219
1745726714.5406835,0.07697974890470505,0.022891562432050705,-0.25309324264526367,0.807115375995636,-0.7978078126907349,-10.25196647644043
1745726714.5427618,0.06873760372400284,0.017329905182123184,-0.25816604495048523,0.6060484647750854,-0.4874486029148102,-9.473007202148438
1745726714.5454617,0.054670799523591995,0.01394608337432146,-0.2575545907020569,0.8929611444473267,-0.7635720372200012,-9.299016952514648
1745726714.547507,0.048573315143585205,0.009966310113668442,-0.2627299427986145,0.7432578206062317,-0.394098162651062,-10.026884078979492
1745726714.58446,0.06445211172103882,0.018580248579382896,-0.2636417746543884,0.411568820476532,-0.4602632522583008,-10.346223831176758
1745726714.5860393,0.058908671140670776,0.022003598511219025,-0.26753807067871094,0.5535171031951904,-0.4938965439796448,-9.330450057983398
1745726714.588153,0.06259001791477203,0.022855587303638458,-0.26778340339660645,0.3969186246395111,-0.3261856436729431,-9.122563362121582
1745726714.5908856,0.041232235729694366,0.005132769700139761,-0.29935285449028015,0.5411249399185181,-0.5533949136734009,-9.748761177062988
1745726714.5951324,0.03393017128109932,-0.008163323625922203,-0.2972959876060486,0.6473329663276672,-0.4300154745578766,-9.799789428710938
1745726714.6285274,0.0448230504989624,-0.0007830437389202416,-0.2960420250892639,0.4860681891441345,-0.781511664390564,-9.906292915344238
1745726714.630556,0.03545729070901871,-0.0025402335450053215,-0.2941092252731323,0.6806379556655884,-0.652912974357605,-9.688923835754395
1745726714.6360528,0.035968929529190063,-0.006666184868663549,-0.292921781539917,0.48046374320983887,-0.36310070753097534,-9.705649375915527
1745726714.637255,0.02949107624590397,-0.006563811097294092,-0.29801732301712036,0.6421104669570923,-0.6462458372116089,-9.773287773132324
1745726714.6693685,0.034270428121089935,-0.012025371193885803,-0.3023717999458313,0.6847025752067566,-0.42645710706710815,-9.761364936828613
1745726714.6709194,0.028272394090890884,-0.010146459564566612,-0.30387431383132935,0.5672637224197388,-0.6232004761695862,-9.808601379394531
1745726714.6728091,0.01370655931532383,-0.015177401714026928,-0.3009096086025238,0.6254029273986816,-0.7022953629493713,-9.843289375305176
1745726714.6754005,0.031998734921216965,-0.008773529902100563,-0.302459180355072,0.36883842945098877,-0.5792991518974304,-9.650322914123535
1745726714.677355,0.00365365925244987,-0.014808776788413525,-0.2961151897907257,0.7278853058815002,-0.8536402583122253,-9.546813011169434
1745726714.7155302,0.02654990926384926,-0.013039710000157356,-0.29886549711227417,0.5335263013839722,-0.3433810770511627,-9.788479804992676
1745726714.7165794,0.014433719217777252,-0.012719091959297657,-0.299954354763031,0.6023449897766113,-0.6303725242614746,-10.003172874450684
1745726714.7188535,0.03017185628414154,-0.01740117371082306,-0.30191320180892944,0.5508304834365845,-0.31265026330947876,-9.594151496887207
1745726714.7211707,0.027701130136847496,-0.015191441401839256,-0.3028797209262848,0.5075830221176147,-0.6514068841934204,-9.580106735229492
1745726714.7565665,0.02199895679950714,-0.022008489817380905,-0.3021737039089203,0.6949989199638367,-0.6472465395927429,-9.887876510620117
1745726714.7585611,0.027929559350013733,-0.016098618507385254,-0.3016381859779358,0.4107198119163513,-0.4495658278465271,-9.980064392089844
1745726714.7607567,0.006933579687029123,-0.019830113276839256,-0.30213144421577454,0.663964569568634,-0.841396689414978,-9.612728118896484
1745726714.7618332,0.027994055300951004,-0.023053690791130066,-0.3007337152957916,0.5191376209259033,-0.4096652865409851,-9.412312507629395
1745726714.797611,-0.00011510755575727671,-0.02153470553457737,-0.30323198437690735,0.7469456791877747,-0.6742547750473022,-10.011062622070312
1745726714.8014183,-0.007183593697845936,-0.033569566905498505,-0.30356425046920776,0.6426509022712708,-0.8329398036003113,-9.887002944946289
1745726714.8039272,0.019629813730716705,-0.03351768106222153,-0.3038729131221771,0.5037534832954407,-0.1896308958530426,-9.997967720031738
1745726714.8056903,0.005532854702323675,-0.026034262031316757,-0.30578601360321045,0.4890509247779846,-0.6019757390022278,-9.730674743652344
1745726714.8421123,0.021598923951387405,-0.03134707361459732,-0.3060879409313202,0.5233036279678345,-0.41826730966567993,-9.440874099731445
1745726714.8439987,0.018420401960611343,-0.036744195967912674,-0.30521541833877563,0.3676510155200958,-0.5710461735725403,-9.831252098083496
1745726714.8478892,0.017849121242761612,-0.03137574717402458,-0.30212509632110596,0.640804648399353,-0.7002958059310913,-10.039772033691406
1745726714.8557258,0.02890666201710701,-0.02869930863380432,-0.30227160453796387,0.35875579714775085,-0.41368475556373596,-9.688335418701172
1745726714.8593283,0.012547006830573082,-0.03270011767745018,-0.3018793761730194,0.5889579653739929,-0.7943960428237915,-9.486241340637207
1745726714.8865535,0.018442537635564804,-0.04069214314222336,-0.299260675907135,0.5620949268341064,-0.38807445764541626,-9.75870132446289
1745726714.889525,0.009841646999120712,-0.03371286392211914,-0.30278435349464417,0.5578656196594238,-0.8213483691215515,-10.195211410522461
1745726714.8897858,0.013971513137221336,-0.035055942833423615,-0.3028070330619812,0.5720829963684082,-0.5016643404960632,-9.75468921661377
1745726714.8908668,0.0012297033099457622,-0.03888922184705734,-0.29999464750289917,0.34798064827919006,-0.7379006743431091,-9.51183795928955
1745726714.9390242,0.0037826504558324814,-0.03938409686088562,-0.2968985438346863,0.5619699954986572,-0.7180744409561157,-9.653207778930664
1745726714.9391391,-0.0011591349029913545,-0.036960192024707794,-0.2987876832485199,0.4200560450553894,-0.3949804902076721,-9.986926078796387
1745726714.9392376,0.011212488636374474,-0.03378109261393547,-0.29771241545677185,0.5565019845962524,-0.6999743580818176,-9.892081260681152
1745726714.939302,0.013511741533875465,-0.040352120995521545,-0.3000164031982422,0.4281140863895416,-0.15628691017627716,-9.448909759521484
1745726714.9393702,-0.0039433971978724,-0.0242459736764431,-0.29991665482521057,0.6252133250236511,-0.7039040327072144,-9.741273880004883
1745726714.9719303,-0.009290601126849651,-0.02883000299334526,-0.30061689019203186,0.6988905668258667,-0.3916507363319397,-9.923540115356445
1745726714.9757028,0.01169054675847292,-0.015919296070933342,-0.30813124775886536,0.5689937472343445,-0.46970564126968384,-9.8921537399292
1745726714.9786785,0.004115690477192402,-0.027373546734452248,-0.3104293644428253,1.0176714658737183,-0.47240781784057617,-9.465861320495605
1745726714.9823477,0.026249170303344727,-0.020811274647712708,-0.3106597661972046,0.7681277990341187,-0.5095097422599792,-9.841737747192383
1745726715.0144885,0.01453560870140791,-0.021423842757940292,-0.30658406019210815,0.7852921485900879,-0.8134775161743164,-10.196638107299805
1745726715.0248396,0.029665276408195496,-0.018234988674521446,-0.3071497082710266,0.4600449502468109,-0.4442574381828308,-9.803999900817871
1745726715.024923,0.027974406257271767,-0.009114847518503666,-0.30816665291786194,0.4802930951118469,-0.7596386075019836,-9.351387977600098
1745726715.024991,0.02309451811015606,-0.017983201891183853,-0.3125038743019104,0.55694580078125,-0.25122061371803284,-9.512506484985352
1745726715.0250406,0.03773757815361023,-0.007842127233743668,-0.3227165639400482,0.5162056684494019,-0.30354538559913635,-10.092928886413574
1745726715.0584939,0.01969512365758419,-0.010377539321780205,-0.32869070768356323,0.7775363922119141,-0.5667415857315063,-9.918131828308105
1745726715.0687895,0.03730861097574234,-0.005316229537129402,-0.32874390482902527,0.5320927500724792,-0.6820357441902161,-9.514188766479492
1745726715.0689116,0.005603882484138012,-0.008066767826676369,-0.3275374472141266,0.7224761247634888,-1.006901502609253,-9.713776588439941
1745726715.0689774,0.018411999568343163,-0.0025926355738192797,-0.32523027062416077,0.6462366580963135,-0.6411150097846985,-9.971094131469727
1745726715.1010547,0.00918323453515768,0.006832231767475605,-0.32363441586494446,0.6824276447296143,-0.6840201616287231,-9.86192798614502
1745726715.1053412,0.017399853095412254,-0.005269614513963461,-0.3232434391975403,0.7404839396476746,-0.3045216202735901,-9.475343704223633
1745726715.1079311,0.030105922371149063,0.0007188215968199074,-0.3286552429199219,0.505946934223175,-0.26356202363967896,-9.7330961227417
1745726715.1099641,0.03221593797206879,-0.0012132989941164851,-0.3321637511253357,0.608538806438446,-0.3910544514656067,-10.072319030761719
1745726715.1422446,0.06415780633687973,0.007303094025701284,-0.3381815552711487,0.39454683661460876,-0.18289870023727417,-9.74022102355957
1745726715.144655,0.03721644729375839,0.0064605302177369595,-0.3383486866950989,0.5741816759109497,-0.7038410902023315,-9.47627067565918
1745726715.1469562,0.06128023937344551,-0.0005876864888705313,-0.34014371037483215,0.6720739006996155,-0.5846608877182007,-9.77123737335205
1745726715.1503758,0.02358962781727314,0.005178277846425772,-0.3486349284648895,0.7897085547447205,-0.49713635444641113,-9.926752090454102
1745726715.1857855,0.055506616830825806,0.01381094753742218,-0.3513704538345337,0.6385160088539124,-0.5551645159721375,-9.912945747375488
1745726715.1878939,0.03238292783498764,0.008604402653872967,-0.3506079614162445,0.766767680644989,-0.6321285963058472,-9.634567260742188
1745726715.1906576,0.05758232995867729,0.006629894487559795,-0.3478222191333771,0.5891308784484863,-0.5884181261062622,-9.55853271484375
1745726715.1924467,0.04173268377780914,0.015162123367190361,-0.3491535484790802,0.6506830453872681,-0.6961821913719177,-9.776365280151367
1745726715.195263,0.0477290116250515,0.00624427804723382,-0.3484271764755249,0.6082780957221985,-0.5315532684326172,-9.783318519592285
1745726715.2333055,0.0477127842605114,0.0166181530803442,-0.35075491666793823,0.5629943609237671,-0.622036337852478,-9.776171684265137
1745726715.2337651,0.04148080199956894,0.008400454185903072,-0.3557027280330658,0.6756887435913086,-0.4989176392555237,-9.700735092163086
1745726715.2357533,0.04959063231945038,0.00573750352486968,-0.3564997911453247,0.5981786847114563,-0.5915722250938416,-9.843789100646973
1745726715.239399,0.022206204012036324,0.006450742483139038,-0.3570519983768463,0.7328490614891052,-0.8805907964706421,-9.881570816040039
1745726715.271268,0.043699659407138824,0.005004578735679388,-0.3551449775695801,0.5333907008171082,-0.657212495803833,-9.706583023071289
1745726715.2729743,0.03186144679784775,0.009489490650594234,-0.3505252003669739,0.5214124917984009,-0.8769742846488953,-9.584168434143066
1745726715.2761047,0.036391641944646835,0.0028814177494496107,-0.3473791778087616,0.41948285698890686,-0.553061306476593,-9.570615768432617
1745726715.2785378,0.034956444054841995,-0.0019721738062798977,-0.34220385551452637,0.48460277915000916,-0.8994789123535156,-9.806363105773926
1745726715.279536,0.018017664551734924,0.003398631466552615,-0.33850210905075073,0.05619446188211441,-0.570633053779602,-10.033025741577148
1745726715.3174314,-0.01084127463400364,-0.04657929018139839,-0.2935096323490143,0.6274956464767456,-0.5220363140106201,-9.450678825378418
1745726715.3198977,-0.0008613940444774926,-0.04519680514931679,-0.2942214906215668,0.44255638122558594,-0.30615583062171936,-10.141897201538086
1745726715.323492,0.006918610539287329,-0.03114890493452549,-0.29290205240249634,0.34190255403518677,-0.8636085391044617,-10.22634506225586
1745726715.3252344,0.008017065934836864,-0.04284769296646118,-0.2872178852558136,0.39565667510032654,-0.46576887369155884,-9.238696098327637
1745726715.3617542,0.005881034303456545,-0.041132938116788864,-0.2835100293159485,0.39559653401374817,-0.7477880716323853,-9.418161392211914
1745726715.3629448,0.01868632808327675,-0.04261346906423569,-0.2829206585884094,0.5157239437103271,-0.5194873809814453,-10.125343322753906
1745726715.3647673,0.011244508437812328,-0.03817734867334366,-0.2828802168369293,0.38943323493003845,-0.37245824933052063,-10.136797904968262
1745726715.3659804,0.012061652727425098,-0.03869092836976051,-0.286124587059021,0.4645882248878479,-0.7878636121749878,-9.56796932220459
1745726715.4027143,0.020247234031558037,-0.04522944614291191,-0.2869100272655487,0.2498636245727539,-0.45153504610061646,-9.427652359008789
1745726715.4063437,-0.007410257123410702,-0.04137631505727768,-0.2847602367401123,0.4452892243862152,-1.0014923810958862,-9.979452133178711
1745726715.4086325,-0.007997306063771248,-0.03895734250545502,-0.2813611328601837,0.38120037317276,-0.738330066204071,-10.007960319519043
1745726715.412255,-0.012354372069239616,-0.03603352606296539,-0.27877408266067505,0.3205752968788147,-0.8416246175765991,-9.559778213500977
1745726715.4144824,-0.0271849874407053,-0.040055595338344574,-0.27681076526641846,0.5217425227165222,-0.6254526972770691,-9.471132278442383
1745726715.4469323,-0.012335596606135368,-0.04226147383451462,-0.27699118852615356,0.2506135106086731,-0.48317527770996094,-10.024770736694336
1745726715.4506109,-0.011598051525652409,-0.036584191024303436,-0.27480369806289673,0.5685710310935974,-0.6121429800987244,-10.04741382598877
1745726715.4542215,-0.005619822535663843,-0.03835698962211609,-0.2752351760864258,0.296895831823349,-0.2763506770133972,-9.697955131530762
1745726715.4563162,-0.0037519424222409725,-0.041884008795022964,-0.27213653922080994,0.24286815524101257,-0.826659083366394,-9.636143684387207
1745726715.4902463,0.003088301047682762,-0.04074617475271225,-0.2693079113960266,0.39333266019821167,-0.35348039865493774,-9.65052318572998
1745726715.4914086,0.0015138534363359213,-0.02957776188850403,-0.27282604575157166,0.33470067381858826,-0.6135581135749817,-9.949487686157227
1745726715.494132,0.0062131211161613464,-0.038809776306152344,-0.2689717710018158,0.4825712740421295,-0.6353024840354919,-9.81889533996582
1745726715.4963145,0.0028536480385810137,-0.04204128682613373,-0.27140527963638306,0.4357052743434906,-0.38052496314048767,-9.768058776855469
1745726715.5311677,0.00141874176915735,-0.03151826560497284,-0.26565468311309814,0.528304934501648,-0.8724029660224915,-9.891218185424805
1745726715.533321,-0.005304004997014999,-0.028828930109739304,-0.2611727714538574,0.3781586289405823,-0.7343250513076782,-9.923553466796875
1745726715.5358548,-0.008545666933059692,-0.03778841346502304,-0.2573438286781311,0.30066531896591187,-0.5312119722366333,-9.785670280456543
1745726715.5377717,-0.001743451924994588,-0.029591936618089676,-0.2570035457611084,0.3899620473384857,-0.9160669445991516,-9.69731330871582
1745726715.5399153,-0.019668657332658768,-0.02794264629483223,-0.2524002194404602,0.3244538903236389,-0.4926891326904297,-9.730754852294922
1745726715.5736258,-0.01536177285015583,-0.03043634258210659,-0.25418704748153687,0.2870911955833435,-0.7208492755889893,-9.906744003295898
1745726715.5753927,-0.014652553014457226,-0.029071897268295288,-0.250977098941803,0.5593104362487793,-0.5129708051681519,-9.73831844329834
1745726715.5764954,-0.02227061241865158,-0.02897970750927925,-0.2530187666416168,0.2602497339248657,-0.40608978271484375,-9.865747451782227
1745726715.5794363,-0.006158452481031418,-0.027435487136244774,-0.2532718777656555,0.3425235450267792,-0.6743890047073364,-9.914506912231445
1745726715.6159227,-0.012480811215937138,-0.03376272693276405,-0.2503514885902405,0.314348042011261,-0.3662058711051941,-9.6557035446167
1745726715.6203742,-0.0075120823457837105,-0.01611771062016487,-0.25001460313796997,0.34238195419311523,-0.7711469531059265,-9.749519348144531
1745726715.6225567,-0.013837354257702827,-0.032301224768161774,-0.2463345229625702,0.3406735360622406,-0.4351789355278015,-9.844537734985352
1745726715.624438,0.0005582051235251129,-0.026900123804807663,-0.24572935700416565,0.3113044202327728,-0.6215301752090454,-9.914715766906738
1745726715.6251953,-0.004795052111148834,-0.019969375804066658,-0.2464626133441925,0.4294663369655609,-0.5051887631416321,-9.73729419708252
1745726715.6606498,-0.0009896541014313698,-0.02703162096440792,-0.24602949619293213,0.2242765873670578,-0.5167272686958313,-9.744245529174805
1745726715.6644452,-0.010954953730106354,0.0008997973054647446,-0.23470854759216309,0.3989074230194092,-0.6522263884544373,-9.729522705078125
1745726715.6669025,-0.009877802804112434,-0.0019051556009799242,-0.2335367649793625,0.40500393509864807,-0.3961239457130432,-9.858838081359863
1745726715.6695507,-0.003215367440134287,0.001967925811186433,-0.23470106720924377,0.2878478169441223,-0.5056559443473816,-9.89323902130127
1745726715.704367,-0.01601213775575161,-0.002573123201727867,-0.23293526470661163,0.42776602506637573,-0.6034232378005981,-9.665178298950195
1745726715.7064812,0.004292572382837534,0.0005072241765446961,-0.23352284729480743,0.27729883790016174,-0.4151315689086914,-9.602561950683594
1745726715.7090197,-0.01716773584485054,0.0020771182607859373,-0.23383399844169617,0.4843813478946686,-0.6825095415115356,-9.853004455566406
1745726715.710409,-0.003474319353699684,-0.0006045788759365678,-0.23318295180797577,0.3507242798805237,-0.4730913043022156,-9.88257884979248
1745726715.7464824,-0.012586163356900215,0.004655006341636181,-0.234126478433609,0.418475866317749,-0.6720961332321167,-9.612780570983887
1745726715.7490683,-0.027384376153349876,0.0013337325071915984,-0.23299071192741394,0.4720563292503357,-0.4920784533023834,-9.655875205993652
1745726715.7501502,-0.008322963491082191,0.001942959032021463,-0.2333497554063797,0.28761783242225647,-0.5813260078430176,-9.909650802612305
1745726715.7522542,-0.025843333452939987,-0.00045894552022218704,-0.232545405626297,0.5039575695991516,-0.46403735876083374,-9.7929048538208
1745726715.7874398,-0.00853688269853592,0.007568127475678921,-0.23414835333824158,0.3244513273239136,-0.33770138025283813,-9.679251670837402
1745726715.7896616,-0.021526236087083817,0.0019518726039677858,-0.23574145138263702,0.43152451515197754,-0.5836845636367798,-9.672201156616211
1745726715.792548,-0.0075156958773732185,-0.0024990462698042393,-0.2328081578016281,0.3819703459739685,-0.30597156286239624,-9.713201522827148
1745726715.7945433,-0.011292817071080208,0.007177805062383413,-0.2328210175037384,0.41196566820144653,-0.6721841096878052,-9.856341361999512
1745726715.7965934,-0.006519110407680273,0.003101925365626812,-0.23194289207458496,0.35433071851730347,-0.4515467584133148,-9.762455940246582
1745726715.8344646,-0.000833485450129956,0.004006725735962391,-0.2335393875837326,0.3509097695350647,-0.46100467443466187,-9.65131950378418
1745726715.8388193,-0.023569071665406227,-0.00036321155494078994,-0.23346896469593048,0.6078945398330688,-0.5934742093086243,-9.745809555053711
1745726715.8428621,0.00027601010515354574,0.0030152981635183096,-0.23488974571228027,0.4071168005466461,-0.3771630823612213,-9.884401321411133
1745726715.8441265,-0.018234360963106155,0.010307608172297478,-0.23838374018669128,0.5621393918991089,-0.5867025852203369,-9.703577041625977
1745726715.8741462,-0.009458668529987335,-0.0014180549187585711,-0.24075081944465637,0.7150747179985046,-0.39902767539024353,-9.56254768371582
1745726715.8783426,-0.028915252536535263,-0.0005904543213546276,-0.2520686984062195,0.6141303777694702,-0.5556095838546753,-9.788187026977539
1745726715.879424,-0.0021902304142713547,0.012321598827838898,-0.24904362857341766,0.49254560470581055,-0.6919628381729126,-10.078686714172363
1745726715.8823473,-0.013750189915299416,0.017026636749505997,-0.2503536343574524,0.5504079461097717,-0.46353015303611755,-9.615034103393555
1745726715.9203408,-0.007259099744260311,0.0062016574665904045,-0.25142982602119446,0.4619658887386322,-0.3067115843296051,-9.435663223266602
1745726715.9237614,-0.011503729037940502,0.00776569452136755,-0.2559238374233246,0.6057646870613098,-0.43960604071617126,-9.891843795776367
1745726715.926099,0.0009160650079138577,0.011086367070674896,-0.2576872706413269,0.40001410245895386,-0.1879492849111557,-10.024484634399414
1745726715.9288976,0.014383655972778797,0.014553126879036427,-0.2578917443752289,0.3492811620235443,-0.5195310711860657,-9.647141456604004
1745726715.9310513,0.0022008116357028484,0.009814923629164696,-0.26096799969673157,0.565026044845581,-0.4597528874874115,-9.350279808044434
1745726715.9630222,0.008442454040050507,0.007489404175430536,-0.26167353987693787,0.48557838797569275,-0.50444096326828,-9.841925621032715
1745726715.9660876,-0.007738398853689432,0.013479271903634071,-0.259906530380249,0.6235606074333191,-0.5828874111175537,-10.046706199645996
1745726715.9696918,0.011351684108376503,0.01387847401201725,-0.2621513307094574,0.5690142512321472,-0.47931575775146484,-9.61925220489502
1745726715.9769127,0.0034014484845101833,0.011207560077309608,-0.2620171308517456,0.7286699414253235,-0.6757742762565613,-9.569124221801758
1745726716.0048969,0.0017958041280508041,0.0021471623331308365,-0.26191431283950806,0.6101381182670593,-0.25764065980911255,-9.911032676696777
1745726716.0092032,0.0052541708573699,0.011497107334434986,-0.26363813877105713,0.46442070603370667,-0.690261960029602,-10.023918151855469
1745726716.0102046,0.0042486111633479595,0.014216659590601921,-0.26396140456199646,0.5592923164367676,-0.37777820229530334,-9.440808296203613
1745726716.011243,0.021453460678458214,-0.030167346820235252,-0.24851255118846893,0.429234117269516,-0.5621584057807922,-9.80357837677002
1745726716.0487335,0.026819279417395592,-0.01779978722333908,-0.2472997009754181,0.1846531629562378,-0.4651886820793152,-10.21577262878418
1745726716.0491216,-0.00015955456183291972,-0.01597670279443264,-0.24541743099689484,0.43592214584350586,-1.0157396793365479,-9.741125106811523
1745726716.0502164,-0.012967321090400219,-0.028326069936156273,-0.24139204621315002,0.46611809730529785,-0.7496308088302612,-9.22365665435791
1745726716.0522041,-0.030538266524672508,-0.02897440269589424,-0.23474307358264923,0.5133683085441589,-0.99114590883255,-9.900659561157227
1745726716.0551133,-0.025802770629525185,-0.023354945704340935,-0.23158875107765198,0.4215846061706543,-0.38440415263175964,-10.256385803222656
1745726716.0914674,-0.031285133212804794,-0.021204769611358643,-0.23140978813171387,0.1301831305027008,-0.5096403360366821,-9.773950576782227
1745726716.093284,-0.021317776292562485,-0.031207626685500145,-0.22932776808738708,0.3929193317890167,-0.32452696561813354,-9.241717338562012
1745726716.094778,-0.015131784602999687,-0.032740261405706406,-0.23385798931121826,0.1046098843216896,-0.02681068703532219,-9.796449661254883
1745726716.0958755,-0.005679165478795767,-0.029545512050390244,-0.2336888313293457,0.2411506175994873,-0.5321792364120483,-10.285316467285156
1745726716.1430786,0.0029599391855299473,-0.02996007725596428,-0.23321695625782013,0.25363442301750183,-0.130125030875206,-9.559534072875977
1745726716.1445332,0.005892415065318346,-0.02779581770300865,-0.23266954720020294,0.4068881869316101,-0.6913261413574219,-9.38351058959961
1745726716.1472006,-0.005753905978053808,-0.039944250136613846,-0.22930839657783508,0.5342969298362732,-0.3796370029449463,-9.881513595581055
1745726716.1518464,0.0027487757615745068,-0.0291177686303854,-0.22671756148338318,0.49299487471580505,-0.6957259178161621,-10.303239822387695
1745726716.156152,-0.009400838054716587,-0.03423117473721504,-0.22530421614646912,0.5184029340744019,-0.5944951772689819,-9.701406478881836
1745726716.1784964,-0.011782984249293804,-0.03752245381474495,-0.22302591800689697,0.22088582813739777,-0.43166881799697876,-9.443082809448242
1745726716.1820986,-0.017402078956365585,-0.04008878394961357,-0.22322583198547363,0.31444472074508667,-0.5704134702682495,-9.794561386108398
1745726716.1849186,-0.009969699196517467,-0.03651877120137215,-0.22391977906227112,0.22563257813453674,-0.16405898332595825,-9.962638854980469
1745726716.1915205,-0.01105581410229206,-0.026304280385375023,-0.2253008782863617,0.19136281311511993,-0.46825799345970154,-9.766181945800781
1745726716.2282286,-0.011296715587377548,-0.04293978959321976,-0.22605517506599426,0.2848987579345703,-0.32186704874038696,-9.475503921508789
1745726716.2296515,0.006225279066711664,-0.031249534338712692,-0.2244766652584076,0.26281750202178955,-0.501443088054657,-9.846040725708008
1745726716.2346003,-0.0060632964596152306,-0.03626490756869316,-0.21636660397052765,0.2700084149837494,-0.362865686416626,-9.851686477661133
1745726716.2346475,-0.014370034448802471,-0.02531459927558899,-0.21277323365211487,0.3170011639595032,-0.4630575180053711,-9.889616966247559
1745726716.2633307,-0.006004987750202417,-0.04074820876121521,-0.21005098521709442,0.30226001143455505,-0.3219221830368042,-9.703929901123047
1745726716.2655842,0.010702336207032204,-0.030722156167030334,-0.2087327241897583,0.30839771032333374,-0.3485471308231354,-9.781139373779297
1745726716.267687,0.0033962461166083813,-0.03585890680551529,-0.20721535384655,0.31049051880836487,-0.38322901725769043,-9.905293464660645
1745726716.2705178,0.020319052040576935,-0.03446873649954796,-0.20844054222106934,0.13245487213134766,-0.4175179898738861,-9.915182113647461
1745726716.275031,0.0004344091867096722,-0.029985696077346802,-0.20732513070106506,0.31014513969421387,-0.5225980877876282,-9.684008598327637
1745726716.3073707,0.004971527960151434,-0.033154044300317764,-0.2079819142818451,0.1545245498418808,-0.45265644788742065,-9.669744491577148
1745726716.307415,-0.008157874457538128,-0.030321797356009483,-0.20651546120643616,0.3594870865345001,-0.6781525015830994,-9.810750007629395
1745726716.310666,-0.013639101758599281,-0.031374432146549225,-0.20662443339824677,0.34754037857055664,-0.48651033639907837,-9.889603614807129
1745726716.313348,-0.011696538887917995,-0.023981131613254547,-0.2045753449201584,0.21798431873321533,-0.617741048336029,-9.831456184387207
1745726716.3505905,-0.03376254439353943,-0.03022567369043827,-0.2012511044740677,0.39680710434913635,-0.5542135834693909,-9.697606086730957
1745726716.3519893,-0.008959421887993813,-0.025669684633612633,-0.20214121043682098,0.22074644267559052,-0.3938967287540436,-9.796059608459473
1745726716.354321,-0.028774265199899673,-0.02564970590174198,-0.19829151034355164,0.294626921415329,-0.37872958183288574,-9.926109313964844
1745726716.3552506,-0.006714195013046265,-0.02504207193851471,-0.20038387179374695,0.1872183382511139,-0.23786917328834534,-9.763284683227539
1745726716.3926003,-0.0077124894596636295,-0.0027900696732103825,-0.1892232596874237,0.43407076597213745,-0.6164068579673767,-9.796634674072266
1745726716.3951006,0.0033511570654809475,-0.012993574142456055,-0.19280752539634705,0.416054904460907,-0.14997820556163788,-9.657159805297852
1745726716.3983169,-0.0031255066860467196,0.004163865000009537,-0.19742827117443085,0.34979286789894104,-0.5203862190246582,-9.925789833068848
1745726716.4012365,-0.003916051238775253,-0.010474932380020618,-0.20104722678661346,0.610957682132721,-0.22979643940925598,-9.61324691772461
1745726716.4027429,0.0014316713204607368,-0.0014966800808906555,-0.19980637729167938,0.4882940351963043,-0.5489770770072937,-9.851630210876465
1745726716.4344182,0.0025178708601742983,0.0019940189085900784,-0.20027604699134827,0.512317955493927,-0.4764682650566101,-9.91218376159668
1745726716.442162,0.015532314777374268,0.004907972179353237,-0.199330136179924,0.1530333161354065,-0.31537991762161255,-9.662022590637207
1745726716.4422183,0.0008450729656033218,0.006172122899442911,-0.19792167842388153,0.44331246614456177,-0.5465222597122192,-9.424116134643555
1745726716.4435294,0.016195200383663177,0.007669274695217609,-0.20161762833595276,0.3509719669818878,-0.14119651913642883,-9.789965629577637
1745726716.478056,0.02457747794687748,0.007731582969427109,-0.20802147686481476,0.3819017708301544,-0.22879919409751892,-10.120739936828613
1745726716.482235,0.011888940818607807,0.008310087025165558,-0.2118922919034958,0.35856375098228455,-0.29757219552993774,-9.794502258300781
1745726716.4861546,0.036360982805490494,0.010380285792052746,-0.21251130104064941,0.35245847702026367,-0.4965437948703766,-9.469785690307617
1745726716.4884763,-0.0013084042584523559,0.006636861711740494,-0.2140035182237625,0.5731267333030701,-0.5911829471588135,-9.695016860961914
1745726716.4920828,0.01451062224805355,0.004801205359399319,-0.21049609780311584,0.3815942406654358,-0.555751383304596,-10.149619102478027
1745726716.5230744,0.0046899160370230675,0.014055999927222729,-0.20807981491088867,0.5077095627784729,-0.5818213224411011,-9.838457107543945
1745726716.5275009,0.011153636500239372,0.009283529594540596,-0.21122264862060547,0.33284080028533936,-0.1728692352771759,-9.432090759277344
1745726716.5309358,0.01309676468372345,0.007855880074203014,-0.21295523643493652,0.37826094031333923,-0.4056064486503601,-9.773656845092773
1745726716.5325766,0.015310305170714855,0.005590875167399645,-0.21532532572746277,0.4300824999809265,-0.1841685175895691,-10.05941390991211
1745726716.5618172,0.038838066160678864,0.01532449759542942,-0.21981945633888245,0.22835926711559296,-0.278167188167572,-9.88628101348877
1745726716.5649407,0.0191385205835104,0.009239857085049152,-0.21846790611743927,0.4026647210121155,-0.40812334418296814,-9.38776683807373
1745726716.5670435,0.03682466223835945,0.010733877308666706,-0.21983513236045837,0.36384931206703186,-0.34229129552841187,-9.547892570495605
1745726716.5700037,0.03774747997522354,0.016382623463869095,-0.23006995022296906,0.4844611585140228,-0.40333834290504456,-9.944948196411133
1745726716.6092396,0.024443037807941437,0.014045335352420807,-0.23040111362934113,0.5002745985984802,-0.5015800595283508,-9.700349807739258
1745726716.611421,0.04840922728180885,0.014504721388220787,-0.22882847487926483,0.3018186092376709,-0.44888466596603394,-9.598901748657227
1745726716.6140954,0.018614865839481354,0.009961888194084167,-0.2292410433292389,0.5789709687232971,-0.6246442198753357,-9.725265502929688
1745726716.6181016,0.0341513454914093,0.015930013731122017,-0.22833006083965302,0.38167423009872437,-0.305196613073349,-9.886543273925781
1745726716.6509416,0.017786400392651558,0.013525277376174927,-0.22962796688079834,0.4583859443664551,-0.5762614011764526,-9.815399169921875
1745726716.6549504,0.031028753146529198,0.009720300324261189,-0.2337437868118286,0.4013255536556244,-0.15064488351345062,-9.576013565063477
1745726716.658421,0.025081152096390724,0.012522177770733833,-0.23609371483325958,0.43633872270584106,-0.5121821165084839,-9.765530586242676
1745726716.6613467,0.03026251122355461,0.003823521314188838,-0.23701176047325134,0.524467408657074,-0.4226589798927307,-9.919694900512695
1745726716.6938677,0.0317874476313591,0.012265783734619617,-0.23388056457042694,0.2850876450538635,-0.3347274661064148,-9.810556411743164
1745726716.6975522,0.026574160903692245,0.00549686374142766,-0.22988677024841309,0.3140116333961487,-0.8064312934875488,-9.602631568908691
1745726716.6986558,0.059482187032699585,0.012740442529320717,-0.22506895661354065,-0.006581184454262257,-0.2077328860759735,-9.48047924041748
1745726716.7021325,0.012044580653309822,-0.001881504082120955,-0.21999302506446838,0.3852628171443939,-0.9414936900138855,-9.808612823486328
1745726716.708576,0.03861972317099571,0.004094429314136505,-0.21561920642852783,-0.18390139937400818,-0.28364962339401245,-10.092206954956055
1745726716.7383947,-0.04324125498533249,-0.021917812526226044,-0.1458907127380371,0.29720473289489746,-0.20538325607776642,-9.892587661743164
1745726716.741846,-0.03674336522817612,-0.03404751047492027,-0.1458936482667923,0.25128671526908875,-0.3050685524940491,-9.867179870605469
1745726716.7466865,-0.026928311213850975,-0.04461725801229477,-0.14474479854106903,0.7117857336997986,-0.11057265102863312,-9.725133895874023
1745726716.7467544,-0.02523627318441868,-0.02774937078356743,-0.14215686917304993,0.3021114766597748,-0.27767807245254517,-10.085930824279785
1745726716.7794561,-0.020315680652856827,-0.03402373194694519,-0.13342690467834473,0.30092039704322815,-0.6496924161911011,-9.809446334838867
1745726716.7819827,-0.02193521521985531,-0.03649107366800308,-0.12665647268295288,0.49228182435035706,-0.35358554124832153,-9.358442306518555
1745726716.7841792,-0.02442154288291931,-0.024607285857200623,-0.12056567519903183,0.3536008298397064,-0.5012079477310181,-10.005769729614258
1745726716.7842333,-0.023031700402498245,-0.033921755850315094,-0.11793376505374908,0.3310084044933319,0.059906166046857834,-10.077869415283203
1745726716.8234332,-0.012055763974785805,-0.0275680311024189,-0.12146258354187012,0.2113329917192459,-0.28590089082717896,-9.629661560058594
1745726716.8257062,-0.007956316694617271,-0.02464330941438675,-0.12176678329706192,0.4408523440361023,-0.026438523083925247,-9.447278022766113
1745726716.8277,-0.016293859109282494,-0.03825762867927551,-0.12197750806808472,0.2685069143772125,-0.3216845393180847,-10.160356521606445
1745726716.8299084,0.008620550855994225,-0.0192404892295599,-0.123451367020607,0.19388329982757568,-0.4782925546169281,-10.215166091918945
1745726716.8308916,-0.010867582634091377,-0.021537238731980324,-0.12089551985263824,0.3258378207683563,-0.33285215497016907,-9.213902473449707
1745726716.8651319,0.0058312565088272095,-0.023434758186340332,-0.11471827328205109,0.33395200967788696,-0.6650954484939575,-9.495401382446289
1745726716.867033,-0.010235803201794624,-0.029766108840703964,-0.11252335458993912,0.32543671131134033,-0.3887096047401428,-10.286542892456055
1745726716.8679652,0.008964636363089085,-0.009129030629992485,-0.11668556928634644,0.1415579468011856,-0.5489563941955566,-10.162620544433594
1745726716.870075,-0.0205986350774765,-0.015298396348953247,-0.1148592010140419,0.2828771770000458,-0.5809164047241211,-9.219761848449707
1745726716.9105303,-0.02151772752404213,-0.025907736271619797,-0.11552778631448746,0.24518680572509766,-0.5517207384109497,-9.497782707214355
1745726716.914847,-0.03555642440915108,-0.017733659595251083,-0.12208008766174316,0.3448619246482849,-0.537382960319519,-10.461028099060059
1745726716.9159508,-0.055919140577316284,-0.013117554597556591,-0.12060997635126114,0.16746771335601807,-0.5362598299980164,-10.095335960388184
1745726716.9205348,-0.045546043664216995,-0.008760770782828331,-0.12121368944644928,0.34324732422828674,-0.5695978403091431,-9.07286548614502
1745726716.9542203,-0.005325601436197758,-0.011815105564892292,-0.12767955660820007,0.5154556035995483,-0.6022379994392395,-10.390728950500488
1745726716.9546962,-0.01106611080467701,0.0036277337931096554,-0.1259777694940567,0.17381291091442108,-0.556120753288269,-9.906625747680664
1745726716.955919,-0.03114677593111992,-0.0033345124684274197,-0.1262063980102539,0.34449663758277893,-0.8402591943740845,-9.18120002746582
1745726716.9581113,-0.04978149011731148,-0.014217639341950417,-0.124042809009552,0.23385639488697052,-0.3953166902065277,-9.671978950500488
1745726716.9610608,-0.03881022706627846,0.003071972168982029,-0.12382681667804718,0.23536768555641174,-0.5946680307388306,-10.401275634765625
1745726716.9948459,-0.050232451409101486,0.006679397076368332,-0.12522602081298828,0.22310633957386017,-0.12494717538356781,-9.826517105102539
1745726716.9976008,-0.03566005453467369,-0.0008773918962106109,-0.1252741813659668,0.05862874537706375,-0.22913523018360138,-9.334512710571289
1745726716.9980512,-0.03231748566031456,-0.0055582160130143166,-0.12634827196598053,0.3502650856971741,-0.1596972495317459,-9.683489799499512
1745726717.0018582,-0.019267383962869644,0.0004350903327576816,-0.1266840696334839,0.20948509871959686,-0.08734160661697388,-10.254175186157227
1745726717.0377955,-0.00959827285259962,0.007121381815522909,-0.12664879858493805,0.35990476608276367,-0.3914150595664978,-9.855737686157227
1745726717.0398862,-0.007930954918265343,-0.002453949535265565,-0.12546488642692566,0.2892279028892517,-0.12088467925786972,-9.40415096282959
1745726717.0419915,0.0013458514586091042,0.002919725840911269,-0.12274517863988876,0.3021745979785919,-0.41946762800216675,-9.804144859313965
1745726717.044318,-0.016701772809028625,0.0013058616314083338,-0.12426774203777313,0.43354910612106323,-0.20518307387828827,-10.061771392822266
1745726717.0455067,0.0022102377843111753,0.003791016060858965,-0.12699058651924133,0.18544885516166687,-0.3739641606807709,-9.960600852966309
1745726717.0794275,-0.012652656063437462,-0.0007367568323388696,-0.12849313020706177,0.3597545027732849,-0.28172338008880615,-9.517744064331055
1745726717.0818982,0.025407711043953896,0.023343123495578766,-0.15589109063148499,0.33629801869392395,-0.2643839716911316,-9.917490005493164
1745726717.0846884,0.014179205521941185,0.018546558916568756,-0.15795348584651947,0.49587535858154297,-0.2507491707801819,-9.570874214172363
1745726717.089031,0.011931978166103363,0.013261044397950172,-0.15943796932697296,0.3831612467765808,-0.2599817216396332,-9.705267906188965
1745726717.1303341,0.03300143778324127,0.02313419245183468,-0.16049695014953613,0.2866040766239166,-0.3658757209777832,-9.905163764953613
1745726717.1321409,0.010787440463900566,0.015953417867422104,-0.16197803616523743,0.4306882917881012,-0.2729266285896301,-9.73213005065918
1745726717.1348412,0.027794158086180687,0.02074548602104187,-0.16153104603290558,0.30452612042427063,-0.39075714349746704,-9.671842575073242
1745726717.1377108,0.006689996924251318,0.015652749687433243,-0.16055360436439514,0.4496650695800781,-0.4108419418334961,-9.712114334106445
1745726717.169065,0.025783861055970192,0.01705327071249485,-0.16271190345287323,0.3458270728588104,-0.13282588124275208,-9.84150505065918
1745726717.1745858,0.012185170315206051,0.01831093803048134,-0.16630129516124725,0.4604041576385498,-0.41006025671958923,-9.857336044311523
1745726717.1763675,0.02856225147843361,0.01171698234975338,-0.16712257266044617,0.4092486798763275,-0.2226789891719818,-9.66417121887207
1745726717.1791205,0.01470446027815342,0.014288271777331829,-0.16587324440479279,0.23932819068431854,-0.3813591003417969,-9.761813163757324
1745726717.21016,0.00574524886906147,0.01536619383841753,-0.16200563311576843,0.15445783734321594,-0.7166572213172913,-9.870373725891113
1745726717.2111187,0.02524707280099392,0.008958252146840096,-0.151015043258667,0.42136073112487793,-0.4631984829902649,-9.386672019958496
1745726717.214539,-0.009088701568543911,0.012820783071219921,-0.14725539088249207,0.22423990070819855,-0.4463237226009369,-10.024105072021484
1745726717.215841,0.010542456991970539,0.005938210524618626,-0.15247325599193573,-0.1119239553809166,-0.045868709683418274,-9.960007667541504
1745726717.2179787,0.008318797685205936,0.015343209728598595,-0.153333842754364,0.43571773171424866,-0.1903095543384552,-9.218637466430664
1745726717.252037,-0.0005545004969462752,-0.0032708384096622467,-0.15679536759853363,0.35423535108566284,0.11599179357290268,-9.692011833190918
1745726717.257113,0.017317432910203934,-0.005945899523794651,-0.15784284472465515,0.1318598985671997,-0.595983624458313,-10.607468605041504
1745726717.25966,0.014675614424049854,0.0025529549457132816,-0.15049517154693604,0.15935099124908447,-0.31715160608291626,-9.716002464294434
1745726717.268433,-0.002620985731482506,0.010317711159586906,-0.14272724092006683,0.08023267984390259,-0.7505996227264404,-8.954683303833008
1745726717.299865,-0.02773091569542885,-0.014917274005711079,-0.1316463053226471,0.20795968174934387,-0.2078719139099121,-10.04530143737793
1745726717.3029304,-0.004363556858152151,-0.013668125495314598,-0.12724098563194275,0.10619933903217316,-0.22665217518806458,-8.934553146362305
1745726717.3070095,-0.03300251439213753,-0.03223447501659393,-0.12674465775489807,0.24311502277851105,-0.24408426880836487,-9.467729568481445
1745726717.311163,0.0014932833146303892,-0.02426965907216072,-0.12618538737297058,0.05387556552886963,-0.23105189204216003,-10.540445327758789
1745726717.3374841,-0.0032131653279066086,-0.012319493107497692,-0.12714393436908722,0.2859090268611908,-0.10639365762472153,-9.855100631713867
1745726717.3391786,-0.003982568625360727,-0.029034757986664772,-0.12868539988994598,0.14446382224559784,-0.16566722095012665,-9.16762924194336
1745726717.3417234,0.006047449074685574,-0.029331406578421593,-0.12879478931427002,0.3850516378879547,-0.38490134477615356,-9.62519645690918
1745726717.3440971,-0.012378916144371033,-0.03182419389486313,-0.12895362079143524,0.34127286076545715,-0.40714558959007263,-10.416171073913574
1745726717.3466039,-0.004674782510846853,-0.02001025527715683,-0.1239958181977272,0.23605617880821228,-0.7298349738121033,-9.956364631652832
1745726717.3821344,-0.030290741473436356,-0.02583177387714386,-0.12013311684131622,0.2511906623840332,-0.4871886670589447,-9.129554748535156
1745726717.3838341,-0.03601152449846268,-0.03332727402448654,-0.11906933784484863,0.07735397666692734,-0.42193469405174255,-9.648258209228516
1745726717.3851545,-0.03211180120706558,-0.028022419661283493,-0.11781058460474014,0.39900651574134827,-0.35345545411109924,-10.190839767456055
1745726717.3877792,-0.028789620846509933,-0.026558900251984596,-0.12164845317602158,0.13751515746116638,0.052305810153484344,-9.985048294067383
1745726717.4262605,-0.02211153507232666,-0.026097659021615982,-0.12246479839086533,0.14268673956394196,-0.3518148362636566,-9.463075637817383
1745726717.4338145,-0.029667463153600693,-0.0352083221077919,-0.1220729798078537,0.2068823277950287,-0.11386437714099884,-9.488616943359375
1745726717.4339032,-0.024320537224411964,-0.02872857078909874,-0.11889901012182236,0.11849188804626465,-0.5843116641044617,-10.139538764953613
1745726717.433973,-0.01140432246029377,-0.0303605105727911,-0.09948782622814178,0.5553480982780457,0.5731574296951294,-9.282605171203613
1745726717.4671474,-0.030262287706136703,-0.01679505780339241,-0.09752808511257172,0.5361114740371704,-0.2683948874473572,-10.359370231628418
1745726717.4684737,0.0165697131305933,-0.016022931784391403,-0.09248124063014984,0.5638677477836609,-0.10956386476755142,-10.267081260681152
1745726717.4726768,-0.0029484627302736044,-0.010699230246245861,-0.08297528326511383,0.30595046281814575,-0.49086347222328186,-9.471818923950195
1745726717.4747417,0.020709555596113205,-0.013658409006893635,-0.07395873963832855,0.4297073483467102,-0.5107566118240356,-9.430776596069336
1745726717.4773667,-0.014153720811009407,-0.018958251923322678,-0.07023389637470245,0.08750161528587341,-0.17646808922290802,-10.06182861328125
1745726717.5107872,0.005267830099910498,-0.0008456645300611854,-0.07274653017520905,0.08773280680179596,-0.555590808391571,-10.070874214172363
1745726717.5147994,-0.012085598893463612,-0.0036908884067088366,-0.07788760960102081,0.193302720785141,0.2654133141040802,-9.220304489135742
1745726717.5168426,-0.031713515520095825,-0.009586828760802746,-0.08347964286804199,0.13911490142345428,-0.5421915054321289,-9.710966110229492
1745726717.5198207,-0.031367771327495575,-0.0101698599755764,-0.08472740650177002,0.48798179626464844,-0.3857421875,-10.164438247680664
1745726717.5545752,-0.0555417463183403,0.00757541274651885,-0.08113573491573334,0.24482925236225128,-0.6321086883544922,-10.054475784301758
1745726717.558997,-0.0693025141954422,-0.0004050149582326412,-0.07005909085273743,0.43945202231407166,-0.8726679086685181,-9.3818998336792
1745726717.5616775,-0.0659315288066864,-0.004106909967958927,-0.06168904900550842,0.39450913667678833,-0.21913905441761017,-9.483407020568848
1745726717.5657182,-0.059963446110486984,0.007065340876579285,-0.057624123990535736,0.30256426334381104,-0.2421281784772873,-10.308197021484375
1745726717.5678103,-0.05170980095863342,0.0018917644629254937,-0.05951036885380745,0.2450927197933197,0.40570974349975586,-9.972705841064453
1745726717.6006277,-0.01227676123380661,0.0067156897857785225,-0.06454034894704819,0.17190729081630707,0.2438965141773224,-9.45588493347168
1745726717.6007211,-0.014794332906603813,-0.0036553230602294207,-0.06958002597093582,0.1671338975429535,0.3926405906677246,-9.667725563049316
1745726717.6007645,-0.0010481972713023424,0.0005676353466697037,-0.07235825806856155,0.08942665904760361,-0.13583561778068542,-10.1524658203125
1745726717.6031106,0.005803472362458706,0.00781866256147623,-0.06852569431066513,0.34306424856185913,-0.3434212803840637,-9.828709602355957
1745726717.6398063,-0.01361869741231203,0.004450785927474499,-0.06555148959159851,0.31705808639526367,-0.3540955185890198,-9.449800491333008
1745726717.6423416,-0.01829688251018524,0.015231957659125328,-0.049144990742206573,0.1782800853252411,-0.349079430103302,-9.798487663269043
1745726717.6448765,-0.037034306675195694,0.019682349637150764,-0.04628593474626541,0.39207723736763,-0.07062534987926483,-9.565569877624512
1745726717.647759,-0.03776855021715164,0.015396933071315289,-0.049287158995866776,0.18364644050598145,-0.030926713719964027,-9.832210540771484
1745726717.6848528,-0.014409837312996387,0.013202177360653877,-0.054388612508773804,0.2120913565158844,0.14003652334213257,-9.855030059814453
1745726717.6885595,-0.030820224434137344,0.011868217960000038,-0.059329599142074585,0.3991154730319977,0.07807457447052002,-9.753002166748047
1745726717.708242,0.00018630549311637878,0.01829734444618225,-0.060807257890701294,0.1682077944278717,-0.07576669752597809,-9.845133781433105
1745726717.7084143,-0.023353490978479385,0.00885878223925829,-0.05987495929002762,0.36946818232536316,-0.3635173439979553,-9.774585723876953
1745726717.7085218,-0.0011482788249850273,0.014055122621357441,-0.05540568754076958,0.231485515832901,-0.30698928236961365,-9.700064659118652
1745726717.7296119,-0.024749720469117165,0.021003317087888718,-0.05058032274246216,0.32310622930526733,-0.5110443830490112,-9.738849639892578
1745726717.7329245,-0.018920574337244034,0.01231482531875372,-0.04821411520242691,0.33624157309532166,-0.23074598610401154,-9.714600563049316
1745726717.7350888,-0.019633466377854347,0.019504031166434288,-0.05112513154745102,0.2904975414276123,-0.1879059374332428,-9.827547073364258
1745726717.737217,-0.03895772993564606,0.011982439085841179,-0.053033970296382904,0.2694454789161682,-0.1367490589618683,-9.84623908996582
1745726717.7716885,-0.01621975004673004,0.016421571373939514,-0.05883923918008804,0.21649408340454102,-0.12010617554187775,-9.682886123657227
1745726717.7739768,-0.053722821176052094,0.019328080117702484,-0.05960769206285477,0.3328133523464203,-0.25378504395484924,-9.647979736328125
1745726717.7748387,-0.0348353274166584,0.01264584343880415,-0.05961161106824875,0.2266206443309784,-0.18167002499103546,-9.814126014709473
1745726717.7763731,-0.04945388808846474,0.01969229429960251,-0.05697142332792282,0.4081569314002991,-0.25683778524398804,-9.791328430175781
1745726717.810949,0.00721413129940629,0.02085726335644722,-0.0973217636346817,0.44515863060951233,-0.36340659856796265,-9.853968620300293
1745726717.8157444,0.018675435334444046,0.01796913519501686,-0.10164596140384674,0.2630811333656311,-0.06906037032604218,-9.152765274047852
1745726717.82078,-0.025890067219734192,0.008222997188568115,-0.09986905753612518,0.5464420318603516,-0.6453395485877991,-9.766402244567871
1745726717.8223016,0.004754700697958469,0.011573731899261475,-0.0976337343454361,0.4324115812778473,-0.08387182652950287,-10.277225494384766
1745726717.8246074,-0.00949078518897295,0.024954596534371376,-0.09755983203649521,0.46667033433914185,-0.2527313232421875,-9.885751724243164
1745726717.8568304,0.006592403165996075,0.012200459837913513,-0.09755201637744904,0.4486948847770691,0.18742385506629944,-9.245794296264648
1745726717.868102,0.026150885969400406,0.007055664900690317,-0.10308001190423965,0.39591342210769653,0.1355149745941162,-9.754228591918945
1745726717.868233,0.03294335678219795,0.010260744020342827,-0.10751684010028839,0.47425007820129395,0.24860557913780212,-10.293505668640137
1745726717.8683136,0.05306156352162361,0.016654131934046745,-0.11198343336582184,0.20068053901195526,0.11097482591867447,-9.871597290039062
1745726717.900845,0.06015085428953171,0.013138681650161743,-0.11458273231983185,0.37800946831703186,-0.11584164947271347,-9.150406837463379
1745726717.902709,0.04571402072906494,0.005343777127563953,-0.11689357459545135,0.3728647232055664,0.04849722608923912,-9.570319175720215
1745726717.904608,0.05664636939764023,0.01677415706217289,-0.11951929330825806,0.47720107436180115,-0.4617479741573334,-10.290031433105469
1745726717.9066997,0.05372456833720207,0.01601497456431389,-0.1185087338089943,0.5051991939544678,-0.008991265669465065,-9.805719375610352
1745726717.9403317,0.046893320977687836,0.014959393069148064,-0.11962506920099258,0.44919371604919434,-0.38396674394607544,-9.410699844360352
1745726717.9432616,0.04088271036744118,0.009289992041885853,-0.12356825172901154,0.5268757343292236,-0.16719089448451996,-9.669615745544434
1745726717.9444432,0.053974129259586334,0.014359874650835991,-0.1239466443657875,0.34151309728622437,-0.0748305469751358,-10.07330322265625
1745726717.9508996,0.0416121743619442,0.021333511918783188,-0.12591639161109924,0.4115601181983948,-0.2642812728881836,-9.808987617492676
1745726717.9539251,0.05358729511499405,0.010755669325590134,-0.12675052881240845,0.28368422389030457,-0.042005755007267,-9.349449157714844
1745726717.9868383,0.060160648077726364,0.01466110348701477,-0.13034413754940033,0.426708847284317,-0.15245631337165833,-9.700967788696289
1745726717.9888134,0.044405847787857056,0.009997586719691753,-0.134328693151474,0.4475943148136139,-0.05870644375681877,-10.18365478515625
1745726717.9931095,0.09155541658401489,0.011653464287519455,-0.1546011120080948,0.47409313917160034,-0.4089635908603668,-9.922928810119629
1745726717.994675,0.08230342715978622,0.00654385332018137,-0.15345773100852966,0.4805881977081299,-0.12541988492012024,-9.516111373901367
1745726718.0274682,0.08169062435626984,0.00406620604917407,-0.15283839404582977,0.17010259628295898,-0.494671493768692,-9.785112380981445
1745726718.029087,0.0717635229229927,0.007816123776137829,-0.1496417373418808,0.23657003045082092,-0.4781665802001953,-9.891378402709961
1745726718.0314286,0.06073220819234848,-0.005396295338869095,-0.1484752744436264,0.19190049171447754,-0.552743673324585,-9.727458953857422
1745726718.0329826,0.040330179035663605,0.007971111685037613,-0.1451558917760849,-0.1058603897690773,-0.48243623971939087,-9.855439186096191
1745726718.0345173,0.024063125252723694,-0.0015214148443192244,-0.14314033091068268,0.04447672888636589,-0.2400960475206375,-9.573201179504395
1745726718.212887,0.044614024460315704,0.0007517444901168346,-0.14577758312225342,0.2369246780872345,-0.13633695244789124,-9.574386596679688
1745726718.2130754,0.007455897517502308,-0.01657482050359249,-0.14720571041107178,0.46487265825271606,-0.16069939732551575,-10.14442253112793
1745726718.213163,0.0642830953001976,-0.012701918371021748,-0.14440184831619263,0.23485085368156433,-0.14993061125278473,-10.209253311157227
1745726718.2132487,0.03902871161699295,-0.010605419054627419,-0.13896459341049194,0.20649389922618866,-0.21908500790596008,-9.579797744750977
1745726718.2133076,0.05215107277035713,-0.02148815430700779,-0.13025175034999847,0.16032303869724274,-0.5086574554443359,-9.36436939239502
1745726718.213378,0.056837521493434906,-0.01984945498406887,-0.12251321971416473,0.24452261626720428,-0.14545679092407227,-9.873319625854492
1745726718.213457,0.05500379949808121,-0.02174105867743492,-0.12521134316921234,0.1451984941959381,-0.013603639788925648,-10.234713554382324
1745726718.213528,0.0901542454957962,-0.011467987671494484,-0.12706179916858673,0.029201820492744446,0.03498535603284836,-9.653698921203613
1745726718.2135944,0.05539607256650925,-0.030716348439455032,-0.1325336992740631,0.24737632274627686,-0.12135418504476547,-9.292221069335938
1745726718.2136545,0.001612040912732482,-0.030263638123869896,-0.07341024279594421,0.4873567521572113,-0.14765626192092896,-8.953824043273926
1745726718.2137003,0.012481019832193851,-0.029289942234754562,-0.06968732923269272,0.5090230703353882,-0.12932780385017395,-9.8898286819458
1745726718.2137384,0.014264298602938652,-0.03036918304860592,-0.07230974733829498,0.454348087310791,0.22452981770038605,-10.657177925109863
1745726718.2137785,0.048863448202610016,-0.019024601206183434,-0.0722053274512291,0.3247990608215332,-0.14168472588062286,-9.919431686401367
1745726718.2138176,0.03276890888810158,-0.03144381567835808,-0.07161840796470642,0.40706515312194824,-0.099082812666893,-9.105321884155273
1745726718.2138598,0.052118539810180664,-0.028120582923293114,-0.06827569752931595,-0.0071114166639745235,-0.2984808385372162,-9.83055591583252
1745726718.2139003,0.04895855486392975,-0.02527759037911892,-0.06721530854701996,0.41680675745010376,-0.4881059527397156,-10.087567329406738
1745726718.322842,0.05023155361413956,-0.013762427493929863,-0.0673234611749649,0.29151618480682373,-0.2322620153427124,-9.7682466506958
1745726718.3229527,0.038353074342012405,-0.02121112309396267,-0.06626133620738983,0.25505074858665466,-0.5978434085845947,-9.656310081481934
1745726718.3230104,0.0378652922809124,-0.02529904805123806,-0.06932194530963898,0.36983582377433777,-0.41306933760643005,-9.733182907104492
1745726718.3230634,0.014561709947884083,-0.009569047018885612,-0.0694747343659401,0.281499445438385,-0.7292057275772095,-10.049245834350586
1745726718.3231153,-0.01294430810958147,-0.01707196608185768,-0.0679965540766716,0.3519182801246643,-0.9124872088432312,-9.824116706848145
1745726718.3231645,-0.014657797291874886,-0.012607458047568798,-0.06480635702610016,0.15834632515907288,-0.4269935190677643,-9.5137939453125
1745726718.323214,-0.055337924510240555,-0.0092526376247406,-0.06461234390735626,0.32464390993118286,-0.7866383790969849,-9.79562759399414
1745726718.3232627,-0.0306863933801651,-0.0061957379803061485,-0.06769200414419174,0.2856501638889313,-0.024249112233519554,-9.754495620727539
1745726718.3233204,-0.05428504943847656,-0.007619817741215229,-0.06862767785787582,0.3984294533729553,-0.2611560821533203,-9.913067817687988
1745726718.32337,-0.023579945787787437,-0.016347775235772133,-0.0712282732129097,0.38530629873275757,0.08804811537265778,-9.919912338256836
1745726718.4634578,-0.00468413345515728,0.002474577398970723,-0.07171067595481873,0.15719151496887207,0.03578536584973335,-9.836905479431152
1745726718.463573,-0.009926523081958294,-0.009224877692759037,-0.07138378173112869,0.366020143032074,-0.2643028497695923,-9.633035659790039
1745726718.4636285,-0.007667458616197109,0.0145260039716959,-0.07136154919862747,0.1394938975572586,-0.045506395399570465,-9.658432960510254
1745726718.4637182,-0.024656128138303757,0.008513074368238449,-0.07058817148208618,0.45781317353248596,-0.41942229866981506,-9.376420021057129
1745726718.4638293,-0.011915178969502449,0.001355696003884077,-0.06933616101741791,0.34122905135154724,0.047842077910900116,-9.930431365966797
1745726718.4639432,-0.011708351783454418,0.010064220055937767,-0.07425588369369507,0.3652884364128113,-0.2587467133998871,-10.322726249694824
1745726718.464002,-0.012397532351315022,0.00683821365237236,-0.07418021559715271,0.4395955502986908,-0.24569757282733917,-9.732842445373535
1745726718.4640865,6.597922038054094e-05,0.008054381236433983,-0.07251796126365662,0.14100058376789093,-0.20773091912269592,-9.412041664123535
1745726718.464128,-0.021572638303041458,0.0010002065682783723,-0.07127977162599564,0.38798993825912476,-0.4532858729362488,-9.856452941894531
1745726718.464177,0.002739152405411005,0.007586847059428692,-0.06950675696134567,0.16924098134040833,-0.17180819809436798,-10.024925231933594
1745726718.4642186,-0.010897999629378319,0.01224207878112793,-0.07074911892414093,0.36952248215675354,-0.3997783660888672,-9.707730293273926
1745726718.464266,-0.00335511052981019,0.004232651088386774,-0.06993953883647919,0.2783089280128479,-0.08122516423463821,-9.481500625610352
1745726718.4643052,-0.015601739287376404,0.0042522563599050045,-0.07087519019842148,0.26030945777893066,-0.4416525959968567,-9.946094512939453
1745726718.464344,-0.010955912992358208,0.012078051455318928,-0.06871594488620758,0.21390648186206818,-0.4706049859523773,-10.050335884094238
1745726718.4643826,-0.02282007411122322,0.011493226513266563,-0.06576227396726608,0.3285455107688904,-0.5616676211357117,-9.489587783813477
1745726718.4687657,-0.035246800631284714,0.00984299648553133,-0.05796538665890694,0.37801533937454224,-0.5773125886917114,-9.627832412719727
1745726718.472917,-0.05087829381227493,0.013256421312689781,-0.05664106458425522,0.13010339438915253,-0.1736208200454712,-9.861391067504883
1745726718.5005202,-0.05950712040066719,0.01311520952731371,-0.0544520728290081,0.6294499635696411,-0.5612695813179016,-9.712583541870117
1745726718.5075183,-0.0111383106559515,0.006791910622268915,-0.009745633229613304,0.3034511208534241,-0.2861996591091156,-9.745201110839844
1745726718.5116165,-0.04257332161068916,0.00776649871841073,-0.008141628466546535,0.4027644991874695,-0.3879706859588623,-9.394304275512695
1745726718.5150266,-0.03296732157468796,-0.0033028549514710903,-0.0038812458515167236,0.19452805817127228,-0.42693930864334106,-9.853967666625977
1745726718.5583742,-0.04796955734491348,0.006680200342088938,-0.0013783627655357122,0.4870496392250061,-0.3199501931667328,-10.007806777954102
1745726718.5584645,-0.04752195626497269,0.004658534657210112,-0.0012956421123817563,0.2821512818336487,-0.21570484340190887,-9.753599166870117
1745726718.5585246,-0.04704713821411133,0.002100959187373519,0.0018803089624270797,0.23877589404582977,-0.2743881344795227,-9.532106399536133
1745726718.5585725,-0.0532246008515358,-0.004013647325336933,0.0016724795568734407,0.37359634041786194,-0.14465442299842834,-9.751115798950195
1745726718.715055,-0.04378495365381241,0.004553794860839844,0.0032678828574717045,0.2634361982345581,-0.2792978882789612,-10.043203353881836
1745726718.7151947,-0.05573076009750366,0.0025286306627094746,0.005450374446809292,0.30441588163375854,-0.2656992971897125,-9.763647079467773
1745726718.7152796,-0.048810623586177826,0.0025189979933202267,0.007539181504398584,0.22620026767253876,-0.14432652294635773,-9.436147689819336
1745726718.7153523,-0.06229125335812569,0.002607784466817975,0.00927078165113926,0.4095478951931,-0.3405158519744873,-9.695744514465332
1745726718.7154229,-0.06208775192499161,-0.0005575435934588313,0.008356099016964436,0.3040643036365509,0.07674310356378555,-10.030176162719727
1745726718.7154946,-0.05357281491160393,0.005275442264974117,0.005390999373048544,0.6505357027053833,-0.2266978770494461,-9.83949089050293
1745726718.715547,-0.06441953778266907,-0.008038338273763657,0.003800807986408472,0.5692235827445984,0.22396250069141388,-9.65572452545166
1745726718.7156024,-0.032282255589962006,0.006396285258233547,-0.0028245539870113134,0.03917749598622322,0.25016576051712036,-9.941366195678711
1745726718.7156532,-0.03363456204533577,-0.004394099581986666,-0.009867075830698013,0.7289836406707764,0.09311110526323318,-9.39604663848877
1745726718.715726,0.004529380705207586,0.00046174926683306694,-0.011074411682784557,0.45337924361228943,0.2831180691719055,-9.812650680541992
1745726718.7157705,-0.0014410222647711635,-0.0032445830292999744,-0.015640441328287125,0.23258903622627258,-0.233402281999588,-10.285741806030273
1745726718.71581,0.030651768669486046,0.006076519377529621,-0.015508487820625305,0.1404774934053421,-0.05631481483578682,-9.51157283782959
1745726718.7158415,0.06127186492085457,-0.008691259659826756,-0.057015322148799896,0.4656699299812317,0.1594376415014267,-9.653841018676758
1745726718.7168727,0.044032059609889984,0.005950646009296179,-0.05871688574552536,0.42021751403808594,-0.45488911867141724,-10.598124504089355
1745726718.7231154,0.03495777025818825,0.009996959939599037,-0.06203782558441162,0.39122503995895386,-0.3771330714225769,-9.807589530944824
1745726718.7258081,0.014215728268027306,0.007182816509157419,-0.06361011415719986,0.3854016363620758,-0.5517733693122864,-9.02968692779541
1745726718.7317693,-0.0182490274310112,-0.004260198213160038,-0.06573578715324402,0.557314395904541,-0.4984758794307709,-9.728015899658203
1745726718.7602117,-0.021117571741342545,0.0021296502090990543,-0.0682363361120224,0.24927859008312225,-0.3483845591545105,-10.539405822753906
1745726718.7623181,-0.030453961342573166,0.011688298545777798,-0.0686003789305687,0.34209951758384705,-0.4716503620147705,-9.878862380981445
1745726718.7657833,-0.028430471196770668,0.005018326453864574,-0.06779100000858307,0.16848070919513702,0.027437910437583923,-9.041608810424805
1745726718.7678316,-0.030861105769872665,0.0012414640514180064,-0.06873467564582825,0.27474233508110046,-0.1972832977771759,-9.668848037719727
1745726718.771774,-0.010661257430911064,0.004374927841126919,-0.07091161608695984,0.42663708329200745,0.17052091658115387,-10.347049713134766
1745726718.8052354,0.006932435091584921,0.011140668764710426,-0.07291457056999207,0.25125640630722046,0.13927564024925232,-10.029275894165039
1745726718.807492,0.011377682909369469,0.004591349977999926,-0.07409316301345825,0.49630823731422424,0.01833692379295826,-9.297285079956055
1745726718.8167143,0.0312308669090271,-0.0035680278670042753,-0.0756945013999939,0.2980552315711975,0.1740071326494217,-9.678732872009277
1745726718.8168592,0.02226303517818451,0.005814691074192524,-0.07870731502771378,0.5617660284042358,-0.219974085688591,-10.216771125793457
1745726718.963183,0.030467957258224487,0.002883598441258073,-0.08054959774017334,0.4499906003475189,0.06774908304214478,-9.849733352661133
1745726718.9632363,0.01746925339102745,0.003592676017433405,-0.08120711147785187,0.3261774778366089,-0.2581561505794525,-9.524659156799316
1745726718.963327,0.019203543663024902,-0.0048422785475850105,-0.08318278938531876,0.5157820582389832,-0.03333812952041626,-9.646989822387695
1745726718.963392,-0.03558054566383362,0.00048912811325863,-0.03862124681472778,0.15811538696289062,-0.08470825105905533,-9.700085639953613
1745726718.9635239,-0.05028356984257698,-0.001238322234712541,-0.03879515081644058,0.2900577187538147,-0.46529752016067505,-9.056268692016602
1745726718.9636075,-0.03587689250707626,-0.013839860446751118,-0.03545745089650154,0.24584472179412842,0.3391028046607971,-9.748647689819336
1745726718.9636884,-0.019859442487359047,-0.0016811745008453727,-0.03383171185851097,0.21195964515209198,-0.03188278153538704,-10.594698905944824
1745726718.963745,0.010190978646278381,0.0014304727083072066,-0.032619982957839966,0.3515954911708832,0.3247755467891693,-9.71959114074707
1745726718.9638062,0.023282628506422043,-0.005306757986545563,-0.03011992946267128,0.2499311864376068,0.274116188287735,-9.199495315551758
1745726718.9638638,0.03284788131713867,-0.012091560289263725,-0.03142360970377922,0.5193217992782593,-0.09235799312591553,-9.901053428649902
1745726718.9639208,0.04954112321138382,-0.01172240637242794,-0.029556218534708023,0.39975714683532715,0.14503946900367737,-10.409241676330566
1745726718.9639626,0.03857865184545517,-0.0033108345232903957,-0.03007526695728302,0.422895610332489,-0.47435641288757324,-9.84440803527832
1745726718.9640036,0.03083859384059906,-0.013873202726244926,-0.026218745857477188,0.4353155195713043,-0.2185104340314865,-9.188719749450684
1745726718.9737854,0.01546324323862791,-0.011341353878378868,-0.0262884683907032,0.2576865255832672,-0.41953983902931213,-9.907827377319336
1745726718.9829674,-0.00024725968251004815,-0.014389890246093273,-0.023908916860818863,0.4415237307548523,-0.34981244802474976,-10.253539085388184
1745726718.9830818,0.00308375246822834,-0.007952898740768433,-0.027532871812582016,0.22653202712535858,-0.25636476278305054,-9.799707412719727
1745726718.9831421,-0.008317336440086365,-0.010129321366548538,-0.0246194489300251,0.2716633975505829,-0.3545621633529663,-9.388727188110352
1745726718.9848382,-0.008387081325054169,-0.017320003360509872,-0.02347377873957157,0.18201109766960144,-0.12035124003887177,-9.733358383178711
1745726719.017515,-0.009990806691348553,-0.006501789204776287,-0.020376041531562805,0.26934683322906494,-0.5210078954696655,-10.061803817749023
1745726719.0199778,-0.0031845576595515013,-0.0038127508014440536,-0.015978891402482986,0.29455995559692383,-0.09719254076480865,-9.724454879760742
1745726719.022843,-0.012404324486851692,-0.002749459119513631,-0.01396528072655201,0.17222438752651215,-0.3043886125087738,-9.565313339233398
1745726719.0240376,-0.008584557101130486,-0.010261645540595055,-0.015567848458886147,0.39850303530693054,-0.15442465245723724,-9.743379592895508
1745726719.0605698,-0.0056521655060350895,-0.005472694989293814,-0.014466102235019207,0.33715641498565674,0.0140757467597723,-9.97969913482666
1745726719.0652318,-0.0010768910869956017,-0.009440415538847446,-0.0056969583965837955,0.3320196866989136,-0.331449419260025,-9.720592498779297
1745726719.2048256,-0.037397146224975586,-0.009600995108485222,-0.004443996585905552,0.48382434248924255,-0.39718303084373474,-9.910545349121094
1745726719.2049778,-0.024556497111916542,-0.010796019807457924,-0.0042563546448946,0.23916324973106384,-0.22745463252067566,-9.879290580749512
1745726719.2050717,-0.04769021272659302,-0.006464709527790546,-0.0020601903088390827,0.48006314039230347,-0.3541348874568939,-9.619101524353027
1745726719.2051497,-0.04413965716958046,-0.011843224056065083,-0.001862014876678586,0.1981658786535263,-0.09246449172496796,-9.70508098602295
1745726719.2052457,-0.03590495139360428,-0.006409045308828354,0.0010178633965551853,0.29473185539245605,-0.14441242814064026,-9.82323169708252
1745726719.2052996,-0.03572968766093254,-0.005601047538220882,0.0018496609991416335,0.3205760717391968,0.08807086944580078,-9.809076309204102
1745726719.205358,-0.013113325461745262,-0.00477884616702795,-0.00048021282418631017,0.160580113530159,0.09013018757104874,-9.693395614624023
1745726719.2054052,-0.019658688455820084,-0.009724804200232029,0.0015172952553257346,0.3756091892719269,0.03955027833580971,-9.687628746032715
1745726719.2054446,0.007345371879637241,-0.007913775742053986,0.0004433897265698761,0.2916781008243561,0.05365400388836861,-9.887354850769043
1745726719.2054834,-0.0075864046812057495,-0.0017645746702328324,0.0003535727155394852,0.31755009293556213,-0.28610244393348694,-9.957971572875977
1745726719.2055228,-0.004658450372517109,-0.00954102911055088,0.0034773238003253937,0.359552800655365,-0.10458556562662125,-9.631162643432617
1745726719.2189307,-0.011560564860701561,-0.005912084598094225,0.004950391594320536,0.3858880400657654,-0.5001935362815857,-9.712944984436035
1745726719.219087,-0.03148593753576279,-0.010484186932444572,0.005175810307264328,0.41644278168678284,-0.14793609082698822,-9.897452354431152
1745726719.2192004,-0.02370160073041916,-0.008119323290884495,0.0057580070570111275,0.2988341748714447,-0.348935604095459,-9.961277961730957
1745726719.2192793,-0.04426262900233269,-0.006933060474693775,0.005416384898126125,0.3793284595012665,-0.190334752202034,-9.66279411315918
1745726719.2344706,-0.03368178382515907,0.012891778722405434,-0.04339715093374252,0.38002872467041016,0.009535896591842175,-10.638670921325684
1745726719.237998,-0.05403757095336914,0.017495105043053627,-0.045535169541835785,0.35535719990730286,-0.13445636630058289,-10.04499626159668
1745726719.240872,-0.009837577119469643,0.009267277084290981,-0.045609716325998306,0.39580613374710083,0.35874372720718384,-8.823404312133789
1745726719.2443562,-0.012636886909604073,0.004473148845136166,-0.049920108169317245,0.4553094804286957,0.31685370206832886,-9.64374828338623
1745726719.2476034,0.013354060240089893,0.007706576492637396,-0.05388851836323738,0.32972556352615356,0.5015892386436462,-10.729927062988281
1745726719.2764359,0.05439964681863785,0.01657327450811863,-0.06041678041219711,0.32979366183280945,0.1136365681886673,-9.940083503723145
1745726719.2793038,0.04004865884780884,0.011946127749979496,-0.06320042908191681,0.37910300493240356,0.1616401970386505,-8.959264755249023
1745726719.2831707,0.04357378929853439,0.001328365528024733,-0.06417132914066315,0.27932944893836975,-0.25152796506881714,-9.648167610168457
1745726719.2832634,0.04264980927109718,0.008480359800159931,-0.06738418340682983,0.5870769619941711,-0.30948853492736816,-10.337446212768555
1745726719.4577966,0.02759675681591034,0.024690326303243637,-0.07100041210651398,0.3889008164405823,-0.0644940584897995,-9.854401588439941
1745726719.457941,0.014560624957084656,0.014595219865441322,-0.07541914284229279,0.5374263525009155,-0.5112408399581909,-9.257226943969727
1745726719.4579997,0.013209687545895576,0.0008442463586106896,-0.07717345654964447,0.556895911693573,-0.05323665216565132,-9.592999458312988
1745726719.4580903,0.0008807111298665404,0.022113511338829994,-0.08067832887172699,0.35536378622055054,-0.290867418050766,-10.432050704956055
1745726719.4581633,0.002693892689421773,0.018013741821050644,-0.07998589426279068,0.3277333378791809,-0.2592698931694031,-9.882451057434082
1745726719.4582295,0.019995486363768578,0.019918840378522873,-0.08024702966213226,0.15970245003700256,-0.001307111931964755,-9.085315704345703
1745726719.4582958,-0.005008234642446041,0.015162130817770958,-0.08356340229511261,0.4335866868495941,-0.11277654021978378,-9.60186767578125
1745726719.4583848,0.02845878340303898,0.014303306117653847,-0.08681418001651764,0.3660483956336975,0.21880312263965607,-10.319536209106445
1745726719.4584522,0.03635730594396591,0.02841169759631157,-0.09005739539861679,0.41772374510765076,0.03164233639836311,-9.89606761932373
1745726719.4585307,0.03361304849386215,0.017741817981004715,-0.09468783438205719,0.4344184398651123,0.15550300478935242,-9.28233528137207
1745726719.4586096,0.045650992542505264,0.01636476069688797,-0.09619294852018356,0.46414250135421753,-0.199564591050148,-9.719291687011719
1745726719.4586906,0.045029886066913605,0.016238491982221603,-0.09880826622247696,0.6334775686264038,-0.08165223896503448,-10.168438911437988
1745726719.4587479,0.037581976503133774,0.015268305316567421,-0.09531892836093903,-0.23868000507354736,-0.1821637898683548,-9.867034912109375
1745726719.458793,0.02646378055214882,0.012929369695484638,-0.10005055367946625,0.015431146137416363,-0.396867036819458,-9.428956985473633
1745726719.4588385,0.013252112083137035,0.0022110803984105587,-0.10373704135417938,0.3488995432853699,0.06277582794427872,-9.460447311401367
1745726719.4588888,-0.005097751971334219,0.003670820966362953,-0.10683976113796234,0.2786586880683899,-0.3246079385280609,-10.313407897949219
1745726719.4589264,0.008993458934128284,-0.0012564462376758456,-0.1035955399274826,0.4142783284187317,-0.22706560790538788,-10.107762336730957
1745726719.4589646,0.007162962108850479,0.005750120617449284,-0.09785725921392441,0.028375113382935524,-0.031028006225824356,-9.441569328308105
1745726719.4911711,0.004334715195000172,-0.0024295789189636707,-0.08976848423480988,0.33729320764541626,-0.5742394328117371,-9.376129150390625
1745726719.4929066,0.03180369362235069,-0.009905720129609108,-0.08574212342500687,0.28770989179611206,0.3731500506401062,-9.955641746520996
1745726719.4945593,0.032873861491680145,-0.0015981396427378058,-0.08574819564819336,0.11090908944606781,0.08959288895130157,-10.416325569152832
1745726719.4957428,0.07257053256034851,-0.008394461125135422,-0.08780444413423538,0.07421831786632538,0.4332423210144043,-9.511723518371582
1745726719.5417888,0.07272087037563324,-0.00986351165920496,-0.09282698482275009,0.01719854399561882,0.11045261472463608,-9.234171867370605
1745726719.5439198,0.06788554787635803,-0.01961209997534752,-0.09502395242452621,0.35421448945999146,-0.3343566358089447,-10.020151138305664
1745726719.5461671,0.0668986588716507,-0.013034438714385033,-0.09268083423376083,0.04219420254230499,-0.22974252700805664,-10.282594680786133
1745726719.550279,0.04030967503786087,-0.005888466723263264,-0.09046457707881927,0.35896971821784973,-0.897182285785675,-9.607446670532227
1745726719.5545473,0.025458771735429764,-0.020354362204670906,-0.08300171047449112,0.3050597608089447,-0.3872711658477783,-9.125833511352539
1745726719.7090287,0.02207774482667446,-0.014382844790816307,-0.042027730494737625,0.026928793638944626,-0.19274380803108215,-10.70429515838623
1745726719.709168,0.021984083577990532,-0.008308202028274536,-0.042039718478918076,0.36411353945732117,-0.49026042222976685,-8.840304374694824
1745726719.7092605,0.021318737417459488,-0.025291671976447105,-0.04409737512469292,0.41935497522354126,0.3313503563404083,-8.747904777526855
1745726719.7093506,0.007737436331808567,-0.026683684438467026,-0.04626936838030815,0.32401710748672485,-0.30128875374794006,-11.002032279968262
1745726719.7094188,0.03098229132592678,-0.010900450870394707,-0.04952423647046089,0.5782577991485596,-0.178218811750412,-10.61125373840332
1745726719.7094793,0.03146877884864807,-0.006577974651008844,-0.045332759618759155,0.22015568614006042,-0.33404940366744995,-8.953571319580078
1745726719.7095356,0.0070076799020171165,-0.024385878816246986,-0.036296047270298004,0.22144079208374023,-0.5785256624221802,-8.952668190002441
1745726719.709614,0.02612156607210636,-0.018929801881313324,-0.0320340171456337,0.15231475234031677,-0.2596438527107239,-10.388334274291992
1745726719.709689,0.012104528024792671,0.006604022346436977,-0.035180069506168365,0.32518765330314636,-0.24775893986225128,-10.429045677185059
1745726719.7097294,0.014374753460288048,-0.010596497915685177,-0.03800752013921738,0.2825738489627838,0.002204765332862735,-9.227066040039062
1745726719.7097692,0.027422716841101646,-0.01468659471720457,-0.04402037337422371,0.3333609700202942,0.02049037255346775,-9.37324047088623
1745726719.7098083,-0.0030663316138088703,-0.015143191441893578,-0.048697613179683685,0.4057215750217438,-0.26866811513900757,-10.50568962097168
1745726719.7098475,0.016533736139535904,-0.00394444027915597,-0.04773857071995735,0.2756569981575012,-0.44487300515174866,-10.230635643005371
1745726719.7098877,-0.017895612865686417,-0.002746721263974905,-0.0411786325275898,0.40161067247390747,-0.6086152791976929,-9.16554069519043
1745726719.7115028,-0.009344316087663174,-0.016226092353463173,-0.03772085905075073,0.16681134700775146,-0.2643986642360687,-9.44782829284668
1745726719.7129273,-0.01724327728152275,-0.0024733562022447586,-0.033641181886196136,0.4340628683567047,-0.233986496925354,-10.223749160766602
1745726719.715879,0.004553433507680893,-0.0016860660398378968,-0.039008162915706635,0.38912487030029297,0.2589448392391205,-10.113996505737305
1745726719.7500453,0.01618202216923237,-0.0074291289784014225,-0.043687548488378525,0.25294429063796997,0.15720725059509277,-9.581140518188477
1745726719.7518117,0.020593898370862007,-0.009643271565437317,-0.04524636268615723,0.21861319243907928,-0.048890624195337296,-9.647908210754395
1745726719.7541652,0.03706435114145279,-0.0012851657811552286,-0.04490670561790466,0.04263405129313469,-0.16813507676124573,-9.906434059143066
1745726719.7907,0.015204204246401787,0.008866637945175171,-0.047481048852205276,0.2679601311683655,-0.2945355772972107,-9.694466590881348
1745726719.7922876,0.004217452369630337,0.00046568960533477366,-0.04405973106622696,0.4646906852722168,-0.2090212106704712,-9.631288528442383
1745726719.7948365,0.015050334855914116,0.012672623619437218,-0.04076597839593887,0.26823529601097107,-0.38049954175949097,-10.055832862854004
1745726719.7960176,-0.009300276637077332,0.01242770440876484,-0.03974544256925583,0.2624881863594055,-0.4213991165161133,-9.878897666931152
1745726719.8062837,-0.004620520863682032,0.006385856308043003,-0.03693797439336777,0.2768952250480652,-0.1837175339460373,-9.43183708190918
1745726719.9507694,-0.010391263291239738,0.010523872449994087,-0.040947817265987396,0.42923077940940857,-0.13593807816505432,-9.688955307006836
1745726719.950964,-0.019010726362466812,0.004772873595356941,-0.04501671344041824,0.282001256942749,-0.08838073909282684,-10.249467849731445
1745726719.9510643,0.002006002003327012,0.01041807048022747,-0.04635567590594292,0.23681411147117615,-0.12120169401168823,-9.876344680786133
1745726719.9511142,-0.023769434541463852,0.01214823592454195,-0.045663513243198395,0.3284216821193695,-0.35866817831993103,-9.356306076049805
1745726719.9512115,-0.00025023799389600754,0.006918308325111866,-0.04083225876092911,0.14004528522491455,-0.23724159598350525,-9.614866256713867
1745726719.951298,-0.023216042667627335,0.013391746208071709,-0.03939976170659065,0.4048343598842621,-0.39988839626312256,-10.059267044067383
1745726719.9513752,0.0009125060169026256,0.015484531410038471,-0.03776146098971367,0.25255611538887024,0.01999899558722973,-9.929489135742188
1745726719.9514234,-0.010441647842526436,0.014361938461661339,-0.0389675572514534,0.3597235381603241,-0.1529792845249176,-9.50617504119873
1745726719.9514701,0.0018494471441954374,0.00835950393229723,-0.04109542816877365,0.3615993857383728,-0.004477418959140778,-9.618989944458008
1745726719.9515176,1.1706351870088838e-05,0.013047492131590843,-0.04574543610215187,0.23803532123565674,-0.10440818220376968,-10.10663890838623
1745726719.9515648,-0.01001822855323553,0.016218941658735275,-0.043800219893455505,0.3393145501613617,-0.37008580565452576,-9.868907928466797
1745726719.9516106,-0.0013808939838781953,0.010309288278222084,-0.043976522982120514,0.3022943139076233,-0.21767063438892365,-9.931221961975098
1745726719.9516666,-0.014243227429687977,0.006914070341736078,-0.04489758983254433,0.36653393507003784,-0.12325140088796616,-9.729475021362305
1745726719.9780169,-0.0006483005126938224,0.007469941861927509,-0.04504941776394844,0.14415377378463745,-0.14512760937213898,-9.630083084106445
1745726719.978135,-0.01966049149632454,0.0018346041906625032,-0.04294489696621895,0.4295662045478821,-0.28451409935951233,-9.717066764831543
1745726719.978195,0.007047387771308422,0.010742172598838806,-0.04530446603894234,0.259509414434433,0.031937725841999054,-9.814046859741211
1745726719.9782422,-0.013744431547820568,0.009376375004649162,-0.044474031776189804,0.35858458280563354,-0.2608617842197418,-9.798208236694336
1745726719.9782913,0.010506974533200264,0.0013980616349726915,-0.04391868785023689,0.408285915851593,0.0535925030708313,-9.63587760925293
1745726720.009567,0.0031088716350495815,0.008352519944310188,-0.04503018036484718,0.31935006380081177,-0.16720840334892273,-9.874688148498535
1745726720.0125134,0.0009564087959006429,0.0008393996395170689,-0.04580200836062431,0.4199153482913971,-0.2037733495235443,-9.86882209777832
1745726720.0139039,0.014976650476455688,0.007268453948199749,-0.04364442825317383,0.21152813732624054,-0.13599622249603271,-9.693801879882812
1745726720.0160964,-0.016367534175515175,0.002269734861329198,-0.04597153514623642,0.45592808723449707,-0.3270435333251953,-9.590887069702148
1745726720.0523057,0.012852001003921032,0.0032429415732622147,-0.04265563562512398,0.272742360830307,-0.04623189941048622,-9.786745071411133
1745726720.0571244,-0.01242983341217041,0.006022299639880657,-0.04538372904062271,0.39804965257644653,-0.25163084268569946,-9.979510307312012
1745726720.189466,0.0025297398678958416,-0.004612488206475973,-0.0457761213183403,0.39895039796829224,-0.10391883552074432,-9.757245063781738
1745726720.1895816,-0.0009188895928673446,0.007024095393717289,-0.04686015844345093,0.3382865786552429,-0.16163314878940582,-9.65567684173584
1745726720.1896737,-0.004455587361007929,-0.0024583961348980665,-0.0458512082695961,0.42131567001342773,-0.2195497751235962,-9.826723098754883
1745726720.1898212,0.004267603624612093,0.00019646323926281184,-0.04456669092178345,0.18231633305549622,-0.1356467455625534,-9.865092277526855
1745726720.189875,-0.0016920132329687476,0.0017137493705376983,-0.04095914214849472,0.46674180030822754,-0.30756086111068726,-9.708247184753418
1745726720.1899495,0.009315338917076588,0.0022511438000947237,-0.04457349702715874,0.2679925560951233,0.08596251159906387,-9.581681251525879
1745726720.1900063,-0.00841889251023531,-0.002420320874080062,-0.04456973448395729,0.32592424750328064,-0.26644763350486755,-9.867059707641602
1745726720.1900768,-0.011810068972408772,-0.00752422958612442,-0.04718838632106781,0.4800177216529846,-0.46211132407188416,-9.785070419311523
1745726720.1901226,0.01279402058571577,-0.004528083838522434,-0.04638604819774628,0.3185161054134369,0.02159632369875908,-9.814489364624023
1745726720.1901937,-0.014377946965396404,-0.0047404649667441845,-0.04577116295695305,0.4002717137336731,-0.3199048936367035,-9.88484001159668
1745726720.19025,0.0019406136125326157,-0.010594816878437996,-0.04919715225696564,0.44934573769569397,-0.07658638060092926,-9.714031219482422
1745726720.190297,-0.0025002802722156048,-0.0022555035538971424,-0.047324858605861664,0.2253827154636383,-0.14371412992477417,-9.80151653289795
1745726720.190336,-0.013171276077628136,-0.011657030321657658,-0.048303693532943726,0.4077577590942383,-0.20687952637672424,-9.803060531616211
1745726720.1903749,0.007404712028801441,-0.006917362101376057,-0.04781558737158775,0.22575466334819794,-0.061274249106645584,-9.775218963623047
1745726720.1913004,-0.006245910190045834,-0.006230801343917847,-0.048144154250621796,0.44445380568504333,-0.193386971950531,-9.760228157043457
1745726720.2217495,0.013033973053097725,-0.009518899023532867,-0.05035071447491646,0.2693893611431122,0.07543204724788666,-9.744784355163574
1745726720.2237735,-0.00030529871582984924,-0.005603221710771322,-0.05049945041537285,0.29644688963890076,-0.25401562452316284,-9.878541946411133
1745726720.2269723,0.012377130798995495,-0.01159907877445221,-0.05011724680662155,0.4540383815765381,-0.08262970298528671,-9.655059814453125
1745726720.2282615,0.0020029270090162754,-0.003765201661735773,-0.04905707389116287,0.2644210457801819,-0.2795538604259491,-9.85590648651123
1745726720.2292998,0.0012711946619674563,-0.010936228558421135,-0.049161627888679504,0.41666379570961,-0.20389001071453094,-9.877480506896973
1745726720.26901,0.006555322557687759,-0.008795435540378094,-0.04811692610383034,0.2717667520046234,-0.19680440425872803,-9.798150062561035
1745726720.272308,-0.0020366772077977657,-0.004973954521119595,-0.04867488145828247,0.3901459872722626,-0.20097020268440247,-9.735831260681152
1745726720.2758298,0.0004407013184390962,-0.00795295462012291,-0.0505746491253376,0.24506840109825134,-0.033889852464199066,-9.744142532348633
1745726720.2792008,-0.0705660954117775,0.012910166755318642,0.023066295310854912,0.2215127944946289,-0.44844546914100647,-10.175018310546875
1745726720.4370522,-0.08074508607387543,0.0036330639850348234,0.02707628533244133,0.34577566385269165,-0.057576704770326614,-9.243133544921875
1745726720.4371958,-0.07324697822332382,-0.001527035841718316,0.030839646235108376,0.30246710777282715,-0.00702812522649765,-9.469785690307617
1745726720.4373133,-0.05374562740325928,0.0034255150239914656,0.03682173416018486,0.40147143602371216,-0.035320036113262177,-10.285959243774414
1745726720.4374056,-0.045163463801145554,0.006687371991574764,0.040039874613285065,0.27068960666656494,0.3775753974914551,-10.088288307189941
1745726720.4375074,-0.013748204335570335,0.01085571013391018,0.04183218628168106,0.3756256699562073,0.03051706589758396,-9.380541801452637
1745726720.4376059,-0.017356181517243385,-0.004004471004009247,0.04370854049921036,0.49466124176979065,0.40172696113586426,-9.407217025756836
1745726720.437723,-0.0012446779292076826,0.00029421201907098293,0.04183464124798775,0.4160781502723694,-0.1177629679441452,-10.369247436523438
1745726720.4377882,-0.003194184275344014,0.004522228613495827,0.04520538076758385,0.5138718485832214,-0.08600375056266785,-10.131657600402832
1745726720.4378276,-0.012297171168029308,0.008331643417477608,0.04722597077488899,0.16592077910900116,-0.22537560760974884,-9.38748550415039
1745726720.4378664,-0.03260287269949913,-0.0022172429598867893,0.05048344284296036,0.4559241831302643,-0.5551403760910034,-9.344223976135254
1745726720.437905,-0.030744517222046852,-0.0023145414888858795,0.05574651435017586,0.5438395738601685,-0.1008521094918251,-10.058079719543457
1745726720.4379523,-0.04793374985456467,0.011692787520587444,0.054981768131256104,0.26246610283851624,-0.32421836256980896,-10.393237113952637
1745726720.437992,-0.04611080884933472,0.0009221602231264114,0.0598108246922493,0.29631203413009644,-0.22111216187477112,-9.4542818069458
1745726720.4380386,-0.042721666395664215,0.008308093063533306,0.06373734027147293,0.23755589127540588,-0.17593979835510254,-9.144083976745605
1745726720.439905,-0.0648685023188591,0.0037918626330792904,0.06530730426311493,0.33866816759109497,-0.3292900025844574,-10.072999954223633
1745726720.4442434,-0.046665407717227936,0.00448208674788475,0.07078579813241959,0.2556796967983246,-0.11646952480077744,-10.284788131713867
1745726720.4456863,-0.05858292430639267,0.01931576430797577,0.06923162192106247,0.36100977659225464,-0.23694224655628204,-9.579384803771973
1745726720.448993,-0.06243666261434555,0.006474399473518133,0.07471547275781631,0.22417744994163513,0.05076444149017334,-9.229641914367676
1745726720.4822698,-0.06595568358898163,0.005728164222091436,0.07438556849956512,0.4350404739379883,-0.2509836256504059,-9.931642532348633
1745726720.4854944,-0.09988836944103241,-0.009928149171173573,0.08958018571138382,0.3982113003730774,-0.16295544803142548,-9.860548973083496
1745726720.485621,-0.0987330749630928,0.003555683419108391,0.0873272716999054,0.35466790199279785,-0.21452155709266663,-10.033936500549316
1745726720.497486,-0.11837490648031235,0.0010413799900561571,0.08744174987077713,0.2473187893629074,0.13692744076251984,-9.657020568847656
1745726720.525998,-0.09546482563018799,-0.0031109319534152746,0.08850288391113281,0.16086836159229279,0.08971714973449707,-9.46230411529541
1745726720.5281124,-0.09550943970680237,-0.005136245395988226,0.09058628976345062,0.46821174025535583,0.24967801570892334,-9.761514663696289
1745726720.5305605,-0.06881637871265411,-0.0012762349797412753,0.09139955043792725,0.1760772168636322,0.37961870431900024,-10.152254104614258
1745726720.530735,-0.055259108543395996,0.0028210566379129887,0.09179966896772385,0.30220821499824524,0.16578596830368042,-9.766103744506836
1745726720.6812615,-0.03851189464330673,-0.007117725908756256,0.09425955265760422,0.3311164975166321,0.3369468152523041,-9.328561782836914
1745726720.6813884,-0.031621262431144714,-0.0034695423673838377,0.09462438523769379,0.33940252661705017,0.049362748861312866,-9.82446575164795
1745726720.6815374,-0.039157934486866,-0.00822670292109251,0.09663659334182739,0.5043993592262268,-0.053883980959653854,-10.237009048461914
1745726720.6816673,-0.029006585478782654,-0.002907307120040059,0.09598280489444733,0.2234167605638504,-0.11212201416492462,-9.864142417907715
1745726720.6817372,-0.06330526620149612,-0.004179492127150297,0.09520237147808075,0.4192139506340027,-0.2564769387245178,-9.352310180664062
1745726720.6818173,-0.0708005428314209,-0.012390324845910072,0.09804724901914597,0.2540319859981537,-0.18674887716770172,-9.702688217163086
1745726720.6818836,-0.07868564873933792,-0.00794164091348648,0.09681658446788788,0.4407007694244385,-0.27962809801101685,-10.156452178955078
1745726720.6819406,-0.09697176516056061,-0.006857123225927353,0.09994862228631973,0.35181504487991333,-0.01893451437354088,-9.874256134033203
1745726720.6819873,-0.08568857610225677,-0.006022824440151453,0.10074286162853241,0.2150476723909378,-0.14662356674671173,-9.52786922454834
1745726720.6820343,-0.04772111028432846,-0.003194304183125496,0.10978218168020248,0.4774128496646881,0.08018019050359726,-10.062324523925781
1745726720.6820798,-0.03085431084036827,-0.0011231747921556234,0.11037884652614594,0.12626925110816956,0.31496748328208923,-9.54875659942627
1745726720.6821244,-0.021894872188568115,-0.003508385270833969,0.11018657684326172,0.343707799911499,0.10971049219369888,-9.39289665222168
1745726720.6821694,-0.025934141129255295,-0.007784949149936438,0.10922981798648834,0.42982983589172363,0.31202447414398193,-9.985712051391602
1745726720.695135,-0.012296994216740131,0.0012228097766637802,0.10686437040567398,0.20948302745819092,0.16325879096984863,-10.257879257202148
1745726720.6972027,-0.028401102870702744,-0.00607720110565424,0.10362614691257477,0.38768333196640015,-0.009104421362280846,-9.627703666687012
1745726720.6987689,-0.01655859500169754,-0.005859326105564833,0.10408742725849152,0.30854684114456177,0.04277271032333374,-9.391822814941406
1745726720.7001834,-0.05503712221980095,-0.0038635260425508022,0.10550204664468765,0.4707137644290924,-0.1892051100730896,-10.001394271850586
1745726720.702577,-0.045948345214128494,-0.012211274355649948,0.10423426330089569,0.39759916067123413,0.026172369718551636,-10.200786590576172
1745726720.7396958,-0.047812316566705704,0.0008078360697254539,0.1052752360701561,0.4144105017185211,-0.09155158698558807,-9.66939640045166
1745726720.7431724,-0.0656994953751564,-0.006964848842471838,0.10726954787969589,0.3597533702850342,0.2718583941459656,-9.432409286499023
1745726720.7455082,-0.04568333178758621,-0.007698943372815847,0.10706190764904022,0.2945106327533722,0.1312810331583023,-9.981465339660645
1745726720.7486033,-0.039805300533771515,-0.005767131224274635,0.10498692840337753,0.4101101756095886,0.42169079184532166,-10.018567085266113
1745726720.7823648,-0.02984219789505005,0.0012264444958418608,0.10497089475393295,0.06748592108488083,0.42592939734458923,-9.75655746459961
1745726720.7860806,-0.017523590475320816,-0.002259892877191305,0.10358437150716782,0.29064348340034485,0.14700494706630707,-9.399563789367676
1745726720.787596,-0.010260996408760548,-0.0068602426908910275,0.10446854680776596,0.281768262386322,0.4922963082790375,-9.722421646118164
1745726720.929217,-0.008988246321678162,0.008108766749501228,0.10283975303173065,0.3082691729068756,0.0383075550198555,-10.241597175598145
1745726720.9293697,-0.00445663183927536,-0.004253636114299297,0.10170508921146393,0.46000510454177856,0.1814902126789093,-9.68747615814209
1745726720.9294353,-0.011100794188678265,0.0051900786347687244,0.1037566065788269,0.2724403738975525,0.038964949548244476,-9.50442886352539
1745726720.9294777,-0.02940029464662075,-0.0009156381711363792,0.10465957224369049,0.44816461205482483,-0.07588182389736176,-9.927863121032715
1745726720.9295666,0.0034771014470607042,0.007329851388931274,0.12107255309820175,0.2578583359718323,0.33711716532707214,-10.135126113891602
1745726720.9296587,-0.0004020383639726788,0.00951759610325098,0.12443561851978302,0.3622259497642517,0.2908034920692444,-9.852897644042969
1745726720.9297504,0.013809077441692352,0.005057799629867077,0.1257881075143814,0.23079147934913635,0.31534820795059204,-9.346295356750488
1745726720.9298651,0.0014437956269830465,0.0064523667097091675,0.1286519467830658,0.43125414848327637,-0.14234688878059387,-9.72620677947998
1745726720.9299164,0.01215024571865797,0.007960868068039417,0.1326434314250946,0.347098171710968,0.18512751162052155,-10.027387619018555
1745726720.9299557,-0.00117249577306211,0.020328525453805923,0.13328884541988373,0.30159419775009155,-0.16111841797828674,-9.923245429992676
1745726720.929995,-0.015816697850823402,0.008691917173564434,0.13648675382137299,0.3842725157737732,0.0556134469807148,-9.469561576843262
1745726720.9300344,-0.01328139565885067,0.007063108030706644,0.13600608706474304,0.3875429034233093,-0.04014027118682861,-9.754903793334961
1745726720.9300747,-0.043594010174274445,0.013016359880566597,0.13542690873146057,0.4580385088920593,0.047358106821775436,-10.118390083312988
1745726720.9301145,-0.035075608640909195,0.010063315741717815,0.13403069972991943,0.15129663050174713,0.12433123588562012,-9.887094497680664
1745726720.9301531,-0.04498133063316345,0.011261390522122383,0.13577096164226532,0.4717640280723572,0.07496371865272522,-9.392861366271973
1745726720.9551604,-0.04400215670466423,0.007592196110635996,0.13961604237556458,0.4689411222934723,0.3033357262611389,-9.725050926208496
1745726720.9562383,-0.03593297302722931,0.010978471487760544,0.1428951472043991,0.4305427670478821,0.09864465892314911,-10.272241592407227
1745726720.9584007,-0.02923327125608921,0.008557602763175964,0.1460389792919159,0.5144253969192505,0.40697208046913147,-9.825596809387207
1745726720.9615338,-0.010865680873394012,0.01429549790918827,0.14770567417144775,0.3104645609855652,0.33745184540748596,-9.4373140335083
1745726720.997376,-0.017989765852689743,0.006328791379928589,0.14957717061042786,0.5409983396530151,0.36847150325775146,-9.633872032165527
1745726721.0033681,-0.024609310552477837,0.01061092596501112,0.1739366352558136,0.5358680486679077,0.18525099754333496,-9.547422409057617
1745726721.0046842,-0.03284619748592377,0.01141967810690403,0.17670941352844238,0.37873154878616333,-0.058155544102191925,-9.867631912231445
1745726721.0086968,-0.038906339555978775,0.005422352347522974,0.17736825346946716,0.463265597820282,0.13355500996112823,-9.881818771362305
1745726721.0397747,-0.02308361604809761,0.01348468940705061,0.17828239500522614,0.37134331464767456,0.23802296817302704,-9.696361541748047
1745726721.1759484,-0.05346084386110306,0.011222434230148792,0.1787606030702591,0.5064080953598022,0.15084102749824524,-9.674738883972168
1745726721.1761577,-0.03315255045890808,0.011989145539700985,0.18055257201194763,0.43604618310928345,0.24988718330860138,-9.753450393676758
1745726721.1762567,-0.02739032730460167,0.0047854953445494175,0.18166591227054596,0.4160431921482086,0.2439647912979126,-9.650200843811035
1745726721.17635,-0.024587346240878105,0.0002864898997358978,0.1816832274198532,0.6742315888404846,0.26604723930358887,-9.884265899658203
1745726721.176409,-0.02926764450967312,0.0034556686878204346,0.18435125052928925,0.4120450019836426,-0.0775771290063858,-9.699984550476074
1745726721.176451,-0.01633920520544052,-1.3948231753602158e-05,0.186358243227005,0.47290515899658203,0.4492293894290924,-9.334661483764648
1745726721.1764948,-0.038675785064697266,0.0077937692403793335,0.18762461841106415,0.4912363886833191,-0.05041391775012016,-10.029816627502441
1745726721.1765351,-0.02795371785759926,-0.0036461122799664736,0.18742287158966064,0.33215609192848206,0.38582706451416016,-10.082967758178711
1745726721.1765914,-0.029223212972283363,0.0059211766347289085,0.18683001399040222,0.3230314552783966,0.08354667574167252,-9.546862602233887
1745726721.1766295,-0.03282221406698227,0.003919159062206745,0.19007495045661926,0.49943026900291443,0.29286131262779236,-9.360967636108398
1745726721.176683,-0.0416567400097847,-2.812352067849133e-05,0.19024154543876648,0.3585990071296692,0.1818810999393463,-9.997113227844238
1745726721.1767378,-0.032013021409511566,-0.001765763619914651,0.1922360360622406,0.6285458207130432,-0.03142288699746132,-10.123917579650879
1745726721.1767762,-0.03898308426141739,0.008230010978877544,0.19421711564064026,0.3711715638637543,0.40630093216896057,-9.50793170928955
1745726721.1768177,-0.04899153858423233,2.2564083337783813e-05,0.20812678337097168,0.4667263925075531,0.09920613467693329,-9.384634017944336
1745726721.2115276,-0.04969194158911705,-0.006036690436303616,0.20888936519622803,0.27574801445007324,0.16610679030418396,-9.620527267456055
1745726721.2134001,-0.054541341960430145,-0.005195506848394871,0.20783081650733948,0.5116113424301147,0.2814335823059082,-9.999863624572754
1745726721.2145026,-0.052818574011325836,-0.014706870540976524,0.20923881232738495,0.7609298229217529,0.31229424476623535,-10.021679878234863
1745726721.215787,-0.030422840267419815,0.001201649196445942,0.20595721900463104,-0.033361006528139114,0.7887235879898071,-9.891241073608398
1745726721.2546177,-0.0467572882771492,-0.011979037895798683,0.20309770107269287,0.40310296416282654,0.1978873759508133,-9.294522285461426
1745726721.2583756,0.001842403202317655,-0.021964162588119507,0.20002171397209167,0.14286938309669495,0.7110462784767151,-9.696478843688965
1745726721.2605312,-0.03044174239039421,-0.009029118344187737,0.19769828021526337,0.06518422812223434,0.24251648783683777,-10.336934089660645
1745726721.2624748,0.009105418808758259,-0.008431309834122658,0.19721417129039764,-0.10937068611383438,0.3826325535774231,-9.646010398864746
1745726721.2628522,-0.007584226783365011,-0.006914258934557438,0.19493073225021362,0.12599900364875793,0.031133387237787247,-9.055459976196289
1745726721.4209266,-0.02155136689543724,-0.019851582124829292,0.195408895611763,0.43872618675231934,0.12273099273443222,-9.79896068572998
1745726721.421034,-0.026528755202889442,-0.01654195226728916,0.19157950580120087,0.2350851595401764,0.026429563760757446,-10.669099807739258
1745726721.4211383,-0.03299891948699951,-0.008441479876637459,0.19476763904094696,0.412445068359375,-0.2836250364780426,-9.832075119018555
1745726721.4212606,-0.05334629863500595,-0.01348557323217392,0.19445741176605225,0.17323024570941925,0.15650255978107452,-8.913835525512695
1745726721.4213765,-0.09869587421417236,-0.02547399140894413,0.1948469579219818,0.3795225918292999,-0.43923577666282654,-9.882168769836426
1745726721.421484,-0.06683403253555298,-0.02754746749997139,0.19547323882579803,0.3291618824005127,0.46722936630249023,-10.428403854370117
1745726721.4215672,0.00655279029160738,-0.038470134139060974,0.1737554669380188,0.2803725302219391,0.1841445118188858,-10.110160827636719
1745726721.4217246,-0.005146288312971592,-0.0290538277477026,0.17632023990154266,0.44068533182144165,0.22706949710845947,-9.877964973449707
1745726721.4217782,-0.007585976272821426,-0.030943196266889572,0.17550867795944214,0.010734798386693,0.31631964445114136,-9.648905754089355
1745726721.421818,-0.0043770442716777325,-0.03437050059437752,0.17692188918590546,0.19407275319099426,0.11579789221286774,-9.568211555480957
1745726721.4218576,-0.0022444624919444323,-0.030266612768173218,0.1763608157634735,0.20833416283130646,0.4980921149253845,-9.803096771240234
1745726721.4218972,-0.006042698863893747,-0.02481398917734623,0.17427699267864227,0.2088913917541504,0.20396451652050018,-10.025497436523438
1745726721.4219353,-0.005340726114809513,-0.03045559860765934,0.17523233592510223,0.3280941843986511,0.287691205739975,-9.774677276611328
1745726721.428352,0.004199176095426083,-0.022994477301836014,0.17614129185676575,0.1580183357000351,0.2507154047489166,-9.59305477142334
1745726721.4313016,-0.026949655264616013,-0.024158934131264687,0.17791369557380676,0.3835866451263428,0.022515516728162766,-9.775388717651367
1745726721.4332952,-0.013989776372909546,-0.026925574988126755,0.18328356742858887,0.3167595863342285,0.2803599536418915,-9.913026809692383
1745726721.4374287,-0.020294368267059326,-0.019628269597887993,0.18261967599391937,0.3104870915412903,0.2619389593601227,-9.923988342285156
1745726721.4738326,-0.0442446768283844,-0.028449038043618202,0.17937807738780975,0.16532817482948303,0.4463213086128235,-9.74964714050293
1745726721.476769,-0.01608169637620449,-0.019489243626594543,0.17845532298088074,0.4320346713066101,0.3531908094882965,-9.643587112426758
1745726721.4794164,-0.03818124160170555,-0.03604757413268089,0.17543169856071472,0.3575178384780884,0.716487467288971,-9.981904983520508
1745726721.4854383,0.0089589087292552,-0.011572069488465786,0.1732025444507599,0.2723549008369446,0.6506693959236145,-9.95121955871582
1745726721.5152543,0.022129710763692856,-0.02739170752465725,0.17413775622844696,0.7868122458457947,0.5890125036239624,-9.44489574432373
1745726721.519753,0.03859700262546539,-0.03133605420589447,0.17622321844100952,0.3742958605289459,0.5861750245094299,-9.954917907714844
1745726721.522216,0.052953414618968964,-0.016326159238815308,0.18130099773406982,0.22534461319446564,0.1907469630241394,-10.229253768920898
1745726721.525821,0.06411643326282501,-0.015808772295713425,0.18218132853507996,0.12425661087036133,0.4108451306819916,-9.464349746704102
1745726721.6679382,0.04974221810698509,-0.00910826213657856,0.1578320562839508,0.5714127421379089,0.10401008278131485,-10.067171096801758
1745726721.668052,0.04418746381998062,0.01320067048072815,0.16107815504074097,0.45372599363327026,0.07089491188526154,-10.188339233398438
1745726721.6681955,0.010508726350963116,0.009314034134149551,0.162652388215065,0.4860994219779968,-0.10699804127216339,-9.538534164428711
1745726721.668267,0.027791719883680344,-0.003502200823277235,0.16079196333885193,0.3621825575828552,0.31151753664016724,-9.392451286315918
1745726721.6683507,0.006001004483550787,0.005172200500965118,0.16080491244792938,0.4011898934841156,0.20455041527748108,-10.127269744873047
1745726721.6684315,0.02627241611480713,0.00653806421905756,0.1583518385887146,0.09170662611722946,0.5333396196365356,-10.0966157913208
1745726721.6684813,0.02265455201268196,0.0137090515345335,0.15463262796401978,0.11988747119903564,0.21920423209667206,-9.437512397766113
1745726721.6685393,0.02512001432478428,0.004834116902202368,0.15518218278884888,0.1755787879228592,0.427910715341568,-9.29438591003418
1745726721.6685922,0.03216654807329178,0.012393763288855553,0.15472112596035004,0.21391193568706512,0.30135399103164673,-9.981664657592773
1745726721.668651,0.03095890022814274,0.01814364641904831,0.15544749796390533,0.47155505418777466,0.19080588221549988,-10.135302543640137
1745726721.6687083,0.04295041412115097,0.017308732494711876,0.15553443133831024,0.34592321515083313,0.3050916790962219,-9.537781715393066
1745726721.668759,0.017646487802267075,0.011479126289486885,0.1550648957490921,0.5402845144271851,-0.02494453825056553,-9.551620483398438
1745726721.6688032,0.033124785870313644,0.012728768400847912,0.15783926844596863,0.33169907331466675,0.25490638613700867,-9.990062713623047
1745726721.6879227,0.008737239055335522,0.026372751221060753,0.1578533947467804,0.3510517477989197,0.06779839098453522,-9.99360466003418
1745726721.6910734,0.010084064677357674,0.010276761837303638,0.15821774303913116,0.3070397675037384,0.29738950729370117,-9.568807601928711
1745726721.693184,0.018351484090089798,0.01875401847064495,0.15646913647651672,0.26195141673088074,0.40837278962135315,-9.50325870513916
1745726721.6971602,0.017912913113832474,0.012952813878655434,0.1633414626121521,0.3879605829715729,0.2618892788887024,-9.918632507324219
1745726721.7295089,0.010838322341442108,0.01916402019560337,0.16580411791801453,0.35965874791145325,0.1162249892950058,-9.607510566711426
1745726721.7312436,0.001700382330454886,0.005927118472754955,0.16506507992744446,0.32952970266342163,0.2670186460018158,-9.544672966003418
1745726721.7328591,0.027224650606513023,0.01535121165215969,0.1676565706729889,0.2703234553337097,0.16914960741996765,-9.85197639465332
1745726721.7352316,0.0021098509896546602,0.012932242825627327,0.16503620147705078,0.4172345995903015,0.48108625411987305,-9.836734771728516
1745726721.7718575,0.028443431481719017,0.011707030236721039,0.16633370518684387,0.23583316802978516,0.16051004827022552,-9.74305534362793
1745726721.7741442,0.02234373614192009,0.017363836988806725,0.16416911780834198,0.4964069426059723,0.36702191829681396,-9.517637252807617
1745726721.77519,0.01361150573939085,0.009649088606238365,0.1650361269712448,0.290256142616272,0.130232572555542,-9.86475944519043
1745726721.7771862,0.019991224631667137,0.014861896634101868,0.16610881686210632,0.5035571455955505,-0.0907510295510292,-9.862689018249512
1745726721.9131045,0.010740140452980995,0.01406694483011961,0.16927602887153625,0.5216385722160339,0.31032437086105347,-9.668073654174805
1745726721.9133093,-0.0030031774658709764,0.01049096416682005,0.16996464133262634,0.29999250173568726,-0.030628394335508347,-9.846466064453125
1745726721.9134195,0.004180591553449631,0.006119647994637489,0.16793912649154663,0.47888150811195374,0.24312730133533478,-9.708102226257324
1745726721.913478,-0.0006274029728956521,0.014766807667911053,0.16751167178153992,0.3525262475013733,0.41364797949790955,-9.737890243530273
1745726721.9135687,-0.006818726658821106,0.007311838213354349,0.1648978441953659,0.4245034158229828,0.15647828578948975,-9.877543449401855
1745726721.9136982,0.00801643542945385,-0.0009157828171737492,0.16256625950336456,0.473349004983902,0.44930845499038696,-9.765214920043945
1745726721.9137468,0.009134653955698013,0.009357690811157227,0.1609269678592682,0.3478522002696991,0.23707517981529236,-9.873403549194336
1745726721.9137874,0.013416705653071404,0.0004893153090961277,0.157663494348526,0.36534374952316284,0.4213990569114685,-9.617013931274414
1745726721.9138305,0.029708603397011757,0.001241937279701233,0.16151201725006104,0.3605567514896393,0.1504390686750412,-9.738421440124512
1745726721.9138699,0.02793779969215393,-0.00011107027239631861,0.15809190273284912,0.2921410799026489,0.3718119263648987,-9.938714981079102
1745726721.9143329,0.02939336933195591,-0.015245827846229076,0.1394435465335846,0.2543347477912903,0.14625997841358185,-9.941314697265625
1745726721.9144323,0.029344942420721054,-0.015136145055294037,0.1423702985048294,0.45830273628234863,-0.09224522113800049,-9.998373031616211
1745726721.914491,0.02357843890786171,-0.015202319249510765,0.14124789834022522,0.2730109393596649,0.1986343413591385,-9.599410057067871
1745726721.9172306,0.0025165535043925047,-0.011950093321502209,0.1417641043663025,0.3251323103904724,-0.18454572558403015,-9.634247779846191
1745726721.9462495,-0.0030666564125567675,-0.0242815762758255,0.14086483418941498,0.4036426544189453,0.1450590342283249,-9.817219734191895
1745726721.950218,0.0004411044646985829,-0.012871170416474342,0.1391884982585907,0.22673830389976501,0.17063406109809875,-10.00920581817627
1745726721.9534569,-0.02225198969244957,-0.018068987876176834,0.1382460594177246,0.3325117230415344,0.08725644648075104,-9.768651008605957
1745726721.95556,0.0017528701573610306,-0.016953755170106888,0.13916558027267456,0.17656096816062927,0.24602580070495605,-9.513404846191406
1745726721.9872239,-0.016722554340958595,-0.01281819213181734,0.13597449660301208,0.3466266989707947,0.10246386379003525,-9.765297889709473
1745726721.9893105,-0.0064026243053376675,-0.022458240389823914,0.13879366219043732,0.2641642987728119,0.370216429233551,-9.939245223999023
1745726721.9920058,0.01050722599029541,-0.015347247943282127,0.13665390014648438,0.39838123321533203,0.1797909438610077,-9.858041763305664
1745726721.9955204,0.004964569117873907,-0.016917964443564415,0.13805778324604034,0.40119633078575134,0.5082465410232544,-9.598340034484863
1745726722.0028872,0.01450128573924303,-0.021174520254135132,0.13617855310440063,0.19797280430793762,0.18709120154380798,-9.912752151489258
1745726722.1607022,0.014119592495262623,-0.02153129130601883,0.1346919983625412,0.5197765231132507,0.29297930002212524,-9.826017379760742
