timestamp,angular_vel_x,angular_vel_y,angular_vel_z,linear_acc_x,linear_acc_y,linear_acc_z
1745653729.0223565,0.006632551550865173,-0.0007789292139932513,0.0013208365999162197,0.2628243565559387,-0.1538587361574173,-9.790922164916992
1745653729.0238843,0.0005357518093660474,-0.004361312836408615,0.003827205393463373,0.3660971224308014,-0.08668068796396255,-9.781885147094727
1745653729.0277603,0.008848069235682487,-0.0035717845894396305,-0.0018170395633205771,0.17507146298885345,-0.1061934232711792,-9.859362602233887
1745653729.0331113,0.007162595633417368,-0.0003776703088078648,0.0015998759772628546,0.33455145359039307,-0.1736423671245575,-9.737546920776367
1745653729.0860324,-0.01181473396718502,-0.001841766177676618,0.01193438470363617,0.3734297454357147,-0.04434257745742798,-9.52673053741455
1745653729.0866125,-0.026127183809876442,-0.0015102236066013575,0.007142714224755764,0.4027572572231293,-0.13595572113990784,-9.98177433013916
1745653729.0870094,-0.014265306293964386,0.0011578669073060155,0.00848793052136898,0.504786491394043,-0.13211290538311005,-9.93566608428955
1745653729.0870454,-0.024144841358065605,0.01424000971019268,0.010097026824951172,0.25766730308532715,-0.019517462700605392,-9.622233390808105
1745653729.1074963,-0.015557860024273396,0.005720410495996475,0.008175869472324848,0.6724951267242432,-0.24133840203285217,-9.456936836242676
1745653729.1102505,-0.012418088503181934,0.0008020824752748013,0.011667144484817982,0.6143229603767395,0.08710941672325134,-9.994636535644531
1745653729.1131535,-0.01688212715089321,0.013185977935791016,0.013993213884532452,0.4687040448188782,-0.38135144114494324,-10.180717468261719
1745653729.1166077,0.013141030445694923,0.01768869161605835,0.01489579863846302,0.34572023153305054,0.32279640436172485,-9.31663703918457
1745653729.149312,-0.013160131871700287,0.010827417485415936,0.01343806367367506,0.595576286315918,-0.07509622722864151,-9.444354057312012
1745653729.1522298,0.022082960233092308,-0.001343737356364727,0.012662239372730255,0.6408886313438416,-0.07464342564344406,-10.265528678894043
1745653729.1555278,0.0037915545981377363,0.024308402091264725,0.009670120663940907,0.3492748439311981,0.17060944437980652,-10.187685012817383
1745653729.1745348,0.013287579640746117,0.02262035384774208,0.007910105399787426,0.46253257989883423,-0.2348369061946869,-9.236175537109375
1745653729.1746125,0.020891768857836723,0.012591210193932056,0.00955977477133274,0.5145789384841919,-0.002894413424655795,-9.099082946777344
1745653729.1936834,-0.004064643289893866,0.017129529267549515,0.00747106596827507,0.8451522588729858,-0.3483535945415497,-10.26043701171875
1745653729.1961796,0.01617336831986904,0.019997360184788704,0.008149000816047192,0.547073245048523,-0.19241993129253387,-10.4609375
1745653729.199134,-0.014538261108100414,0.05850173905491829,0.018684905022382736,0.5578016638755798,-0.4039338529109955,-9.505637168884277
1745653729.2059069,-0.005605076439678669,0.053188763558864594,0.019149919971823692,0.3616566061973572,-0.027088511735200882,-9.547689437866211
1745653729.2351887,-0.03002016618847847,0.0572262778878212,0.018756777048110962,0.5061628222465515,-0.25791269540786743,-9.969792366027832
1745653729.2446861,-0.006803041789680719,0.05776013806462288,0.01717418245971203,0.4428817331790924,-0.045594096183776855,-9.909788131713867
1745653729.2449849,-0.020577970892190933,0.0527232363820076,0.01722688041627407,0.3399612009525299,-0.11730985343456268,-9.615995407104492
1745653729.2451353,-0.01519128866493702,0.04905679076910019,0.01807548478245735,0.4810184836387634,-0.22908487915992737,-9.677623748779297
1745653729.2459946,-0.011553974822163582,0.0486910454928875,0.01739928126335144,0.347644180059433,-0.03364744782447815,-9.909341812133789
1745653729.281961,-0.020225796848535538,0.047015752643346786,0.020299827679991722,0.47685250639915466,-0.4269102215766907,-9.93132209777832
1745653729.282041,-0.009871195070445538,0.04948340728878975,0.02291051670908928,0.39369869232177734,-0.10100676864385605,-9.491758346557617
1745653729.2905834,-0.026322733610868454,0.04477305710315704,0.022306939586997032,0.47106117010116577,-0.2341260015964508,-9.651679039001465
1745653729.2906547,-0.01752130500972271,0.033980369567871094,0.02338293008506298,0.4932381212711334,0.016888204962015152,-9.920884132385254
1745653729.3236341,-0.021998275071382523,0.04286400228738785,0.018734784796833992,0.4450560510158539,-0.16561874747276306,-9.98207950592041
1745653729.3292232,-0.022829337045550346,0.0399821475148201,0.017594728618860245,0.35241571068763733,-0.018950268626213074,-9.707620620727539
1745653729.3293273,-0.03229283168911934,0.032767895609140396,0.015500066801905632,0.2192583978176117,-0.15973713994026184,-9.596813201904297
1745653729.3311322,-0.01663823053240776,0.02823047712445259,0.017102980986237526,0.5313119888305664,-0.1735275685787201,-9.693737983703613
1745653729.3651743,-0.03544536978006363,0.030454862862825394,0.016055723652243614,0.3276175856590271,-0.10200086981058121,-9.973806381225586
1745653729.3696358,-0.017023086547851562,0.03441708907485008,0.019877949729561806,0.37979835271835327,-0.2665955126285553,-9.721100807189941
1745653729.3763487,-0.02441982552409172,0.024139033630490303,0.018604736775159836,0.4182022511959076,0.0524008572101593,-9.475717544555664
1745653729.376495,-0.022578364238142967,0.02301756665110588,0.019387532025575638,0.4247233271598816,-0.2662525475025177,-9.916406631469727
1745653729.37658,-0.01416681706905365,0.018665898591279984,0.02080709859728813,0.5261740684509277,-0.09983682632446289,-10.026257514953613
1745653729.4110126,-0.026734914630651474,0.02024797536432743,0.018538452684879303,0.21151430904865265,-0.10247872769832611,-9.828777313232422
1745653729.4110734,-0.019900819286704063,0.01539449580013752,0.017841294407844543,0.4141470789909363,-0.2549269497394562,-9.493738174438477
1745653729.4144392,-0.02306768298149109,-0.006035894621163607,0.019686806946992874,0.48537498712539673,-0.03707302361726761,-9.882071495056152
1745653729.4167721,-0.030818704515695572,-0.010332489386200905,0.02018367126584053,0.27510032057762146,0.06138317659497261,-9.628927230834961
1745653729.4524322,-0.01579054817557335,-0.01151948980987072,0.01842140592634678,0.38568127155303955,-0.06662394851446152,-9.65179443359375
1745653729.4544523,-0.0173349566757679,-0.02236945368349552,0.019421543926000595,0.47982245683670044,0.08349727839231491,-9.906061172485352
1745653729.4572318,-0.016983462497591972,-0.013086597435176373,0.014580035582184792,0.26547402143478394,-0.15862195193767548,-10.092888832092285
1745653729.4602566,-0.020337484776973724,-0.01898135617375374,0.015768960118293762,0.49439701437950134,-0.1863437443971634,-9.589553833007812
1745653729.4938612,-0.031002402305603027,-0.02667134627699852,0.015262089669704437,0.38166889548301697,-0.23904657363891602,-9.59673023223877
1745653729.4974911,-0.03550165146589279,-0.02324165403842926,0.019852785393595695,0.49812236428260803,-0.3034234046936035,-9.968740463256836
1745653729.5028944,-0.04537740349769592,-0.027798747643828392,0.017984088510274887,0.3986789584159851,-0.1923476904630661,-9.989520072937012
1745653729.5029502,-0.03776608780026436,-0.02451913431286812,0.020684491842985153,0.3636475205421448,-0.16662034392356873,-9.663836479187012
1745653729.5061827,-0.051721952855587006,-0.034486331045627594,0.019398938864469528,0.41131791472435,-0.029146159067749977,-9.627842903137207
1745653729.5403311,-0.037152744829654694,-0.03380483761429787,0.018183473497629166,0.23774704337120056,-0.03536555916070938,-10.013853073120117
1745653729.5409513,-0.03822924196720123,-0.03453950956463814,0.01890059933066368,0.43112143874168396,0.0029292732942849398,-9.93204116821289
1745653729.5420525,-0.03632689639925957,-0.036988310515880585,0.015505125746130943,0.22690124809741974,-0.022501695901155472,-9.732672691345215
1745653729.54556,-0.037838101387023926,-0.060304682701826096,0.017497342079877853,0.36233001947402954,-0.10203205049037933,-9.770800590515137
1745653729.5832834,-0.03226286917924881,-0.05539904162287712,0.020838215947151184,0.1827290803194046,-0.03781313821673393,-9.810891151428223
1745653729.5834448,-0.03893684968352318,-0.05599940940737724,0.020219292491674423,0.3643820285797119,-0.07288304716348648,-9.829193115234375
1745653729.5835445,-0.03086436167359352,-0.055396728217601776,0.0195650365203619,0.15634410083293915,0.05964013189077377,-9.843029975891113
1745653729.5915759,-0.027448516339063644,-0.04947426915168762,0.019926950335502625,0.2421337068080902,-0.01486995629966259,-9.770278930664062
1745653729.591677,-0.026516452431678772,-0.05455581471323967,0.018180813640356064,0.21639001369476318,0.09719158709049225,-9.748651504516602
1745653729.6226907,-0.02198639139533043,-0.04762198030948639,0.017792364582419395,0.16420163214206696,0.02521304413676262,-9.839037895202637
1745653729.6236637,-0.02312399074435234,-0.0526970736682415,0.018742214888334274,0.34166938066482544,0.013059009797871113,-9.824519157409668
1745653729.62574,-0.02180221676826477,-0.0479557141661644,0.017861463129520416,0.16536715626716614,0.022672567516565323,-9.850120544433594
1745653729.62893,-0.02474389411509037,-0.04586942493915558,0.01797797903418541,0.373812735080719,-0.13356144726276398,-9.792950630187988
1745653729.6672857,-0.024496283382177353,-0.049616165459156036,0.017477786168456078,0.22319693863391876,0.006022549234330654,-9.81921100616455
1745653729.6801677,-0.024033885449171066,-0.04340594261884689,0.01979648508131504,0.2612210214138031,-0.09903240203857422,-9.867304801940918
1745653729.6802413,-0.028359364718198776,-0.0482134148478508,0.018900325521826744,0.26485180854797363,0.014862993732094765,-9.786713600158691
1745653729.6806962,-0.0221316646784544,-0.04066815227270126,0.01978113129734993,0.12609755992889404,0.03562840446829796,-9.789350509643555
1745653729.7092106,-0.024432886391878128,-0.04306421056389809,0.017597539350390434,0.29114675521850586,0.007256907410919666,-9.756853103637695
1745653729.7190268,-0.019534792751073837,-0.04184844344854355,0.01845417730510235,0.07130496948957443,0.07215957343578339,-9.848294258117676
1745653729.7190855,-0.018107816576957703,-0.03691061586141586,0.016200505197048187,0.264329731464386,-0.03478021174669266,-9.787530899047852
1745653729.7194524,-0.020830903202295303,-0.03924596309661865,0.01709301397204399,0.16851696372032166,0.03180591017007828,-9.741796493530273
1745653729.719499,-0.016985630616545677,-0.03186900168657303,0.020069338381290436,0.23635701835155487,-0.07908789068460464,-9.760933876037598
1745653729.759018,-0.023097192868590355,-0.03630867600440979,0.0208272822201252,0.2935129404067993,-0.02298836037516594,-9.778459548950195
1745653729.759068,-0.017404338344931602,-0.028719494119286537,0.017588818445801735,0.11709398031234741,-0.011764181777834892,-9.824429512023926
1745653729.7602518,-0.020903456956148148,-0.029533112421631813,0.021102914586663246,0.30677762627601624,-0.014963462948799133,-9.696793556213379
1745653729.803668,-0.010741695761680603,-0.017929110676050186,0.01764323189854622,0.12099746614694595,0.0502876341342926,-9.834897994995117
1745653729.805031,-0.01140817254781723,-0.013387521728873253,0.018756220117211342,0.32764706015586853,-0.035973478108644485,-9.753094673156738
1745653729.8091931,-0.006042740307748318,-0.019618544727563858,0.01859622821211815,0.14072519540786743,0.06907501071691513,-9.755439758300781
1745653729.809296,-0.008428394794464111,-0.012256944552063942,0.017027977854013443,0.23405370116233826,-0.031077111139893532,-9.760009765625
1745653729.8093607,-0.012029489502310753,-0.014779919758439064,0.020658478140830994,0.22196035087108612,0.019557572901248932,-9.765240669250488
1745653729.8406897,-0.008104481734335423,-0.006955242250114679,0.016773957759141922,0.12105061858892441,-0.003997232764959335,-9.780519485473633
1745653729.843301,-0.01342210453003645,-0.01170620508491993,0.016513632610440254,0.29781633615493774,0.0006148248794488609,-9.68381404876709
1745653729.8473368,-0.010862774215638638,-0.007293197326362133,0.01606835052371025,0.09206221997737885,0.038768794387578964,-9.769290924072266
1745653729.8497674,-0.013819726184010506,-0.0030604111962020397,0.017359532415866852,0.29339683055877686,-0.0369640477001667,-9.734010696411133
1745653729.8861449,-0.01367956679314375,-0.005846159998327494,0.016076061874628067,0.16987283527851105,0.08062463253736496,-9.755144119262695
1745653729.8862262,-0.008239105343818665,0.0035372923593968153,0.016886740922927856,0.2192085087299347,-0.010050025768578053,-9.728992462158203
1745653729.9308395,-0.008895575068891048,-0.002714946400374174,0.016785087063908577,0.2506832182407379,0.07871581614017487,-9.70274829864502
1745653729.9309645,-0.0026636957190930843,0.005923692137002945,0.017836859449744225,0.09291015565395355,0.06024489551782608,-9.74462604522705
1745653729.9310346,0.018296265974640846,0.03500892221927643,0.014221573248505592,0.20475813746452332,0.08737504482269287,-9.735326766967773
1745653729.9312258,0.022356286644935608,0.03943401947617531,0.013460355810821056,0.3182055354118347,0.0008055205689743161,-9.742527961730957
1745653729.9312909,0.02010650373995304,0.035066019743680954,0.014282959513366222,0.3149634003639221,0.0552314929664135,-9.732455253601074
1745653729.931717,0.023228337988257408,0.04067176580429077,0.012738378718495369,0.20803609490394592,0.021879542618989944,-9.770054817199707
1745653729.9671855,0.018903568387031555,0.036741338670253754,0.012999000959098339,0.39656466245651245,-0.0067098974250257015,-9.70928955078125
1745653729.9693491,0.02173968404531479,0.03875347226858139,0.01129662524908781,0.19819608330726624,0.05516793206334114,-9.784795761108398
1745653729.9712546,0.019919557496905327,0.038617007434368134,0.01348128356039524,0.399292528629303,-0.05445417761802673,-9.735836029052734
1745653729.9730191,0.018912382423877716,0.03688521310687065,0.011545350775122643,0.27573657035827637,0.059687625616788864,-9.743426322937012
1745653729.9749532,0.020900649949908257,0.04024183005094528,0.012893890962004662,0.2925681471824646,-0.0274942759424448,-9.789427757263184
1745653730.0141778,0.019490769132971764,0.033158279955387115,0.012207532301545143,0.37367504835128784,0.027842674404382706,-9.764875411987305
1745653730.014331,0.02566797100007534,0.04046321287751198,0.01206615474075079,0.204005628824234,0.03735675662755966,-9.783945083618164
1745653730.0151722,0.02205936796963215,0.03421538323163986,0.014446785673499107,0.41730719804763794,-0.0055621592327952385,-9.756280899047852
1745653730.01789,0.02551298215985298,0.03468891978263855,0.009852463379502296,0.20136523246765137,0.08496104180812836,-9.80766487121582
1745653730.0539815,0.028767576441168785,0.03738684579730034,0.013571741990745068,0.37571337819099426,-0.051473118364810944,-9.760963439941406
1745653730.057629,0.022915419191122055,0.03165842220187187,0.010444704443216324,0.31014925241470337,0.07146738469600677,-9.767972946166992
1745653730.0579984,0.030360158532857895,0.03550707548856735,0.011325608007609844,0.3089521825313568,-0.012278871610760689,-9.800386428833008
1745653730.0634224,0.023373465985059738,0.03039613738656044,0.012436188757419586,0.42250388860702515,-0.035645492374897,-9.762141227722168
1745653730.0670774,0.02841564454138279,0.03364873677492142,0.00999667402356863,0.23284275829792023,0.00944404024630785,-9.789632797241211
1745653730.103511,0.024133052676916122,0.032898858189582825,0.01275805663317442,0.4285568296909332,-0.06009427458047867,-9.721602439880371
1745653730.1096044,0.026469016447663307,0.02820918895304203,0.012678848579525948,0.2565356194972992,0.04780920594930649,-9.787857055664062
1745653730.1096706,0.027279237285256386,0.03412461653351784,0.010704775340855122,0.3540377616882324,-0.021933015435934067,-9.7859468460083
1745653730.1099095,0.025377627462148666,0.028339022770524025,0.011726870201528072,0.3316384553909302,0.04733213409781456,-9.753984451293945
1745653730.1393952,0.03166919946670532,0.033272482454776764,0.01076787244528532,0.24695739150047302,0.007874304428696632,-9.812154769897461
1745653730.1455615,0.032685574144124985,0.02914743684232235,0.010689735412597656,0.23063066601753235,0.033937111496925354,-9.808633804321289
1745653730.146097,0.030589941889047623,0.028524884954094887,0.009839093312621117,0.4496475160121918,-0.07559812068939209,-9.738163948059082
1745653730.1491835,0.030570968985557556,0.025743231177330017,0.012948574498295784,0.3060181140899658,0.03355183079838753,-9.822212219238281
1745653730.1874197,0.030725320801138878,0.029647434130311012,0.010330805554986,0.34661176800727844,-0.07524888962507248,-9.811843872070312
1745653730.188298,0.026778575032949448,0.02306986227631569,0.01102523598819971,0.4042428433895111,-0.0001272290974156931,-9.794163703918457
1745653730.1925952,0.031680069863796234,0.025483598932623863,0.009541666135191917,0.2533096671104431,0.012151556089520454,-9.84713363647461
1745653730.193713,0.02715742029249668,0.02278311736881733,0.011045161634683609,0.46886929869651794,-0.05450950190424919,-9.785387992858887
1745653730.2278001,0.03150566667318344,0.02138093113899231,0.012326019816100597,0.2474045753479004,0.03244844824075699,-9.821897506713867
1745653730.2280202,0.030590230599045753,0.022353406995534897,0.009937882423400879,0.4200039803981781,-0.07431116700172424,-9.792098045349121
1745653730.2281299,0.029554858803749084,0.015745002776384354,0.010680503211915493,0.3432944118976593,0.017370469868183136,-9.807791709899902
1745653730.2286167,0.035446058958768845,0.02193872258067131,0.012115398421883583,0.3323020040988922,-0.05111481994390488,-9.821672439575195
1745653730.231388,0.03062368370592594,0.013652095571160316,0.011225000955164433,0.4513501226902008,-0.043071918189525604,-9.794591903686523
1745653730.2711434,0.03417656943202019,0.01895717717707157,0.010271717794239521,0.2517145276069641,-0.02755168452858925,-9.844303131103516
1745653730.275211,0.02475195750594139,-0.016336094588041306,0.009100215509533882,0.32354024052619934,-0.13956274092197418,-9.843839645385742
1745653730.2772646,0.020234595984220505,-0.022390926256775856,0.011890354566276073,0.427480548620224,-0.09978021681308746,-9.796659469604492
1745653730.2793941,0.02327999845147133,-0.018235983327031136,0.010564129799604416,0.23840124905109406,-0.07349251210689545,-9.808761596679688
1745653730.314362,0.02116306684911251,-0.022314906120300293,0.010972181335091591,0.4519813656806946,-0.14342865347862244,-9.765854835510254
1745653730.3144808,0.018943913280963898,-0.023724215105175972,0.010623948648571968,0.25440850853919983,-0.03538626432418823,-9.832858085632324
1745653730.3163517,0.02222437784075737,-0.018425840884447098,0.010268490761518478,0.3703877627849579,-0.14281301200389862,-9.785269737243652
1745653730.3233902,0.016906198114156723,-0.0259663425385952,0.010275849141180515,0.37321561574935913,-0.0686609074473381,-9.781936645507812
1745653730.3235486,0.02224300242960453,-0.020465675741434097,0.011058886535465717,0.2439325600862503,-0.09377562999725342,-9.838637351989746
1745653730.3553362,0.015333582647144794,-0.02375665307044983,0.010263082571327686,0.434640109539032,-0.12971659004688263,-9.77895450592041
1745653730.3646407,0.01966707780957222,-0.023670103400945663,0.010791515931487083,0.2307630330324173,-0.05793078988790512,-9.812606811523438
1745653730.364742,0.01898268237709999,-0.022190038114786148,0.011055586859583855,0.4334278106689453,-0.15912817418575287,-9.783482551574707
1745653730.365134,0.01740509644150734,-0.026590779423713684,0.012430080212652683,0.2817813754081726,-0.05098135396838188,-9.8074312210083
1745653730.3981087,0.01842876896262169,-0.020445365458726883,0.012297018431127071,0.3266560435295105,-0.1561872661113739,-9.811624526977539
1745653730.403601,0.012856649234890938,-0.029938414692878723,0.01085738930851221,0.3859397768974304,-0.09879343211650848,-9.781307220458984
1745653730.4039595,0.017680341377854347,-0.022548532113432884,0.010686667636036873,0.2381177842617035,-0.10449211299419403,-9.814376831054688
1745653730.4041166,0.012284694239497185,-0.02618817612528801,0.012508322484791279,0.4556739926338196,-0.14716382324695587,-9.768620491027832
1745653730.410177,0.013531086035072803,-0.02663908526301384,0.012548538856208324,0.24110260605812073,-0.06254426389932632,-9.857551574707031
1745653730.4425905,0.011850401759147644,-0.023768194019794464,0.01136886514723301,0.377792626619339,-0.17538054287433624,-9.787839889526367
1745653730.4449031,0.010018499568104744,-0.030230849981307983,0.01145104505121708,0.2958527207374573,-0.05862206965684891,-9.772720336914062
1745653730.4473648,0.01275949738919735,-0.023843640461564064,0.011616945266723633,0.2743600010871887,-0.12537935376167297,-9.808713912963867
1745653730.4498947,0.00829184241592884,-0.027450943365693092,0.012987588532269001,0.39025768637657166,-0.13153840601444244,-9.75969123840332
1745653730.4846003,0.014791078865528107,-0.02490120753645897,0.010227789171040058,0.19437095522880554,-0.07616158574819565,-9.806025505065918
1745653730.486964,0.009525392204523087,-0.026805097237229347,0.014074045233428478,0.41030755639076233,-0.1504679024219513,-9.745312690734863
1745653730.4896631,0.007971331477165222,-0.027954664081335068,0.012283345684409142,0.22766482830047607,-0.06614401191473007,-9.799600601196289
1745653730.4901934,0.009692614898085594,-0.022481171414256096,0.01015646941959858,0.3531273305416107,-0.15506799519062042,-9.762048721313477
1745653730.5273392,0.006532736122608185,-0.028755154460668564,0.012439871206879616,0.32478591799736023,-0.09572193026542664,-9.768976211547852
1745653730.5298557,0.008553189225494862,-0.022406700998544693,0.010341878049075603,0.22748973965644836,-0.13016358017921448,-9.810050964355469
1745653730.5355723,0.0033125081099569798,-0.027118489146232605,0.010166523978114128,0.3909456729888916,-0.13254812359809875,-9.739936828613281
1745653730.53937,0.0061506531201303005,-0.024256981909275055,0.01235826313495636,0.19430989027023315,-0.08181031048297882,-9.816751480102539
1745653730.5394638,0.003754946868866682,-0.02382190339267254,0.011199107393622398,0.39475756883621216,-0.1571320742368698,-9.7549467086792
1745653730.570461,0.004800105933099985,-0.02779007889330387,0.012445749714970589,0.25413942337036133,-0.036699339747428894,-9.782279014587402
1745653730.577025,0.004932748153805733,-0.020468000322580338,0.01167246326804161,0.2947896122932434,-0.1559874266386032,-9.7980375289917
1745653730.5770981,0.001475212862715125,-0.028075408190488815,0.012936542741954327,0.33422112464904785,-0.10230320692062378,-9.785078048706055
1745653730.579515,0.005196862854063511,-0.02100435271859169,0.012717892415821552,0.19716104865074158,-0.10566069185733795,-9.806045532226562
1745653730.624571,6.522099283756688e-05,-0.02580697275698185,0.011288684792816639,0.4086288511753082,-0.15542584657669067,-9.73775577545166
1745653730.6246612,0.002517035463824868,-0.025109151378273964,0.011693287640810013,0.20451346039772034,-0.07177916914224625,-9.806280136108398
1745653730.629406,-0.022019589319825172,-0.0026651578955352306,0.011798378080129623,0.2884496748447418,-0.07178805768489838,-9.756274223327637
1745653730.6294644,-0.016933578997850418,0.006309872958809137,0.01172768883407116,0.19838911294937134,-0.11146567016839981,-9.779487609863281
1745653730.664006,-0.021615948528051376,0.0007969816215336323,0.012931153178215027,0.37807729840278625,-0.10837382078170776,-9.745707511901855
1745653730.6879709,-0.017399460077285767,0.004224162548780441,0.01300476212054491,0.16363459825515747,-0.038292013108730316,-9.79535961151123
1745653730.700108,-0.02095850184559822,0.005700199864804745,0.011628592386841774,0.34943005442619324,-0.11780177056789398,-9.74921989440918
1745653730.7034173,-0.022749468684196472,0.0022373138926923275,0.011487126350402832,0.21547822654247284,-0.035396598279476166,-9.762523651123047
1745653730.7181814,-0.0188725795596838,0.009037137031555176,0.01307076495140791,0.26587337255477905,-0.09989836066961288,-9.755558967590332
1745653730.7248886,-0.024589190259575844,0.002816964639350772,0.012991184368729591,0.3322029709815979,-0.045064397156238556,-9.737573623657227
1745653730.7396822,-0.017894107848405838,0.009814411401748657,0.012641580775380135,0.16831806302070618,-0.06508885324001312,-9.817779541015625
1745653730.7442305,-0.023430626839399338,0.0061346301808953285,0.010770296677947044,0.3758842349052429,-0.10695910453796387,-9.742570877075195
1745653730.7462676,-0.020094748586416245,0.009038311429321766,0.012807460501790047,0.16090792417526245,-0.04261861369013786,-9.767951011657715
1745653730.7481453,-0.0229581817984581,0.011116860434412956,0.01130637712776661,0.33732110261917114,-0.1343148946762085,-9.75410270690918
1745653730.7493827,-0.020736152306199074,0.007275281008332968,0.014405357651412487,0.25684699416160583,-0.01518374215811491,-9.776082038879395
1745653730.752276,-0.02148277685046196,0.014602132141590118,0.011929125525057316,0.2321813851594925,-0.10499241203069687,-9.773688316345215
1745653730.7559378,-0.025691235437989235,0.007938295602798462,0.012705214321613312,0.3392271101474762,-0.0765504390001297,-9.749265670776367
1745653730.7851748,-0.020213622599840164,0.01444319635629654,0.010934688150882721,0.17869660258293152,-0.04680992662906647,-9.810931205749512
1745653730.7867248,-0.0245819129049778,0.013123017735779285,0.012540879659354687,0.39313068985939026,-0.11702440679073334,-9.778382301330566
1745653730.7907617,-0.02185017801821232,0.011534283868968487,0.011412995867431164,0.19036923348903656,-0.022056808695197105,-9.787485122680664
1745653730.7926385,-0.02380937896668911,0.01642504334449768,0.010757558979094028,0.33660411834716797,-0.11454278230667114,-9.756281852722168
1745653730.8328612,-0.026413708925247192,0.010538392700254917,0.013122816570103168,0.300604909658432,-0.032013822346925735,-9.775139808654785
1745653730.8333008,-0.01944737881422043,0.016303466632962227,0.013397501781582832,0.22152800858020782,-0.06839041411876678,-9.802061080932617
1745653730.8333604,-0.026306843385100365,0.012868626043200493,0.011800427921116352,0.3897368311882019,-0.05526038259267807,-9.744946479797363
1745653730.8360865,-0.0215732641518116,0.015654990449547768,0.012781898491084576,0.1731174886226654,-0.03229544684290886,-9.80041217803955
1745653730.838943,-0.02269260212779045,0.01930958591401577,0.01181074045598507,0.30098190903663635,-0.09651072323322296,-9.771075248718262
1745653730.871743,-0.027212068438529968,0.012631396763026714,0.012595283798873425,0.3357718586921692,-0.023267487064003944,-9.740464210510254
1745653730.873472,-0.02166200801730156,0.01930014230310917,0.01036015897989273,0.20934566855430603,-0.04912431165575981,-9.813387870788574
1745653730.8774006,-0.027077680453658104,0.015299564227461815,0.012977051548659801,0.4074178636074066,-0.07287450134754181,-9.75168514251709
1745653730.8868258,-0.021678002551198006,0.01725386455655098,0.012171258218586445,0.17795351147651672,0.002855914179235697,-9.783090591430664
1745653730.9151819,-0.023439686745405197,0.019323132932186127,0.011121953837573528,0.3667164444923401,-0.09422598779201508,-9.761272430419922
1745653730.9159641,-0.02371090278029442,0.01607920601963997,0.013123284094035625,0.2655590772628784,-0.0051558492705225945,-9.796541213989258
1745653730.9231098,-0.021952256560325623,0.02211814559996128,0.010098116472363472,0.2957090735435486,-0.0670819878578186,-9.793233871459961
1745653730.923249,-0.024028565734624863,0.01383740920573473,0.012429369613528252,0.3716806173324585,-0.03119555674493313,-9.759964942932129
1745653730.923311,-0.02275131642818451,0.020897721871733665,0.01028175838291645,0.20486140251159668,-0.01921963132917881,-9.816930770874023
1745653730.9595776,-0.02307930588722229,0.017281927168369293,0.012271363288164139,0.4155220091342926,-0.08796347677707672,-9.770034790039062
1745653730.9653583,-0.02232874371111393,0.01755264401435852,0.011324717663228512,0.22452867031097412,0.012714868411421776,-9.799433708190918
1745653730.9672008,-0.022784247994422913,0.019443180412054062,0.009711943566799164,0.36667943000793457,-0.08613983541727066,-9.779252052307129
1745653730.969561,-0.009266111999750137,0.0008117567049339414,0.011794090270996094,0.4212794303894043,0.022129233926534653,-9.771026611328125
1745653731.0030155,-0.004414552357047796,0.005156553816050291,0.009210208430886269,0.25147488713264465,0.011522920802235603,-9.825993537902832
1745653731.0034008,-0.008123356848955154,0.0014646619092673063,0.009271720424294472,0.46337541937828064,-0.02397710271179676,-9.763263702392578
1745653731.0084229,-0.006170959211885929,0.0014271261170506477,0.009172400459647179,0.2636067569255829,0.06834276020526886,-9.800252914428711
1745653731.012304,-0.005060779396444559,0.00363810732960701,0.010573859326541424,0.4203348755836487,-0.02941494807600975,-9.78073787689209
1745653731.0425751,-0.005778016056865454,-0.0037093565333634615,0.010864270851016045,0.3292253911495209,0.04855360463261604,-9.815207481384277
1745653731.0498567,-0.0005738494219258428,0.006054523400962353,0.008457708172500134,0.3162018954753876,-0.001837078481912613,-9.829925537109375
1745653731.0499914,-0.005483599379658699,-0.005136857740581036,0.009038341231644154,0.4309026598930359,-0.017138907685875893,-9.753300666809082
1745653731.0545583,-0.0005363801610656083,0.0009642434306442738,0.011045021936297417,0.23338577151298523,0.03319510072469711,-9.804062843322754
1745653731.0612426,-0.004983499180525541,-0.0024989217054098845,0.0097594503313303,0.4375203549861908,-0.019848693162202835,-9.791302680969238
1745653731.0925047,-0.0005708403768949211,-0.004083889536559582,0.009405188262462616,0.2591293454170227,0.044639524072408676,-9.80986213684082
1745653731.0943081,-0.001029411912895739,-0.00010080513311550021,0.008681965060532093,0.36536210775375366,-0.025260481983423233,-9.754793167114258
1745653731.0956676,-0.0021014809608459473,-0.005654190666973591,0.009259384125471115,0.35640519857406616,0.0321720652282238,-9.769166946411133
1745653731.0983856,0.002339583355933428,-0.0017010715091601014,0.009152861312031746,0.2723310589790344,0.009235531091690063,-9.830129623413086
1745653731.140912,-0.002566499635577202,-0.006191270891577005,0.010319518856704235,0.4555591940879822,-0.0032120496034622192,-9.760299682617188
1745653731.1411138,0.00351131334900856,-0.005142478737980127,0.010073995217680931,0.2331709861755371,0.07130154967308044,-9.787542343139648
1745653731.1411932,0.001473952317610383,-0.0035842708311975002,0.007727346383035183,0.42339372634887695,-0.049632828682661057,-9.769832611083984
1745653731.1412997,0.001706290990114212,-0.010842899791896343,0.008475957438349724,0.29395121335983276,0.07000236213207245,-9.813093185424805
1745653731.1414108,0.004996912088245153,-0.003684454131871462,0.010054116137325764,0.3361026644706726,-0.022332165390253067,-9.787361145019531
1745653731.1775463,0.0018352586776018143,-0.00971880741417408,0.00887709204107523,0.38577210903167725,0.026885677129030228,-9.761134147644043
1745653731.18332,0.006738475523889065,-0.005349095910787582,0.008831734769046307,0.23184609413146973,0.0169206690043211,-9.839540481567383
1745653731.1854677,0.0045558130368590355,-0.009528105147182941,0.009414327330887318,0.4436318278312683,-0.019165482372045517,-9.755228042602539
1745653731.1933446,0.0050492784939706326,-0.009820662438869476,0.008256703615188599,0.24524447321891785,0.04218200594186783,-9.805856704711914
1745653731.2170835,0.009686477482318878,-0.00576319545507431,0.00961272045969963,0.28486377000808716,-0.021863460540771484,-9.796361923217773
1745653731.22238,0.0050860196352005005,-0.013719899579882622,0.00867490004748106,0.42878738045692444,0.007716256193816662,-9.767480850219727
1745653731.2232137,0.010216066613793373,-0.008909552358090878,0.008452868089079857,0.2223014086484909,0.044501397758722305,-9.82866382598877
1745653731.2293363,0.008702998980879784,-0.011644582264125347,0.009400373324751854,0.4323495924472809,-0.035466406494379044,-9.772283554077148
1745653731.2602894,0.010413908399641514,-0.014617045409977436,0.010355914011597633,0.24574759602546692,0.054601848125457764,-9.789277076721191
1745653731.2620728,0.010702195577323437,-0.008747680112719536,0.00877284724265337,0.3373522460460663,-0.03899943083524704,-9.773374557495117
1745653731.2621388,0.009262189269065857,-0.015446643345057964,0.00973996426910162,0.3667878210544586,0.03664982318878174,-9.779356002807617
1745653731.265423,0.014238896779716015,-0.009018627926707268,0.008745706640183926,0.24031898379325867,0.004774337634444237,-9.816434860229492
1745653731.2681851,0.008422899059951305,-0.014989430084824562,0.009147252887487411,0.42779436707496643,-0.03243103250861168,-9.752996444702148
1745653731.3023455,0.010760759003460407,-0.012188222259283066,0.008309983648359776,0.19021305441856384,0.047823019325733185,-9.811009407043457
1745653731.3044248,0.013194123283028603,-0.010662677697837353,0.008014454506337643,0.41232675313949585,-0.044898856431245804,-9.775833129882812
1745653731.3057728,0.01197169441729784,-0.015342049300670624,0.009810279123485088,0.28266239166259766,0.04694778844714165,-9.800362586975098
1745653731.3074608,0.014887981116771698,-0.009394005872309208,0.008380231447517872,0.30527395009994507,-0.006514969281852245,-9.783761978149414
1745653731.3464797,0.02701028622686863,-0.005174256861209869,0.006442554295063019,0.20376546680927277,-0.013982807286083698,-9.803544044494629
1745653731.3465178,0.020511675626039505,-0.009445907548069954,0.007570859044790268,0.3895241618156433,-0.05318090319633484,-9.745734214782715
1745653731.3481047,0.022956278175115585,-0.009285278618335724,0.006531894207000732,0.1734781414270401,0.0010321580339223146,-9.807368278503418
1745653731.35248,0.023225847631692886,-0.004138235934078693,0.0069928294979035854,0.3553675711154938,-0.08942316472530365,-9.76887321472168
1745653731.388466,0.023055939003825188,-0.0094330795109272,0.008265848271548748,0.26334404945373535,-0.0045043351128697395,-9.771373748779297
1745653731.3908567,0.024606462568044662,-0.0033327757846564054,0.008099572733044624,0.26100021600723267,-0.054551709443330765,-9.785482406616211
1745653731.3952112,0.020002538338303566,-0.008826002478599548,0.0061765252612531185,0.3733493685722351,-0.04319889843463898,-9.753575325012207
1745653731.3969607,0.02442518249154091,-0.004193984903395176,0.0070714885368943214,0.17952284216880798,-0.02056838572025299,-9.821051597595215
1745653731.4002144,0.02362697944045067,-0.003257768228650093,0.007452587131410837,0.4008827805519104,-0.09536714106798172,-9.744370460510254
1745653731.4345753,0.02298753708600998,-0.008152969181537628,0.008512889966368675,0.2077638804912567,-0.00861737597733736,-9.810725212097168
1745653731.4346626,0.02444642223417759,-0.0018189545953646302,0.005412466824054718,0.3299814462661743,-0.10873079299926758,-9.785831451416016
1745653731.434711,0.020439988002181053,-0.005848247557878494,0.00839835312217474,0.2995550036430359,-0.02363879606127739,-9.7730073928833
1745653731.4396396,0.02489086054265499,0.00018721479864325374,0.006560047622770071,0.21764202415943146,-0.05083499103784561,-9.781828880310059
1745653731.473179,0.02208890952169895,-0.005578526761382818,0.007787646260112524,0.4002265930175781,-0.07826495915651321,-9.733715057373047
1745653731.4745228,0.024386772885918617,-0.0014565523015335202,0.0072933039627969265,0.16870173811912537,-0.019292842596769333,-9.823038101196289
1745653731.4762297,0.02279025875031948,-0.0013727713376283646,0.007347835693508387,0.37486881017684937,-0.11043913662433624,-9.745014190673828
1745653731.4800296,0.021294627338647842,-0.0037850490771234035,0.007481963839381933,0.227584570646286,-0.020824290812015533,-9.783113479614258
1745653731.4806764,0.022936204448342323,0.001700077555142343,0.007438877131789923,0.2749198377132416,-0.08771145343780518,-9.770730972290039
1745653731.5249767,0.018992310389876366,-0.004487698897719383,0.006160167045891285,0.3319348394870758,-0.05213803052902222,-9.770593643188477
1745653731.5250583,0.024371881037950516,0.003417406929656863,0.007402702234685421,0.19385042786598206,-0.0458490364253521,-9.801870346069336
1745653731.5251114,0.020795904099941254,-0.0004419715260155499,0.007654293440282345,0.39686867594718933,-0.08697428554296494,-9.727594375610352
1745653731.5251596,0.02204890176653862,0.0007866354426369071,0.005625537130981684,0.18031997978687286,-0.01911582611501217,-9.794265747070312
1745653731.5609164,0.02151256427168846,0.002912163268774748,0.0059760683216154575,0.34968727827072144,-0.10666564851999283,-9.764819145202637
1745653731.5657823,0.023688729852437973,0.0037039939779788256,0.005942219402641058,0.18418779969215393,-0.03152250126004219,-9.809157371520996
1745653731.5665808,0.01895543560385704,0.002691028406843543,0.006790761835873127,0.4068147540092468,-0.12774606049060822,-9.735323905944824
1745653731.5694885,0.02143363282084465,0.0013486503157764673,0.006246635224670172,0.20340394973754883,-0.031434908509254456,-9.806014060974121
1745653731.602032,0.020644191652536392,0.008215857669711113,0.0068950289860367775,0.32919931411743164,-0.11586721241474152,-9.784266471862793
1745653731.604427,0.017702866345643997,0.0014485020656138659,0.0062747434712946415,0.315978467464447,-0.05059627443552017,-9.75218391418457
1745653731.6066885,0.021055802702903748,0.007624893449246883,0.00644061341881752,0.20871014893054962,-0.067265085875988,-9.80077838897705
1745653731.6100454,0.016938591375947,0.0015545188216492534,0.004909374751150608,0.40745964646339417,-0.1172284334897995,-9.762601852416992
1745653731.6100857,0.018229136243462563,0.005612109787762165,0.006282273679971695,0.1800825297832489,-0.04141073673963547,-9.803375244140625
1745653731.6473439,0.017591986805200577,0.005013602785766125,0.005827096290886402,0.3839525580406189,-0.12022366374731064,-9.74958324432373
1745653731.6652112,0.017943378537893295,0.0032453567255288363,0.007489456329494715,0.24902081489562988,-0.03409036248922348,-9.776577949523926
1745653731.665349,0.018055738881230354,0.010260721668601036,0.005821304861456156,0.2795983552932739,-0.1076868548989296,-9.802072525024414
1745653731.6654296,0.013673375360667706,0.004573226906359196,0.006271871272474527,0.36133381724357605,-0.07707852870225906,-9.758591651916504
1745653731.6927974,0.02072523720562458,0.008377285674214363,0.0052688634023070335,0.18815307319164276,-0.07771150767803192,-9.785429000854492
1745653731.6928587,0.0008911077165976167,0.006989430636167526,0.006171479821205139,0.20295962691307068,-0.04126971215009689,-9.802586555480957
1745653731.708519,0.003386779222637415,0.009101441130042076,0.004388418514281511,0.40562987327575684,-0.15564055740833282,-9.786341667175293
1745653731.7088544,-2.848380245268345e-05,0.002514633582904935,0.004935764241963625,0.2932621240615845,-0.02931092120707035,-9.795222282409668
1745653731.7341952,0.003196708858013153,0.009647204540669918,0.005647457204759121,0.28029048442840576,-0.12107555568218231,-9.795743942260742
1745653731.7345288,-0.0017191146034747362,0.006385816726833582,0.00614573759958148,0.4042116701602936,-0.1275169551372528,-9.749929428100586
1745653731.7345948,0.0017320041079074144,0.009444120340049267,0.00559737253934145,0.22179946303367615,-0.06571070849895477,-9.806670188903809
1745653731.74656,-0.0024383494164794683,0.00813243631273508,0.0073696644976735115,0.45084348320961,-0.13986720144748688,-9.747305870056152
1745653731.7768252,-0.001424178364686668,0.0032677464187145233,0.004591498989611864,0.23314924538135529,-0.04329416900873184,-9.829916000366211
1745653731.7791677,-0.00023049782612361014,0.010096793062984943,0.005472530145198107,0.36669522523880005,-0.13720984756946564,-9.774089813232422
1745653731.789216,-0.005189686082303524,0.0025417746510356665,0.007275078445672989,0.344966322183609,-0.0872391015291214,-9.762880325317383
1745653731.7990046,0.0008654374396428466,0.00850842334330082,0.005712149199098349,0.26920008659362793,-0.0804552286863327,-9.800915718078613
1745653731.7990909,-0.004706184379756451,0.004972107242792845,0.006116688251495361,0.43609777092933655,-0.11542218923568726,-9.762449264526367
1745653731.8198538,-0.00212612422183156,0.004632709547877312,0.005542962346225977,0.22858944535255432,-0.06263995170593262,-9.820205688476562
1745653731.8322403,-0.003627156838774681,0.0034628037828952074,0.006432102061808109,0.41061145067214966,-0.1393367052078247,-9.779380798339844
1745653731.8366275,-0.005688958801329136,0.0034343625884503126,0.00715514924377203,0.28307628631591797,-0.04157538712024689,-9.794317245483398
1745653731.8366838,-0.0021302918903529644,0.007970181293785572,0.006363891065120697,0.3369290828704834,-0.141666442155838,-9.791925430297852
1745653731.8617413,-0.005554673727601767,0.00032769207609817386,0.006102743558585644,0.37923526763916016,-0.06653108447790146,-9.772417068481445
1745653731.8771398,-0.0025376148987561464,0.006060459651052952,0.006178892217576504,0.23708757758140564,-0.08281327784061432,-9.808433532714844
1745653731.8772063,-0.008136090822517872,6.699217192362994e-05,0.007830329239368439,0.44190293550491333,-0.13822850584983826,-9.744783401489258
1745653731.8772478,-0.005242214538156986,0.0019966536201536655,0.00579324085265398,0.22684574127197266,-0.014753194525837898,-9.835756301879883
1745653731.8772836,-0.005440212320536375,0.003088404657319188,0.007045289035886526,0.3990565240383148,-0.1325412094593048,-9.77478313446045
1745653731.908944,-0.006622774992138147,-0.0020713526755571365,0.006867083255201578,0.3064349293708801,-0.04140302166342735,-9.767215728759766
1745653731.909223,-0.004368824418634176,0.005511925555765629,0.007660677190870047,0.31448179483413696,-0.09886155277490616,-9.802292823791504
1745653731.9105399,-0.005808078218251467,-0.0006659206701442599,0.006109508685767651,0.259161114692688,-0.04883723333477974,-9.825665473937988
1745653731.9127839,-0.007923215627670288,0.003699041437357664,0.007874892093241215,0.37952834367752075,-0.13868923485279083,-9.795512199401855
1745653731.953401,-0.011208695359528065,-0.005101622547954321,0.007080496288836002,0.357695996761322,-0.05318598821759224,-9.75629711151123
1745653731.953676,-0.0065939826890826225,0.003845855128020048,0.0071383072063326836,0.27826040983200073,-0.08271279186010361,-9.805603981018066
1745653731.9549284,-0.011583948507905006,-0.005122453905642033,0.00804128497838974,0.43366020917892456,-0.10315356403589249,-9.774765968322754
1745653731.9550009,-0.008083561435341835,-0.0009396286914125085,0.006234026048332453,0.22245636582374573,-0.03499796241521835,-9.813447952270508
1745653731.9550393,-0.008704590611159801,-0.001862146658822894,0.006147994659841061,0.4162631034851074,-0.14425387978553772,-9.749363899230957
1745653732.0142944,-0.01143149845302105,-0.005416511557996273,0.0064238556660711765,0.26557284593582153,-0.023434001952409744,-9.813094139099121
1745653732.0143816,-0.007240212056785822,0.0004060129285790026,0.008366073481738567,0.33085447549819946,-0.10397346317768097,-9.798187255859375
1745653732.0144215,-0.01315732765942812,-0.005082824267446995,0.007617783732712269,0.37052518129348755,-0.07909222692251205,-9.76579475402832
1745653732.0144498,-0.008079640567302704,-0.0023868607822805643,0.006514872424304485,0.24746792018413544,-0.06787557899951935,-9.787614822387695
1745653732.0577843,-0.012995046563446522,-0.00605658208951354,0.006671359296888113,0.4313340187072754,-0.09328426420688629,-9.746862411499023
1745653732.0645466,-0.010750161483883858,-0.004953993950039148,0.0072370851412415504,0.23906323313713074,-0.04752624034881592,-9.822521209716797
1745653732.0646107,-0.014103968627750874,-0.009974627755582333,0.008281695656478405,0.23178665339946747,0.007516338489949703,-9.813765525817871
1745653732.0646572,-0.015066510066390038,-0.007917140610516071,0.007875731214880943,0.34365350008010864,-0.06991224735975266,-9.769865036010742
1745653732.077311,-0.01562307495623827,-0.011661659926176071,0.00732676824554801,0.30838072299957275,-0.03130609169602394,-9.78237247467041
1745653732.080132,-0.011764736846089363,-0.006231985986232758,0.006937193684279919,0.23829126358032227,-0.06525121629238129,-9.803285598754883
1745653732.0846984,-0.01606334187090397,-0.011099386028945446,0.008354753255844116,0.4060139060020447,-0.0565066933631897,-9.72549057006836
1745653732.0847397,-0.011259115301072598,-0.006907160393893719,0.007633909583091736,0.20334577560424805,-0.005186043679714203,-9.813352584838867
1745653732.1192687,-0.014713205397129059,-0.007103046867996454,0.006833386607468128,0.3878505229949951,-0.08273709565401077,-9.758336067199707
1745653732.1212556,-0.011393999680876732,-0.011291549541056156,0.007114970590919256,0.23814085125923157,0.020000359043478966,-9.792750358581543
1745653732.1236598,-0.012025375850498676,-0.002844393951818347,0.007987802848219872,0.31714653968811035,-0.10266388952732086,-9.788043975830078
1745653732.125741,-0.014731159433722496,-0.011895505711436272,0.008728990331292152,0.3301175534725189,-0.019850879907608032,-9.760665893554688
1745653732.1376176,-0.009648151695728302,-0.003695815335959196,0.005804610438644886,0.20628373324871063,-0.03874383121728897,-9.815174102783203
1745653732.1659229,-0.015207557007670403,-0.00930978637188673,0.008039086125791073,0.3932631015777588,-0.06369075179100037,-9.74433708190918
1745653732.168074,-0.010950530879199505,-0.007595919072628021,0.007141162641346455,0.19933059811592102,0.018904391676187515,-9.80725383758545
1745653732.1786048,-0.011965122073888779,-0.004859659820795059,0.008212344720959663,0.37564387917518616,-0.09446649253368378,-9.776435852050781
1745653732.1787395,-0.013076548464596272,-0.00939865130931139,0.006514768116176128,0.25858303904533386,0.023099223151803017,-9.790209770202637
1745653732.2093205,-0.010316947475075722,-0.002529341960325837,0.006849096622318029,0.2752058506011963,-0.05722963809967041,-9.802948951721191
1745653732.2093878,-0.014257279224693775,-0.008828526362776756,0.006122731603682041,0.35002487897872925,-0.01623258925974369,-9.756853103637695
1745653732.2195086,-0.009917186573147774,-0.0031683705747127533,0.006406232714653015,0.2143758237361908,-0.011982709169387817,-9.81179428100586
1745653732.2200277,-0.011319691315293312,-0.006525429897010326,0.0079872515052557,0.3995029330253601,-0.05662120506167412,-9.762349128723145
1745653732.2200925,-0.009584281593561172,-0.005033048335462809,0.007156239356845617,0.20021477341651917,0.007976863533258438,-9.793127059936523
1745653732.2545154,-0.012241506949067116,-0.004008461721241474,0.006821042392402887,0.3477155268192291,-0.06950298696756363,-9.769625663757324
1745653732.254656,-0.011869505979120731,-0.0066270604729652405,0.00579506391659379,0.2794216573238373,0.03377170115709305,-9.78164291381836
1745653732.2627065,-0.009220597334206104,-0.006133437156677246,0.006445291452109814,0.21143195033073425,0.048898808658123016,-9.788447380065918
1745653732.2923355,-0.0063890693709254265,-0.0011445931158959866,0.006253992673009634,0.3273237645626068,-0.0641755759716034,-9.776751518249512
1745653732.321135,-0.010531223379075527,-0.006044723093509674,0.006830831523984671,0.3019576370716095,-0.0017542425775900483,-9.770227432250977
1745653732.3212519,-0.005780348088592291,0.002449916210025549,0.0050122602842748165,0.22499923408031464,-0.02712768316268921,-9.798102378845215
1745653732.3212829,-0.010213813744485378,-0.0031412497628480196,0.006484095938503742,0.39762988686561584,-0.04129275679588318,-9.745306015014648
1745653732.3224022,-0.004874700214713812,-0.0009623931837268174,0.007857094518840313,0.19100603461265564,0.020800355821847916,-9.810811996459961
1745653732.3433459,-0.008101544342935085,0.00038307401700876653,0.007217047270387411,0.3904392123222351,-0.05562663823366165,-9.76356029510498
1745653732.3435705,-0.00832586083561182,-0.0034099225886166096,0.005619949661195278,0.25094330310821533,0.023089654743671417,-9.786996841430664
1745653732.349255,-0.004379515536129475,0.0024970704689621925,0.007814359851181507,0.3062984049320221,-0.061469901353120804,-9.772525787353516
1745653732.3495846,-0.007877003401517868,-0.002915704622864723,0.0069420188665390015,0.3293461799621582,0.014230875298380852,-9.77191162109375
1745653732.3813257,-0.002644803375005722,0.0023825259413570166,0.00462755560874939,0.2060455083847046,-0.0028238818049430847,-9.809486389160156
1745653732.3816571,-0.00760297616943717,-0.00010759672295534983,0.007931909523904324,0.40750354528427124,-0.04005797952413559,-9.738964080810547
1745653732.381731,-0.0049135806038975716,0.0006956817815080285,0.0046639773063361645,0.19321320950984955,0.040561385452747345,-9.77637767791748
1745653732.384937,-0.005326638929545879,0.0018146459478884935,0.008172774687409401,0.366777628660202,-0.06080467626452446,-9.759289741516113
1745653732.3869636,0.005528115201741457,0.00549037242308259,0.004776880145072937,0.4240151047706604,-0.07664337009191513,-9.754463195800781
1745653732.4251747,0.0074158720672130585,0.0028819844592362642,0.0024657961912453175,0.24343447387218475,0.04040510579943657,-9.807819366455078
1745653732.425245,0.008516239002346992,0.00465955026447773,0.0065142922103405,0.33039426803588867,-0.05882096290588379,-9.793149948120117
1745653732.4273245,0.005290099419653416,0.0016660537803545594,0.002853508573025465,0.35702767968177795,0.003912653774023056,-9.770578384399414
1745653732.4274175,0.011789962649345398,0.006590555422008038,0.003194427117705345,0.23077914118766785,-0.002472375985234976,-9.825657844543457
1745653732.4672322,0.0053584701381623745,0.003199735190719366,0.004614618606865406,0.42716020345687866,-0.04743484780192375,-9.749406814575195
1745653732.4726012,0.01108067762106657,0.004167213104665279,0.002703472739085555,0.20584776997566223,0.02797936275601387,-9.807154655456543
1745653732.472735,0.008768731728196144,0.005885201506316662,0.00295877899043262,0.40106526017189026,-0.07064758986234665,-9.765567779541016
1745653732.4729898,0.009184440597891808,0.002055410062894225,0.004395900759845972,0.2639305591583252,0.038974564522504807,-9.818099975585938
1745653732.4744546,0.011441165581345558,0.006022259593009949,0.0021642991341650486,0.3155761957168579,-0.038608334958553314,-9.785890579223633
1745653732.5117974,0.007874439470469952,0.0019768362399190664,0.0021102086175233126,0.3657970726490021,-0.018771549686789513,-9.757509231567383
1745653732.5118775,0.011657037772238255,0.0036147229839116335,0.0032520287204533815,0.21888284385204315,-0.007004174403846264,-9.819940567016602
1745653732.528019,0.009241084568202496,0.003641980467364192,0.0051674810238182545,0.43669694662094116,-0.052072517573833466,-9.757383346557617
1745653732.5284333,0.010346321389079094,0.00219267001375556,0.002429770305752754,0.22816522419452667,0.05732155591249466,-9.803991317749023
1745653732.5526433,0.011667890474200249,0.005761018488556147,0.0038188036996871233,0.39067763090133667,-0.06970439106225967,-9.778178215026855
1745653732.5527756,0.010649468749761581,0.0008533294312655926,0.005239883437752724,0.31456342339515686,0.01819329522550106,-9.790205001831055
1745653732.5616558,0.01363549567759037,0.007438501808792353,0.0012218374758958817,0.28704318404197693,-0.051264505833387375,-9.786479949951172
1745653732.561801,0.007329627871513367,7.792795076966286e-05,0.004281173460185528,0.4054320752620697,-0.007670087274163961,-9.74303150177002
1745653732.5930474,0.015314465388655663,0.006871472112834454,0.002768059028312564,0.2045825719833374,0.010791285894811153,-9.822290420532227
1745653732.5943234,0.011242261156439781,0.0013882698258385062,0.002646015025675297,0.4248426854610443,-0.0861886739730835,-9.784939765930176
1745653732.5962183,0.012792040593922138,0.002063421532511711,0.0019377137068659067,0.24219155311584473,0.0379161462187767,-9.78935432434082
1745653732.5987341,0.013237329199910164,0.005828705616295338,0.00386836682446301,0.35752180218696594,-0.06634316593408585,-9.776589393615723
1745653732.6362488,0.014521298930048943,-0.0006286826683208346,0.001922224066220224,0.27957987785339355,0.015558024868369102,-9.80416202545166
1745653732.6395047,0.01728633977472782,0.003336407942697406,0.0023655425757169724,0.32012447714805603,-0.06270384788513184,-9.783537864685059
1745653732.6396449,0.011402897536754608,-0.0010503145167604089,0.004257883410900831,0.3839748203754425,-0.015118427574634552,-9.760655403137207
1745653732.6410792,0.018358800560235977,0.002091576112434268,0.0009556434815749526,0.23714140057563782,-0.019609656184911728,-9.824026107788086
1745653732.642561,0.012545389123260975,-0.0012064039474353194,0.003486940637230873,0.4311895966529846,-0.059372879564762115,-9.767107963562012
1745653732.6785858,0.01569799706339836,-0.0003856371622532606,0.004374057985842228,0.22681352496147156,0.01967819780111313,-9.797982215881348
1745653732.6812103,0.015128550119698048,0.00245721940882504,0.0003901516611222178,0.3857846260070801,-0.0809185653924942,-9.78281307220459
1745653732.6819696,0.014785644598305225,-0.002516354899853468,0.003610504325479269,0.31060516834259033,0.0018386747688055038,-9.79686450958252
1745653732.6890736,0.015965810045599937,0.002183822449296713,0.0031465827487409115,0.2930472493171692,-0.05457938835024834,-9.797204971313477
1745653732.725837,0.014086952432990074,-0.002259888220578432,0.0026255513075739145,0.4061066508293152,-0.03420441225171089,-9.724767684936523
1745653732.7264,0.018011808395385742,0.00014548018225468695,0.004311549477279186,0.21242186427116394,-0.0034231641329824924,-9.812326431274414
1745653732.7278118,0.014924523420631886,0.0006067022914066911,0.002762607531622052,0.43109360337257385,-0.07595471292734146,-9.78532886505127
1745653732.7279105,0.016250506043434143,-0.003299503121525049,0.004841524176299572,0.24176445603370667,0.011806359514594078,-9.8026123046875
1745653732.7310429,0.016034666448831558,0.0018891968065872788,0.003745071589946747,0.34310927987098694,-0.07300291955471039,-9.75779914855957
1745653732.7717502,0.059148430824279785,-0.0065110111609101295,0.0009234437602572143,0.9266870617866516,-0.458988755941391,-9.356094360351562
1745653732.7718306,0.03867177292704582,-0.031175434589385986,0.014976084232330322,-0.3209378123283386,-0.6639649868011475,-10.827547073364258
1745653732.7722518,0.016087494790554047,0.03138317912817001,0.009984909556806087,-0.6987207531929016,-0.20449396967887878,-9.976659774780273
1745653732.7806437,-0.019904937595129013,0.0074678706005215645,0.0006225715042091906,0.34040093421936035,-0.07674453407526016,-8.072092056274414
1745653732.819321,-0.037607572972774506,-0.016513342037796974,-0.011267880909144878,0.5751913189888,0.040071696043014526,-9.672276496887207
1745653732.820077,-0.023136725649237633,-0.009040269069373608,-0.024053793400526047,1.4481613636016846,0.5011557340621948,-11.327446937561035
1745653732.8393316,-0.0056437235325574875,-0.003090535756200552,-0.02302931807935238,0.7666281461715698,0.11481264978647232,-10.790975570678711
1745653732.8394077,0.03747068718075752,0.01104178186506033,-0.008229449391365051,0.4740217328071594,-0.6424994468688965,-8.39918041229248
1745653732.8394618,-0.0015786930453032255,-0.019444499164819717,0.009802279993891716,0.6571715474128723,-0.3960413634777069,-8.731145858764648
1745653732.8601568,0.04145484045147896,-0.006426197476685047,0.015191912651062012,0.24206404387950897,0.10744913667440414,-11.181634902954102
1745653732.8602679,0.08397826552391052,0.026895999908447266,0.007090408354997635,0.2909128963947296,1.0162779092788696,-10.470063209533691
1745653732.8603292,0.0957547277212143,0.0124246496707201,-0.012361361645162106,0.09328864514827728,0.9426857233047485,-8.431312561035156
1745653732.8603766,0.11051706224679947,-0.010810183361172676,-0.03428579121828079,0.5840966105461121,0.526890218257904,-8.95815372467041
1745653732.8964942,0.07621246576309204,-0.006069881375879049,-0.04409252479672432,0.47984710335731506,-0.5203546285629272,-11.121928215026855
1745653732.8991053,0.07398922741413116,0.03381524235010147,-0.040444765239953995,0.4115438461303711,-1.0079765319824219,-10.57465648651123
1745653732.9013934,0.005643070675432682,0.016335029155015945,-0.02777053788304329,0.7740479111671448,-1.3267810344696045,-8.454206466674805
1745653732.904649,-0.024086255580186844,-3.0130195227684453e-05,-0.011634907685220242,0.7003332376480103,-1.0627435445785522,-9.099954605102539
1745653732.939153,-0.026225754991173744,0.015901703387498856,-0.006643022410571575,0.9541459083557129,0.09740398079156876,-10.85684585571289
1745653732.9403281,-0.01100701093673706,0.02012447826564312,-0.019466180354356766,0.48974522948265076,0.42014917731285095,-10.60985279083252
1745653732.9436212,0.029935315251350403,0.02625730261206627,-0.02722739800810814,0.1612119972705841,0.5745653510093689,-8.851964950561523
1745653732.9436545,0.02262410894036293,-0.0031070467084646225,-0.03585191071033478,0.25082579255104065,0.5052515268325806,-8.998762130737305
1745653732.9497974,0.059952784329652786,0.012541741132736206,-0.04129593446850777,-0.018802518025040627,0.16698017716407776,-10.643094062805176
1745653732.9878542,0.060400545597076416,0.016452297568321228,-0.05749083682894707,0.9145296216011047,-0.3681405186653137,-9.428674697875977
1745653732.9884157,0.060030292719602585,0.0227739866822958,-0.06228123977780342,0.5993984341621399,0.26097989082336426,-9.324275970458984
1745653732.9885197,0.057928599417209625,0.03294770419597626,-0.07193921506404877,0.6286713480949402,-0.13456162810325623,-9.87720012664795
1745653732.9885745,0.09700722992420197,0.04073173552751541,-0.0823269709944725,0.5902218818664551,0.36268293857574463,-9.70157527923584
1745653733.0264807,0.07624058425426483,0.040416352450847626,-0.09209731966257095,0.7509376406669617,0.06970728933811188,-9.550997734069824
1745653733.02655,0.1138651967048645,0.03959096595644951,-0.0962856113910675,0.617637574672699,0.08543313294649124,-9.783227920532227
1745653733.0265958,0.10610915720462799,0.05539426952600479,-0.10270524024963379,0.7966256737709045,-0.366752952337265,-9.779813766479492
1745653733.027284,0.10683444887399673,0.05533096194267273,-0.10396081209182739,1.0928343534469604,-0.5388630628585815,-9.692678451538086
1745653733.0817835,0.07583659142255783,0.05056256055831909,-0.1048656702041626,0.805965781211853,-0.43534693121910095,-9.877237319946289
1745653733.087201,0.09001966565847397,0.0624004602432251,-0.11113818734884262,1.0231897830963135,-0.46543675661087036,-9.75090503692627
1745653733.0872707,0.06599070876836777,0.06892846524715424,-0.11402131617069244,0.7497193217277527,0.2132476270198822,-9.448807716369629
1745653733.0873234,0.05963451787829399,0.05474343150854111,-0.12721826136112213,0.9335290789604187,-0.35394421219825745,-9.779367446899414
1745653733.087835,0.08332152664661407,0.05677870661020279,-0.13449205458164215,0.7961525917053223,0.5013560056686401,-10.031207084655762
1745653733.1089122,0.07834048569202423,0.07758913934230804,-0.1461774855852127,0.54686439037323,0.15085749328136444,-9.960161209106445
1745653733.1115632,0.12970830500125885,0.04930146411061287,-0.27151158452033997,0.9848539233207703,-0.5114488005638123,-10.037628173828125
1745653733.114289,0.12105685472488403,0.03829941898584366,-0.2764431834220886,1.173149585723877,-0.5788763761520386,-9.79835033416748
1745653733.1173236,0.11390934139490128,0.036933451890945435,-0.2815089225769043,0.8347123861312866,-0.23264393210411072,-9.526195526123047
1745653733.1520646,0.10060781240463257,0.03330091014504433,-0.2842720150947571,0.9924716949462891,-0.5949459671974182,-9.667537689208984
1745653733.1574237,0.1256290078163147,0.02899859845638275,-0.2898476719856262,0.8856378793716431,-0.1374221295118332,-9.77260684967041
1745653733.158102,0.107895627617836,0.029737303033471107,-0.29201894998550415,0.9063402414321899,-0.39865976572036743,-9.888944625854492
1745653733.164572,0.1411542147397995,0.024305755272507668,-0.2969624102115631,0.9278993606567383,-0.330018550157547,-9.690126419067383
1745653733.1668205,0.14346663653850555,0.024397050961852074,-0.2973687946796417,0.8555382490158081,-0.1778862178325653,-9.599942207336426
1745653733.2002447,0.14828968048095703,0.013343354687094688,-0.29954051971435547,1.096337080001831,-0.603695809841156,-9.785004615783691
1745653733.2003367,0.15827153623104095,0.01883087493479252,-0.30010557174682617,0.9026302099227905,-0.26745906472206116,-9.874897956848145
1745653733.200386,0.13511647284030914,0.012365348637104034,-0.30519455671310425,1.0397313833236694,-0.8221899271011353,-9.738940238952637
1745653733.2020357,0.14498242735862732,0.0052977390587329865,-0.3079754710197449,0.9541338682174683,-0.49302464723587036,-9.565147399902344
1745653733.2497878,0.11114408820867538,0.0053002131171524525,-0.31170129776000977,1.0277206897735596,-0.8008663058280945,-9.818946838378906
1745653733.2499604,0.12336323410272598,-0.005162866320461035,-0.3166918158531189,1.0314319133758545,-0.6444307565689087,-9.92165470123291
1745653733.2500122,0.09269659221172333,0.0036023478023707867,-0.3208259642124176,0.8013971447944641,-0.5177624821662903,-9.718327522277832
1745653733.255925,0.09233514964580536,-0.006103266961872578,-0.32299646735191345,1.051932454109192,-0.7560884356498718,-9.525613784790039
1745653733.2950537,0.10402919352054596,-0.009463604539632797,-0.324253112077713,0.8341455459594727,-0.3707420825958252,-9.649492263793945
1745653733.29517,0.09028220176696777,-0.0061408961191773415,-0.3280407786369324,1.053420901298523,-0.5585566759109497,-9.945825576782227
1745653733.2952194,0.11812301725149155,-0.009453373029828072,-0.3283974528312683,0.8628600835800171,-0.3495146632194519,-9.735203742980957
1745653733.304943,0.11950205266475677,-0.009052633307874203,-0.3306669294834137,0.8282453417778015,-0.4045103192329407,-9.516061782836914
1745653733.3050642,0.13182148337364197,-0.01923060603439808,-0.33103930950164795,1.0148069858551025,-0.46888914704322815,-9.680188179016113
1745653733.3292208,0.1314247101545334,-0.018799977377057076,-0.33469119668006897,0.8315824270248413,-0.4401841163635254,-10.014362335205078
1745653733.3293028,0.10578000545501709,-0.04167039319872856,-0.3479224145412445,1.0560591220855713,-0.6763201951980591,-9.625097274780273
1745653733.3294454,0.09633643925189972,-0.040174178779125214,-0.34638136625289917,0.7088600397109985,-0.4404606223106384,-9.745216369628906
1745653733.3341424,0.1066124439239502,-0.04597466439008713,-0.3483629524707794,0.8951823115348816,-0.6760731935501099,-9.824509620666504
1745653733.368244,0.11384925991296768,-0.04726903885602951,-0.3504902124404907,0.7616884112358093,-0.34212714433670044,-9.756624221801758
1745653733.389003,0.1160239726305008,-0.04054298251867294,-0.3515206277370453,0.8700564503669739,-0.6871745586395264,-9.62890625
1745653733.3891582,0.11533170938491821,-0.05300680920481682,-0.35605257749557495,0.9335979223251343,-0.5505412817001343,-9.67001724243164
1745653733.3892272,0.11346995830535889,-0.05345433950424194,-0.35626089572906494,0.8797839879989624,-0.8115295171737671,-9.901130676269531
1745653733.410627,0.10130752623081207,-0.050118595361709595,-0.35761144757270813,1.063557744026184,-0.7389132976531982,-9.812846183776855
1745653733.4124324,0.08380301296710968,-0.05627790093421936,-0.3577783405780792,0.8025528192520142,-0.813025176525116,-9.772960662841797
1745653733.414724,0.08715632557868958,-0.060073427855968475,-0.35999611020088196,1.0193722248077393,-0.8393375277519226,-9.624327659606934
1745653733.416606,0.07683388143777847,-0.061850786209106445,-0.3634633421897888,0.8714548349380493,-0.5826643109321594,-9.72546100616455
1745653733.4181762,0.07731948047876358,-0.057996563613414764,-0.36430269479751587,0.8585152626037598,-0.6263681054115295,-9.88481616973877
1745653733.4555025,0.09243907034397125,-0.0627119317650795,-0.36541634798049927,0.8706005811691284,-0.471116840839386,-9.62413215637207
1745653733.4600306,0.09551059454679489,-0.062317438423633575,-0.368451863527298,0.6647998094558716,-0.4475046694278717,-9.755643844604492
1745653733.4820065,0.06208869069814682,-0.061584342271089554,-0.3913416266441345,0.7110616564750671,-0.6983929872512817,-9.601114273071289
1745653733.4823422,0.061045091599226,-0.06483976542949677,-0.390595018863678,0.61479651927948,-0.8001610040664673,-9.621789932250977
1745653733.510081,0.07560720294713974,-0.06472928822040558,-0.39040952920913696,0.7664727568626404,-0.7622448205947876,-9.842557907104492
1745653733.5101597,0.0736573338508606,-0.06386987119913101,-0.39034944772720337,0.6032196283340454,-0.7307727932929993,-10.020844459533691
1745653733.5104775,0.0774298757314682,-0.057257603853940964,-0.39050763845443726,0.5782414674758911,-0.7612258195877075,-9.768834114074707
1745653733.5105457,0.06863132864236832,-0.0652492344379425,-0.39316022396087646,0.7043973803520203,-0.8299753069877625,-9.521644592285156
1745653733.540238,0.07838444411754608,-0.055655620992183685,-0.39488670229911804,0.600378155708313,-0.8893696665763855,-9.700774192810059
1745653733.5456011,0.06149744987487793,-0.061327505856752396,-0.39496996998786926,0.8451699018478394,-0.8866686820983887,-9.842669486999512
1745653733.5471427,0.05435270816087723,-0.05850720405578613,-0.3971095681190491,0.6437370181083679,-0.9913333654403687,-9.933948516845703
1745653733.5517087,0.05827732011675835,-0.048900485038757324,-0.3961912989616394,0.6510672569274902,-0.9080883264541626,-9.610143661499023
1745653733.5531802,0.03156508877873421,-0.06177617236971855,-0.39740294218063354,0.6398543119430542,-0.9690241813659668,-9.605871200561523
1745653733.5849242,0.05534868314862251,-0.05275775119662285,-0.3979933559894562,0.6708434224128723,-0.8138805627822876,-9.831560134887695
1745653733.5850546,0.025568991899490356,-0.054504912346601486,-0.39882126450538635,0.6638020873069763,-0.8370083570480347,-9.90296745300293
1745653733.5854328,0.05428481101989746,-0.050156742334365845,-0.3974565267562866,0.45865505933761597,-0.7797561883926392,-9.701579093933105
1745653733.5904136,0.0343853160738945,-0.04907473549246788,-0.3999802768230438,0.6979483366012573,-0.8673288226127625,-9.468343734741211
1745653733.6278143,0.046785011887550354,-0.051496706902980804,-0.4002917408943176,0.5709341764450073,-0.8840397000312805,-9.83221435546875
1745653733.629505,0.04685858637094498,-0.0421806201338768,-0.3983229696750641,0.7101537585258484,-0.6812931895256042,-9.900038719177246
1745653733.6310437,0.034725308418273926,-0.047317467629909515,-0.40215808153152466,0.6111626625061035,-0.8988321423530579,-9.752204895019531
1745653733.6330433,0.05932561680674553,-0.04088534414768219,-0.3998304307460785,0.6264244318008423,-0.7851244807243347,-9.56747817993164
1745653733.6343634,0.0340312160551548,-0.046736814081668854,-0.40149039030075073,0.798156201839447,-0.7730254530906677,-9.686826705932617
1745653733.6795478,0.05330958962440491,-0.04068020358681679,-0.40132564306259155,0.5527244806289673,-0.8664064407348633,-9.968689918518066
1745653733.6796584,0.048744700849056244,-0.03325669839978218,-0.40248918533325195,0.6235139966011047,-0.7431472539901733,-9.644182205200195
1745653733.687033,0.04306921362876892,-0.04181215912103653,-0.40245819091796875,0.6132837533950806,-0.899728000164032,-9.548425674438477
1745653733.6882193,0.03093099035322666,-0.03575367107987404,-0.3996938467025757,0.6969490647315979,-1.0295841693878174,-9.471973419189453
1745653733.7205398,0.04426359012722969,-0.03699319437146187,-0.40064024925231934,0.5419714450836182,-0.8746164441108704,-9.703852653503418
1745653733.7225652,0.03648991137742996,-0.029478758573532104,-0.4005015790462494,0.6646720170974731,-0.8333148956298828,-9.895492553710938
1745653733.7262108,0.02996872365474701,-0.028283173218369484,-0.4019312858581543,0.5990704298019409,-0.894363284111023,-9.712371826171875
1745653733.7308784,0.04152225703001022,-0.02289893850684166,-0.4030994474887848,0.6151020526885986,-0.8706216812133789,-9.479085922241211
1745653733.7536714,0.01959073916077614,-0.03692762181162834,-0.4019737243652344,0.7099204063415527,-0.9382590055465698,-9.784074783325195
1745653733.76417,0.04091278463602066,-0.02486596070230007,-0.40272650122642517,0.5069111585617065,-0.838919460773468,-10.071005821228027
1745653733.7669477,0.02333088591694832,-0.021453857421875,-0.398640513420105,0.6469429731369019,-0.9000767469406128,-9.692094802856445
1745653733.768435,0.02848231792449951,-0.028161799535155296,-0.40195927023887634,0.5545976758003235,-0.8462638854980469,-9.39854621887207
1745653733.7731192,0.020962119102478027,-0.02688434347510338,-0.4008849263191223,0.7429096102714539,-0.9139367938041687,-9.705962181091309
1745653733.8027291,0.02825276181101799,-0.027374515309929848,-0.3988795876502991,0.6274014115333557,-0.8761522173881531,-10.112836837768555
1745653733.804202,0.03165581077337265,-0.014040781185030937,-0.40114158391952515,0.526911735534668,-0.773835301399231,-9.709697723388672
1745653733.81112,0.01673457771539688,-0.026904117316007614,-0.3996027708053589,0.669674277305603,-0.9262629747390747,-9.399972915649414
1745653733.8116906,-0.00034145909012295306,-0.008664860390126705,-0.3903404474258423,0.6280258893966675,-0.8604685664176941,-9.788078308105469
1745653733.8434508,0.008709016256034374,-0.01434382051229477,-0.38835278153419495,0.59382164478302,-0.8588835000991821,-9.734624862670898
1745653733.8457487,0.00592697924003005,-0.012561207637190819,-0.3860258460044861,0.5642432570457458,-0.8429756164550781,-9.742734909057617
1745653733.8466194,0.003188848029822111,-0.015351319685578346,-0.386226624250412,0.7224457263946533,-0.9245313405990601,-9.723398208618164
1745653733.8480926,-0.0002974599483422935,-0.015593230724334717,-0.38885393738746643,0.5395289659500122,-0.8374834060668945,-9.761116027832031
1745653733.8973432,-0.010990957729518414,-0.01234775222837925,-0.38820305466651917,0.7506183385848999,-1.0473392009735107,-9.708338737487793
1745653733.8974447,-0.00792914628982544,-0.017619159072637558,-0.38704994320869446,0.6142889261245728,-0.8199896812438965,-9.631754875183105
1745653733.8978846,-0.024460796266794205,-0.0132313696667552,-0.385783851146698,0.6725791692733765,-0.9540659189224243,-9.762887954711914
1745653733.8979733,-0.019348448142409325,-0.020521055907011032,-0.3867317736148834,0.6327654719352722,-0.9229356646537781,-9.806446075439453
1745653733.9262853,-0.012312234379351139,-0.014624794013798237,-0.38537678122520447,0.5209358930587769,-0.6697735786437988,-9.7552490234375
1745653733.9278893,-0.01648968644440174,-0.01970900595188141,-0.3842516541481018,0.6954399347305298,-0.8293396234512329,-9.638273239135742
1745653733.9281278,0.0032034546602517366,-0.013883980922400951,-0.3859158158302307,0.4642046093940735,-0.5933173298835754,-9.719135284423828
1745653733.9296691,-0.0027742129750549793,-0.018774356693029404,-0.3824751079082489,0.719785749912262,-0.9142683744430542,-9.727580070495605
1745653733.9343016,0.0036840259563177824,-0.02233443595468998,-0.3818262219429016,0.5684598684310913,-0.7903671860694885,-9.724706649780273
1745653733.972288,-0.0015565595822408795,-0.017031017690896988,-0.3794814944267273,0.5852028131484985,-0.9702579379081726,-9.800426483154297
1745653733.9779267,-0.002646747976541519,-0.019850224256515503,-0.38049691915512085,0.6407597661018372,-0.852212131023407,-9.740979194641113
1745653733.978014,-0.012663668021559715,-0.016965121030807495,-0.38023799657821655,0.5604578852653503,-0.8383340835571289,-9.703625679016113
1745653733.978086,-0.017833594232797623,-0.0217366311699152,-0.38221365213394165,0.8092028498649597,-0.9337741136550903,-9.710634231567383
1745653734.0126882,-0.008006901480257511,-0.02222772315144539,-0.3820308446884155,0.5109661817550659,-0.7294546961784363,-9.768863677978516
1745653734.014227,-0.024309050291776657,-0.017898039892315865,-0.38164380192756653,0.7320619821548462,-0.9103783369064331,-9.764253616333008
1745653734.0157695,-0.015095330774784088,-0.021478693932294846,-0.37919729948043823,0.5765764713287354,-0.8510056734085083,-9.613859176635742
1745653734.018931,-0.01629321463406086,-0.01947830244898796,-0.3791066110134125,0.49560943245887756,-0.7956273555755615,-9.708178520202637
1745653734.0227387,-0.012303568422794342,-0.02170943282544613,-0.37419945001602173,0.6430881023406982,-0.7886261940002441,-9.819132804870605
1745653734.0600848,-0.008321112021803856,-0.027334138751029968,-0.3749980926513672,0.5568450093269348,-0.750684916973114,-9.721972465515137
1745653734.0640912,-0.0035801357589662075,-0.021119344979524612,-0.3759438991546631,0.6246601343154907,-1.0247598886489868,-9.864169120788574
1745653734.067068,-0.008510001003742218,-0.022508513182401657,-0.3727322220802307,0.6850541830062866,-0.830187201499939,-9.682823181152344
1745653734.072369,-0.018066538497805595,-0.01916346698999405,-0.3722109794616699,0.5405717492103577,-0.8672425150871277,-9.587348937988281
1745653734.115221,-0.02065640315413475,-0.025762489065527916,-0.3730310797691345,0.7290822267532349,-0.9270616769790649,-9.785036087036133
1745653734.115441,-0.012400498613715172,-0.023836005479097366,-0.3724883198738098,0.44781941175460815,-0.6004385948181152,-9.914581298828125
1745653734.1182928,-0.01796538755297661,-0.024538081139326096,-0.3739487826824188,0.6103336215019226,-0.8771783113479614,-9.760995864868164
1745653734.1188076,-0.006544722709804773,-0.027529627084732056,-0.37167131900787354,0.5312724113464355,-0.6412426829338074,-9.6167573928833
1745653734.1426816,-0.01401990931481123,-0.025225376710295677,-0.37091416120529175,0.5362184047698975,-0.8848105669021606,-9.717000961303711
1745653734.1441946,-0.007966631092131138,-0.028222281485795975,-0.3715045750141144,0.6140415668487549,-0.7753443121910095,-9.796956062316895
1745653734.1530204,-0.008475007489323616,-0.019104216247797012,-0.3681372106075287,0.5079302787780762,-0.8636751174926758,-9.733793258666992
1745653734.1589022,-0.00888796616345644,-0.027755210176110268,-0.368734210729599,0.7339438199996948,-0.8864156007766724,-9.643758773803711
1745653734.1869552,-0.019951513037085533,-0.029620757326483727,-0.36716222763061523,0.5512216687202454,-0.730025589466095,-9.871963500976562
1745653734.1873484,-0.0940614715218544,-0.06740815192461014,-0.2305457890033722,-0.021587511524558067,-0.46930256485939026,-10.671595573425293
1745653734.1999454,-0.08508005738258362,-0.06105824187397957,-0.2251855432987213,0.11591973155736923,-0.5251193046569824,-9.196476936340332
1745653734.2054634,-0.10705635696649551,-0.086861751973629,-0.2212139368057251,0.41091448068618774,-0.8465689420700073,-9.065046310424805
1745653734.2060704,-0.0958046168088913,-0.08398313820362091,-0.2151452600955963,0.2909015119075775,-0.6982496976852417,-10.451593399047852
1745653734.2304502,-0.1091659665107727,-0.06996427476406097,-0.20913486182689667,0.36863914132118225,-0.8215129971504211,-10.610479354858398
1745653734.2310953,-0.11067488044500351,-0.07246887683868408,-0.2054368555545807,8.156448893714696e-05,-0.6497438549995422,-9.253595352172852
1745653734.2325022,-0.12430187314748764,-0.08135433495044708,-0.20451247692108154,0.026274845004081726,-0.5882886648178101,-8.97877025604248
1745653734.2352593,-0.12603691220283508,-0.08587490022182465,-0.20420388877391815,0.031323254108428955,-0.44586142897605896,-10.197932243347168
1745653734.2719164,-0.11405358463525772,-0.06703241169452667,-0.2059468775987625,-0.10885472595691681,-0.398971289396286,-10.522789001464844
1745653734.2760112,-0.11854646354913712,-0.06943367421627045,-0.2050388753414154,0.11353404819965363,-0.599267303943634,-9.394783973693848
1745653734.2767339,-0.11553625017404556,-0.07785912603139877,-0.19995799660682678,-0.06110859662294388,-0.6035106182098389,-9.203104019165039
1745653734.2823749,-0.12138239294290543,-0.07345246523618698,-0.1930052787065506,0.23089149594306946,-0.8115875124931335,-10.107989311218262
1745653734.2840147,-0.11898436397314072,-0.0660247653722763,-0.18504655361175537,0.16489771008491516,-0.7380682229995728,-10.31468391418457
1745653734.318675,-0.12427616119384766,-0.061341799795627594,-0.18209180235862732,0.1395220309495926,-0.7700191736221313,-9.588804244995117
1745653734.3232791,-0.13758566975593567,-0.07352225482463837,-0.17769284546375275,0.1789974719285965,-0.5946587324142456,-9.409402847290039
1745653734.326579,-0.13589410483837128,-0.06931012868881226,-0.17739145457744598,-0.01277332566678524,-0.41188549995422363,-10.059892654418945
1745653734.3281772,-0.14477279782295227,-0.0610145628452301,-0.18078291416168213,0.176817387342453,-0.4742315411567688,-10.133807182312012
1745653734.3621001,-0.14543631672859192,-0.06415454298257828,-0.18323534727096558,-0.028454899787902832,-0.41715067625045776,-9.67646598815918
1745653734.367627,-0.14675302803516388,-0.05988297611474991,-0.18030096590518951,0.05561559647321701,-0.4809265732765198,-9.524971008300781
1745653734.368537,-0.14558349549770355,-0.06634314358234406,-0.17627814412117004,0.11993900686502457,-0.4139237403869629,-9.910337448120117
1745653734.3685944,-0.13410808145999908,-0.05471805855631828,-0.17144320905208588,0.13547475636005402,-0.4462859630584717,-10.05226993560791
1745653734.3699617,-0.13071726262569427,-0.060285914689302444,-0.16895410418510437,0.250540167093277,-0.42997679114341736,-9.788389205932617
1745653734.4093735,-0.11415988206863403,-0.05614788085222244,-0.16549348831176758,-0.003533803392201662,-0.3378111720085144,-9.763240814208984
1745653734.4095132,-0.1289682388305664,-0.052512072026729584,-0.1613069623708725,0.0544167086482048,-0.5185226202011108,-9.745060920715332
1745653734.4098978,-0.13253149390220642,-0.04360821843147278,-0.16054439544677734,0.01819341816008091,-0.5383085012435913,-9.783114433288574
1745653734.4100008,-0.1497349739074707,-0.0481930747628212,-0.15852582454681396,0.30339622497558594,-0.683451771736145,-9.810530662536621
1745653734.4476597,-0.15479545295238495,-0.046608418226242065,-0.15677163004875183,0.10148517042398453,-0.5298744440078735,-9.9779052734375
1745653734.4579113,-0.1577773094177246,-0.03670957684516907,-0.15269967913627625,0.1783701777458191,-0.5680700540542603,-9.852521896362305
1745653734.463022,-0.15554103255271912,-0.04194369912147522,-0.14996574819087982,0.06186821311712265,-0.35058945417404175,-9.661158561706543
1745653734.4717808,-0.14999786019325256,-0.03406640887260437,-0.14617031812667847,0.046618327498435974,-0.27299362421035767,-9.735931396484375
1745653734.489118,-0.14001379907131195,-0.039720483124256134,-0.14495204389095306,0.0762852281332016,-0.15113148093223572,-9.925250053405762
1745653734.49436,-0.12363860756158829,-0.02776583656668663,-0.14529186487197876,-0.15608283877372742,-0.056445639580488205,-9.905993461608887
1745653734.495044,-0.11920064687728882,-0.027844345197081566,-0.14698734879493713,0.10772500932216644,-0.20299279689788818,-9.595887184143066
1745653734.4997265,-0.11598379909992218,-0.03304528445005417,-0.14642533659934998,0.02542629837989807,-0.22815541923046112,-9.725720405578613
1745653734.5310318,-0.11755800247192383,-0.026152735576033592,-0.14554132521152496,0.19064363837242126,-0.46708813309669495,-10.032232284545898
1745653734.5329478,-0.12485500425100327,-0.02579372189939022,-0.14094127714633942,0.2037907838821411,-0.46507397294044495,-9.954595565795898
1745653734.5343304,-0.08863894641399384,0.018455110490322113,-0.10575415939092636,0.2060442864894867,-0.053986936807632446,-9.721118927001953
1745653734.5371413,-0.0848635882139206,0.02298785373568535,-0.1043599396944046,0.036567289382219315,-0.07676051557064056,-9.722925186157227
1745653734.537804,-0.09353575110435486,0.019803065806627274,-0.10420874506235123,0.30728286504745483,-0.19665703177452087,-9.741703033447266
1745653734.5755367,-0.09718172252178192,0.01977640762925148,-0.10324838012456894,0.1714957356452942,-0.11293227970600128,-9.810013771057129
1745653734.580913,-0.09722508490085602,0.023795856162905693,-0.09935060888528824,0.21943244338035583,-0.14867964386940002,-9.801759719848633
1745653734.586104,-0.10007716715335846,0.01752263680100441,-0.1003468781709671,0.20111849904060364,-0.03098403848707676,-9.716043472290039
1745653734.5861533,-0.09249869734048843,0.022968526929616928,-0.09701493382453918,0.059386491775512695,0.014552438631653786,-9.737505912780762
1745653734.616994,-0.09179765731096268,0.019269661977887154,-0.0964236706495285,0.22702071070671082,0.02671290561556816,-9.742883682250977
1745653734.6230521,-0.08053451031446457,0.021960027515888214,-0.09846743196249008,-0.022736012935638428,0.1299041509628296,-9.80867862701416
1745653734.62313,-0.07821302115917206,0.023967813700437546,-0.09733898937702179,0.17216578125953674,0.03024579957127571,-9.666105270385742
1745653734.623665,-0.07559137046337128,0.01757560297846794,-0.09692241251468658,0.093458391726017,0.093353770673275,-9.678464889526367
1745653734.626341,-0.0666457861661911,0.02688981592655182,-0.09774177521467209,0.17943570017814636,-0.022387871518731117,-9.800068855285645
1745653734.6736917,-0.07114777714014053,0.019277308136224747,-0.0958184227347374,0.30367815494537354,-0.018034659326076508,-9.787318229675293
1745653734.6737537,-0.06864030659198761,0.025185590609908104,-0.09339673817157745,0.11640165001153946,-0.03239359334111214,-9.760747909545898
1745653734.675932,-0.0738496482372284,0.02007986605167389,-0.09329824894666672,0.3145834505558014,-0.07490236312150955,-9.678157806396484
1745653734.6773367,-0.07285450398921967,0.021654943004250526,-0.09354735910892487,0.08659288287162781,0.046167612075805664,-9.77918529510498
1745653734.7024488,-0.073478564620018,0.02398826740682125,-0.09285958111286163,0.19881930947303772,0.015439098700881004,-9.774775505065918
1745653734.7037923,-0.07017198950052261,0.018673066049814224,-0.09220908582210541,0.13535495102405548,0.13050010800361633,-9.711542129516602
1745653734.715602,-0.06251151859760284,0.026809027418494225,-0.092013880610466,0.09017543494701385,0.09304001182317734,-9.68729305267334
1745653734.71684,-0.06257178634405136,0.019425982609391212,-0.09279917180538177,0.26066356897354126,0.07738859951496124,-9.740774154663086
1745653734.717415,-0.05124480649828911,0.023077603429555893,-0.0914081335067749,0.07053180783987045,0.10059084743261337,-9.848746299743652
1745653734.745624,-0.05177585035562515,0.023605192080140114,-0.08968205749988556,0.28035515546798706,-0.025091370567679405,-9.71215534210205
1745653734.7497187,-0.05099962279200554,0.01902838423848152,-0.08879681676626205,0.1495802104473114,0.07407206296920776,-9.715710639953613
1745653734.759375,-0.047073353081941605,0.023701617494225502,-0.08700035512447357,0.11646870523691177,0.060267768800258636,-9.772065162658691
1745653734.7594485,-0.052805691957473755,0.016663843765854836,-0.08743397891521454,0.28874605894088745,0.03939386084675789,-9.687594413757324
1745653734.9415534,-0.05006680637598038,0.019013017416000366,-0.08654848486185074,0.07743687927722931,0.12364514172077179,-9.787040710449219
1745653734.9416924,-0.04921853914856911,0.01976419985294342,-0.08818869292736053,0.25596198439598083,0.03826279565691948,-9.744865417480469
1745653734.9423451,-0.04529986530542374,0.0144052654504776,-0.0864277109503746,0.1558307409286499,0.1291666328907013,-9.745729446411133
1745653734.9424076,-0.03840816766023636,0.022374888882040977,-0.08523406088352203,0.1618148535490036,0.08613672107458115,-9.714605331420898
1745653734.9446728,-0.037703678011894226,0.014274364337325096,-0.08423349261283875,0.262635201215744,0.12143242359161377,-9.73917007446289
1745653734.9447396,-0.027143392711877823,0.019304178655147552,-0.0846310704946518,0.10017397254705429,0.1275959312915802,-9.805341720581055
1745653734.9458845,-0.028855973854660988,0.018470199778676033,-0.08164032548666,0.2901753783226013,0.07511427253484726,-9.754125595092773
1745653734.947284,-0.021189946681261063,0.014542425982654095,-0.0831509605050087,0.09117314219474792,0.1729171872138977,-9.754281997680664
1745653734.9743936,-0.02228381484746933,0.020014416426420212,-0.08209522068500519,0.22162902355194092,0.03826116397976875,-9.714800834655762
1745653734.9745538,-0.02554902993142605,0.0127709386870265,-0.08369670808315277,0.22545568645000458,0.08425913006067276,-9.751896858215332
1745653734.9747689,0.0315488800406456,0.007496710866689682,-0.08057131618261337,0.4560062885284424,0.17837440967559814,-9.663987159729004
1745653734.976392,0.03357572481036186,-0.006798092275857925,-0.08231662213802338,0.5116791725158691,0.1927419900894165,-9.806073188781738
1745653734.9851336,0.051301050931215286,0.009851615875959396,-0.08395837247371674,0.24766752123832703,0.22817714512348175,-9.979272842407227
1745653734.9852123,0.05066920071840286,0.007923265919089317,-0.086158886551857,0.4710462689399719,0.14016282558441162,-9.625980377197266
1745653734.9852693,0.06116407364606857,0.006580813322216272,-0.08727563917636871,0.3522249162197113,0.11300325393676758,-9.63994026184082
1745653734.9853208,0.04979056119918823,0.003967087250202894,-0.09077375382184982,0.5446953773498535,-0.0038343772757798433,-9.925813674926758
1745653734.9884744,0.060432203114032745,0.00634954497218132,-0.09469589591026306,0.3492417633533478,0.06953487545251846,-10.044889450073242
1745653734.9888542,0.0557728186249733,0.016190018504858017,-0.09450952708721161,0.2660973370075226,0.02724265493452549,-9.65649127960205
1745653734.988946,0.03491344302892685,0.005000774282962084,-0.09989409148693085,0.47233015298843384,-0.20858672261238098,-9.51829719543457
1745653734.9910083,0.03964553028345108,0.0059089683927595615,-0.10416221618652344,0.4466344714164734,0.04322975128889084,-9.947507858276367
1745653734.9911246,0.02615913189947605,0.007076872047036886,-0.10979039967060089,0.646263599395752,0.025052469223737717,-10.183584213256836
1745653735.045183,0.04835400730371475,0.02608378790318966,-0.11558767408132553,0.46666938066482544,0.26513370871543884,-9.58976936340332
1745653735.0455713,0.04307972267270088,0.011287549510598183,-0.11860448122024536,0.8877946734428406,0.071251280605793,-9.378061294555664
1745653735.0589287,0.06851612031459808,0.0026500271633267403,-0.11379772424697876,0.6434458494186401,-0.0651099681854248,-10.108667373657227
1745653735.0590043,0.0651436448097229,0.026386409997940063,-0.11093969643115997,0.3403872549533844,-0.032194558531045914,-10.307034492492676
1745653735.086459,0.07085590064525604,0.015336046926677227,-0.10379322618246078,0.21860650181770325,-0.38497066497802734,-9.546191215515137
1745653735.0995076,0.06133239343762398,0.019423380494117737,-0.10801585763692856,0.061378367245197296,0.29117342829704285,-9.189884185791016
1745653735.102989,0.02995183691382408,0.018317997455596924,-0.11804530769586563,0.6358901858329773,0.2507321536540985,-9.89264965057373
1745653735.108921,0.06808140873908997,0.012490877881646156,-0.1377522349357605,0.6072991490364075,0.8728493452072144,-10.370615005493164
1745653735.1138544,0.07174734771251678,0.04535680264234543,-0.15679530799388885,0.9047767519950867,0.6823315620422363,-9.62818431854248
1745653735.1474383,0.08387923240661621,0.010935448110103607,-0.16368143260478973,1.4066482782363892,0.017276400700211525,-9.232963562011719
1745653735.1509166,0.1104208454489708,0.012039372697472572,-0.15740592777729034,1.02615225315094,-0.2500598728656769,-10.340014457702637
1745653735.1600814,0.09818048775196075,0.03534786030650139,-0.14314231276512146,0.6819674968719482,-0.5118243098258972,-10.513792991638184
1745653735.1601498,0.14228318631649017,0.04795548692345619,-0.13531187176704407,0.3273361623287201,-0.17004859447479248,-9.136571884155273
1745653735.1733434,0.12665052711963654,0.03562842682003975,-0.13765108585357666,0.5332759022712708,0.47105589509010315,-8.685598373413086
1745653735.1734116,0.13073351979255676,0.02386186458170414,-0.15663358569145203,0.5672022104263306,0.5181357860565186,-10.301606178283691
1745653735.1734555,0.17792800068855286,0.05478975921869278,-0.1825653612613678,0.4659179151058197,0.8664848208427429,-10.635885238647461
1745653735.177039,0.13098980486392975,0.04758906364440918,-0.19712230563163757,0.47614821791648865,-0.1856018453836441,-9.354299545288086
1745653735.1883502,0.14222334325313568,0.04572061449289322,-0.19648689031600952,0.6080228686332703,-0.7306115031242371,-8.816720962524414
1745653735.1890988,0.0782676637172699,0.04292198270559311,-0.19401974976062775,1.042239785194397,-0.8158384561538696,-10.057377815246582
1745653735.1891413,0.07416413724422455,0.05482608824968338,-0.1841503083705902,0.9074759483337402,-0.7782303690910339,-10.690896987915039
1745653735.1891813,0.09141885489225388,0.06996482610702515,-0.1797540932893753,0.9148669242858887,0.1904151737689972,-9.310595512390137
1745653735.1896858,0.07354874908924103,0.04438658058643341,-0.1854242980480194,0.9237468838691711,0.2550288736820221,-9.149678230285645
1745653735.2573798,0.14197248220443726,0.040152765810489655,-0.1943703591823578,0.5653383731842041,0.851662814617157,-10.258346557617188
1745653735.2584736,0.1477240025997162,0.05950305983424187,-0.20655086636543274,0.4438565671443939,0.7305925488471985,-10.500757217407227
1745653735.2610502,0.1969715654850006,0.05899170786142349,-0.21518440544605255,0.10342154651880264,0.48771581053733826,-9.205717086791992
1745653735.2652502,0.0987807959318161,-0.02847384475171566,-0.2581653892993927,0.2739907503128052,-0.39700815081596375,-8.668184280395508
1745653735.2653413,0.06898599863052368,-0.033467285335063934,-0.255299836397171,0.35036760568618774,0.35280197858810425,-9.975378036499023
1745653735.2692893,0.08902017772197723,-0.04118865355849266,-0.2408304214477539,0.6373424530029297,-1.1984049081802368,-11.220293045043945
1745653735.2701354,0.142588272690773,-0.01022990234196186,-0.21739038825035095,-0.08028841018676758,-0.2741193175315857,-9.470297813415527
1745653735.2714822,0.055020082741975784,-0.02438032068312168,-0.1999589204788208,0.46672096848487854,-1.3244421482086182,-8.050002098083496
1745653735.3091753,0.11746914684772491,-0.07035600394010544,-0.1951974332332611,1.1001209020614624,0.12053155899047852,-9.657739639282227
1745653735.309261,0.09804542362689972,-0.04172534495592117,-0.2021908313035965,0.34649455547332764,0.21860118210315704,-12.100961685180664
1745653735.312597,0.14723210036754608,-0.03181535750627518,-0.2006652057170868,0.24535226821899414,-0.6503822207450867,-9.927021980285645
1745653735.3234577,0.09429015219211578,-0.04174333065748215,-0.19733017683029175,-0.37208831310272217,-0.31478360295295715,-7.378033638000488
1745653735.3502228,0.04834922030568123,-0.0711904987692833,-0.19163979589939117,0.41784077882766724,-1.7652194499969482,-9.170646667480469
1745653735.3507297,0.05959967523813248,-0.04397662729024887,-0.1815233677625656,0.729324996471405,-0.2625165581703186,-11.259721755981445
1745653735.3518252,-0.021146487444639206,-0.03061574697494507,-0.17904908955097198,0.5365325212478638,-1.133894920349121,-10.68344497680664
1745653735.3560429,0.038630664348602295,-0.05203604698181152,-0.16886919736862183,0.8456985354423523,-0.6775757074356079,-8.21325397491455
1745653735.3616822,-0.04763525351881981,-0.06688661873340607,-0.15188688039779663,0.7526170611381531,-0.573065459728241,-9.228473663330078
1745653735.400251,0.00944601558148861,-0.05219464749097824,-0.13433320820331573,1.0453219413757324,-0.9916634559631348,-11.363932609558105
1745653735.4007907,-0.0220283642411232,-0.03504876419901848,-0.1218099594116211,0.613782525062561,-0.42792630195617676,-10.191213607788086
1745653735.4013019,-0.00640318775549531,-0.03966648876667023,-0.10282901674509048,0.7035871148109436,-0.6013112664222717,-8.406761169433594
1745653735.4019186,-0.012140145525336266,-0.06805025041103363,-0.09627006202936172,0.8828121423721313,0.2873047888278961,-9.302648544311523
1745653735.434202,0.0018645249074324965,-0.056401919573545456,-0.09809606522321701,0.6221375465393066,0.17680640518665314,-11.209526062011719
1745653735.442127,0.022831007838249207,-0.03737032413482666,-0.10064448416233063,0.908180832862854,0.21940426528453827,-10.278867721557617
1745653735.4427378,0.014208212494850159,-0.05437688156962395,-0.09826786816120148,0.4901348054409027,-0.10556235164403915,-8.815847396850586
1745653735.4430795,0.03887995332479477,-0.05996000021696091,-0.08961950242519379,0.7278460264205933,-0.3266358971595764,-9.287355422973633
1745653735.4461584,0.02039778232574463,-0.05685416981577873,-0.07507370412349701,0.9291666150093079,-0.34052520990371704,-10.643473625183105
1745653735.4802668,0.019261281937360764,-0.04695790261030197,-0.03726508468389511,0.3829854428768158,-0.658204197883606,-9.299034118652344
1745653735.481041,0.044899649918079376,-0.043720971792936325,-0.0329146571457386,0.7262483835220337,-0.6754478216171265,-10.409722328186035
1745653735.4903412,0.012698677368462086,-0.03321610018610954,-0.03199378028512001,0.4628423750400543,-0.5642654299736023,-10.349466323852539
1745653735.4903948,-0.02349809929728508,-0.030067969113588333,-0.028969284147024155,0.22468873858451843,-1.2012640237808228,-9.387064933776855
1745653735.520745,-0.05444621294736862,-0.0358729287981987,-0.019461950287222862,0.4998806118965149,-1.0595258474349976,-8.944375991821289
1745653735.5227997,-0.1051950603723526,-0.026803001761436462,-0.013259637169539928,0.5568541288375854,-1.204837679862976,-9.970369338989258
1745653735.530837,-0.12369905412197113,-0.02357550337910652,-0.0023724164348095655,0.8424739837646484,-0.9383823275566101,-10.405458450317383
1745653735.5354087,-0.1519429236650467,-0.023433541879057884,0.0034517175517976284,0.7254220843315125,-0.6355195641517639,-9.876343727111816
1745653735.5662448,-0.12672947347164154,-0.020487133413553238,0.011570939794182777,0.7255414724349976,-0.3536835312843323,-9.35899543762207
1745653735.566592,-0.1417146772146225,-0.028147298842668533,0.020891910418868065,0.6167773008346558,-0.09674303978681564,-9.774084091186523
1745653735.5700526,-0.10424592345952988,-0.024424970149993896,0.02672048844397068,0.5545653104782104,-0.09976018965244293,-10.269882202148438
1745653735.5792804,-0.08722620457410812,-0.016462022438645363,0.03389083594083786,0.46877115964889526,0.17011649906635284,-9.86131763458252
1745653735.6065474,-0.06409801542758942,-0.016223184764385223,0.035551972687244415,0.22553829848766327,0.1487579494714737,-9.427286148071289
1745653735.6114552,-0.1887878179550171,0.010502462275326252,0.19319334626197815,0.5084731578826904,0.09937213361263275,-9.596095085144043
1745653735.6135936,-0.1841581165790558,0.012269427999854088,0.19649267196655273,0.7777878046035767,0.07777397334575653,-10.031290054321289
1745653735.620673,-0.17674335837364197,0.01336248405277729,0.1963678002357483,0.4746391773223877,0.2176629602909088,-10.081777572631836
1745653735.6209803,-0.18006376922130585,0.01609102264046669,0.20070846378803253,0.518329918384552,0.014102277345955372,-9.567233085632324
1745653735.6513383,-0.18140630424022675,0.005336209200322628,0.20464642345905304,0.6116673350334167,0.016329098492860794,-9.433449745178223
1745653735.655198,-0.1843816637992859,0.012996554374694824,0.20685355365276337,0.4673769474029541,-0.04365503042936325,-10.013562202453613
1745653735.655336,-0.18810641765594482,0.009195385500788689,0.21225588023662567,0.7112811803817749,-0.012775314040482044,-9.993135452270508
1745653735.657157,-0.18838432431221008,0.009722599759697914,0.21429137885570526,0.44086045026779175,-0.008001957088708878,-9.629277229309082
1745653735.6918943,-0.18912898004055023,0.010542898438870907,0.2181568592786789,0.6045504212379456,0.024633359163999557,-9.492229461669922
1745653735.6962752,-0.20008909702301025,0.00487831374630332,0.22276508808135986,0.5461816191673279,0.014317276887595654,-9.87543773651123
1745653735.699266,-0.18952910602092743,0.011794007383286953,0.22463062405586243,0.5529088973999023,0.07204168289899826,-9.969152450561523
1745653735.6997342,-0.1996680200099945,0.008205845020711422,0.22877244651317596,0.6192861199378967,0.07731974124908447,-9.721639633178711
1745653735.7007048,-0.1928708553314209,0.008739027194678783,0.22982163727283478,0.3032708764076233,0.13969582319259644,-9.55787181854248
1745653735.735463,-0.20294590294361115,0.00850067101418972,0.2342483252286911,0.5879244208335876,0.044204212725162506,-9.618246078491211
1745653735.74267,-0.2013508528470993,0.006044038571417332,0.23739047348499298,0.5559142827987671,0.1977236121892929,-9.802583694458008
1745653735.7429953,-0.1967458724975586,0.016800109297037125,0.2409505397081375,0.5952695608139038,0.1769702136516571,-9.855203628540039
1745653735.750364,-0.19688740372657776,0.003628065809607506,0.24124443531036377,0.6493145823478699,0.30363383889198303,-9.701742172241211
1745653735.781794,-0.1894443780183792,0.005208817310631275,0.243982195854187,0.49105769395828247,0.2347366362810135,-9.738449096679688
1745653735.7819831,-0.1921655237674713,0.006315230391919613,0.24516741931438446,0.6678295135498047,0.23769482970237732,-9.779861450195312
1745653735.7829607,-0.19189253449440002,0.003926806151866913,0.24993042647838593,0.4286379814147949,0.25341305136680603,-9.798745155334473
1745653735.7847419,-0.18173149228096008,0.004461406730115414,0.2528199851512909,0.6148091554641724,0.2126678228378296,-9.608833312988281
1745653735.8249197,-0.18975111842155457,0.0009652930311858654,0.2556005120277405,0.5549830198287964,0.3033093512058258,-9.704133987426758
1745653735.8249984,-0.1872684508562088,0.00030795723432675004,0.2659972608089447,0.6083839535713196,0.16943927109241486,-9.76819896697998
1745653735.826568,-0.18172994256019592,-0.006449226289987564,0.2686964273452759,0.46202191710472107,0.33403465151786804,-9.794076919555664
1745653735.8313189,-0.17979660630226135,-0.0007448621327057481,0.271099328994751,0.5955296754837036,0.23903372883796692,-9.66193962097168
1745653735.8664057,-0.18707089126110077,-0.0033514939714223146,0.27255725860595703,0.5333094596862793,0.39532530307769775,-9.680238723754883
1745653735.8696597,-0.18491658568382263,0.00039767567068338394,0.2743462324142456,0.37893301248550415,0.2965206503868103,-9.731268882751465
1745653735.8738544,-0.17888882756233215,-0.006400417536497116,0.2774370312690735,0.6925778388977051,0.38477060198783875,-9.623342514038086
1745653735.8787367,-0.18211956322193146,-0.004304659552872181,0.27522799372673035,0.4904756546020508,0.46636468172073364,-9.844083786010742
1745653735.9062583,-0.17541547119617462,-0.00452805683016777,0.2799360454082489,0.5427803993225098,0.3125969469547272,-9.812202453613281
1745653735.907791,-0.1763242781162262,-0.006918513216078281,0.2799498438835144,0.48359885811805725,0.3588140308856964,-9.61109733581543
1745653735.9101074,-0.17162086069583893,0.001339114853180945,0.28847378492355347,0.5118467211723328,0.3636147081851959,-9.53969955444336
1745653735.9126945,-0.17596164345741272,-0.00958465225994587,0.28784409165382385,0.6358579397201538,0.37560778856277466,-9.802705764770508
1745653735.9142983,-0.165988028049469,-0.005852258298546076,0.2892584204673767,0.44444698095321655,0.5540663599967957,-9.949456214904785
1745653735.956567,-0.16813866794109344,-0.004730408079922199,0.2908858358860016,0.6565671563148499,0.384829044342041,-9.687448501586914
1745653735.9570937,-0.11095831543207169,-0.015395927242934704,0.33318620920181274,0.5480278134346008,0.7077983617782593,-9.80152416229248
1745653735.957502,-0.12719550728797913,-0.018780473619699478,0.3327982425689697,0.5521473288536072,0.605545699596405,-9.79322624206543
1745653735.9590204,-0.11704878509044647,-0.017166221514344215,0.33653658628463745,0.4102104604244232,0.6313358545303345,-9.75081729888916
1745653735.9967062,-0.12411133944988251,-0.020237214863300323,0.3395630717277527,0.6234177350997925,0.5512353777885437,-9.66722297668457
1745653735.9971552,-0.12214849889278412,-0.017190080136060715,0.3410094380378723,0.4324251115322113,0.7309902906417847,-9.802922248840332
1745653736.0035553,-0.12320307642221451,-0.015461457893252373,0.3430253863334656,0.5006512403488159,0.6066944599151611,-9.857664108276367
1745653736.006652,-0.12031374126672745,-0.022835392504930496,0.34233254194259644,0.4606548845767975,0.8414878845214844,-9.715290069580078
1745653736.0347254,-0.11185391247272491,-0.016833381727337837,0.3415626287460327,0.4523678421974182,0.7302637100219727,-9.718751907348633
1745653736.0654173,-0.12318243086338043,-0.02120441384613514,0.34328708052635193,0.5289883613586426,0.7775918841362,-9.817723274230957
1745653736.065763,-0.11126593500375748,-0.016963813453912735,0.34316498041152954,0.35690492391586304,0.6106728911399841,-9.889659881591797
1745653736.0667279,-0.11297214031219482,-0.016131604090332985,0.34466689825057983,0.6045956611633301,0.7395159006118774,-9.5864839553833
1745653736.0667953,-0.12383905798196793,-0.02115222066640854,0.3453541398048401,0.4190920889377594,0.6957994103431702,-9.758504867553711
1745653736.0804436,-0.11180964857339859,-0.01993696764111519,0.3471119999885559,0.5675698518753052,0.6871002912521362,-9.889062881469727
1745653736.0842729,-0.11666683852672577,-0.01927294209599495,0.3491800129413605,0.5369452238082886,0.7627934217453003,-9.810659408569336
1745653736.0908017,-0.1159997209906578,-0.011355298571288586,0.34787365794181824,0.3647356927394867,0.7792462110519409,-9.646507263183594
1745653736.0937092,-0.11112060397863388,-0.02245742455124855,0.3503735065460205,0.5719339847564697,0.6744793057441711,-9.631612777709961
1745653736.1264195,-0.10693962872028351,-0.01907608099281788,0.351002037525177,0.4003019332885742,0.9697364568710327,-9.87419319152832
1745653736.1274018,-0.10671363770961761,-0.01583467423915863,0.3501198887825012,0.5198308229446411,0.7283039093017578,-9.913052558898926
1745653736.1323009,-0.10600312054157257,-0.019204026088118553,0.35109686851501465,0.39684006571769714,0.8863126039505005,-9.692985534667969
1745653736.144689,-0.09854485094547272,-0.01781744696199894,0.35212746262550354,0.46027106046676636,0.6979843378067017,-9.660032272338867
1745653736.167618,-0.10221848636865616,-0.021006574854254723,0.35123953223228455,0.6158725023269653,0.8182626962661743,-9.799158096313477
1745653736.1702044,-0.11013789474964142,-0.01611195132136345,0.35199108719825745,0.36837270855903625,0.7134426832199097,-9.99746322631836
1745653736.1742694,-0.09982484579086304,-0.019014734774827957,0.35211196541786194,0.6291961669921875,0.7498469948768616,-9.71840763092041
1745653736.1771412,-0.10434745252132416,-0.015182478353381157,0.35571223497390747,0.4340062141418457,0.8963205218315125,-9.789990425109863
1745653736.1812015,-0.09774903953075409,-0.021388482302427292,0.3572964668273926,0.6013904809951782,0.839779257774353,-9.628799438476562
1745653736.2087603,-0.09654635190963745,-0.02104494906961918,0.3573991656303406,0.3394710421562195,0.9561656713485718,-9.814058303833008
1745653736.2133117,-0.0961533784866333,-0.017523551359772682,0.36019185185432434,0.5493350625038147,0.6847334504127502,-9.812545776367188
1745653736.213925,-0.08893361687660217,-0.018904929980635643,0.35831889510154724,0.46892625093460083,0.9734762907028198,-9.673294067382812
1745653736.217132,-0.0983181819319725,-0.01832154020667076,0.3590008020401001,0.46908602118492126,0.7910691499710083,-9.747855186462402
1745653736.2549515,-0.08994656056165695,-0.025238748639822006,0.3594954311847687,0.5631744265556335,0.8436486124992371,-9.867298126220703
1745653736.2661643,-0.08975565433502197,-0.018040891736745834,0.36008113622665405,0.3783208429813385,0.8642368316650391,-9.790060043334961
1745653736.2666447,-0.09482753276824951,-0.01771787367761135,0.359346866607666,0.5831562280654907,0.7658036351203918,-9.598128318786621
1745653736.2691066,-0.08876631408929825,-0.02356926165521145,0.3608199656009674,0.3931390941143036,0.8777817487716675,-9.718643188476562
1745653736.2692444,-0.09369595348834991,-0.020091457292437553,0.35944804549217224,0.5476630330085754,0.8171385526657104,-9.8701810836792
1745653736.2962687,-0.09001833200454712,-0.021612660959362984,0.36089104413986206,0.4976292550563812,0.8826196789741516,-9.79602336883545
1745653736.30013,-0.09561455994844437,-0.014497479423880577,0.3596275746822357,0.38488125801086426,0.8713994026184082,-9.686375617980957
1745653736.3057823,-0.06850878149271011,-0.029512275010347366,0.36276012659072876,0.3444196879863739,0.9717793464660645,-9.725358963012695
1745653736.3095188,-0.061247266829013824,-0.033112190663814545,0.36320918798446655,0.6458777785301208,1.0068044662475586,-9.650110244750977
1745653736.3418446,-0.05895446613430977,-0.03535594791173935,0.36159008741378784,0.41381001472473145,1.1272304058074951,-9.849637985229492
1745653736.3419085,-0.054368406534194946,-0.023850787431001663,0.361515611410141,0.46854525804519653,0.9880385398864746,-9.76611328125
1745653736.3506155,-0.04856659471988678,-0.03575291484594345,0.3619617223739624,0.4376448094844818,1.036494255065918,-9.614335060119629
1745653736.3507254,-0.04819120094180107,-0.030449718236923218,0.36229416728019714,0.39428791403770447,1.019127607345581,-9.650960922241211
1745653736.3820822,-0.04160396382212639,-0.03158453106880188,0.36331918835639954,0.5726256966590881,0.9696992635726929,-9.711689949035645
1745653736.3844767,-0.04493268206715584,-0.02921263501048088,0.36225420236587524,0.3230745196342468,1.0920222997665405,-9.840057373046875
1745653736.3867145,-0.04496939852833748,-0.031295355409383774,0.36229461431503296,0.5426586270332336,0.824456512928009,-9.751541137695312
1745653736.3985302,-0.04504949226975441,-0.035019416362047195,0.36106017231941223,0.4650300145149231,1.1224113702774048,-9.596597671508789
1745653736.4238508,-0.05892954021692276,-0.02857029438018799,0.3589807152748108,0.4503041207790375,0.8684599995613098,-9.805506706237793
1745653736.440792,-0.05360563471913338,-0.039034612476825714,0.35932356119155884,0.5843833684921265,0.9309694170951843,-9.842724800109863
1745653736.4409232,-0.05373796820640564,-0.029748136177659035,0.35978713631629944,0.3187692165374756,0.962436854839325,-9.696581840515137
1745653736.4435618,-0.0639394149184227,-0.027819449082016945,0.3604317307472229,0.5196696519851685,0.8996702432632446,-9.462532997131348
1745653736.4436975,-0.05654023960232735,-0.03515147417783737,0.36219820380210876,0.4072937071323395,1.0195956230163574,-9.732065200805664
1745653736.4669118,-0.05305413156747818,-0.03076242282986641,0.3623884320259094,0.5886318683624268,1.1126859188079834,-9.920830726623535
1745653736.4709992,-0.048856329172849655,-0.03160993754863739,0.3611936867237091,0.45377135276794434,1.1182752847671509,-9.823953628540039
1745653736.4759953,-0.04510282352566719,-0.02726234868168831,0.35905537009239197,0.35041865706443787,1.0972821712493896,-9.565214157104492
1745653736.4760718,-0.043260060250759125,-0.03669343516230583,0.36185163259506226,0.542454719543457,0.9974943995475769,-9.581295013427734
1745653736.5095594,-0.03875885158777237,-0.03184860199689865,0.360271692276001,0.3665134906768799,1.105529546737671,-9.852217674255371
1745653736.5204413,-0.049593668431043625,-0.02779822051525116,0.36157986521720886,0.5050879716873169,0.9114610552787781,-9.855400085449219
1745653736.5205822,-0.03851797804236412,-0.03452206403017044,0.3604201376438141,0.43364495038986206,1.1181637048721313,-9.617765426635742
1745653736.5206628,-0.033059582114219666,-0.03424916788935661,0.3617219924926758,0.35132816433906555,1.02834153175354,-9.64637279510498
1745653736.5549085,-0.03912960737943649,-0.030974630266427994,0.3623350262641907,0.48700085282325745,1.041290044784546,-9.85356330871582
1745653736.5550373,-0.036750856786966324,-0.03707658499479294,0.35953444242477417,0.4084506928920746,1.0039637088775635,-9.859034538269043
1745653736.5594854,-0.029474914073944092,-0.029460906982421875,0.3595154881477356,0.44794219732284546,1.131747841835022,-9.556597709655762
1745653736.5600579,-0.04606951028108597,-0.03962912783026695,0.3570665717124939,0.5184775590896606,0.9797536730766296,-9.642557144165039
1745653736.5669053,-0.034134574234485626,-0.036446187645196915,0.3572118282318115,0.409412682056427,1.0050218105316162,-9.962695121765137
1745653736.599312,-0.03690991923213005,-0.031043555587530136,0.3585212230682373,0.5418000817298889,0.979577362537384,-9.756951332092285
1745653736.6023247,-0.03893398493528366,-0.031041866168379784,0.35939672589302063,0.308737576007843,1.0302683115005493,-9.503936767578125
1745653736.6044054,-0.031978994607925415,-0.03339791297912598,0.3612458407878876,0.4902690052986145,0.9584158658981323,-9.558839797973633
1745653736.6091216,-0.03579116240143776,-0.03843384236097336,0.3594246506690979,0.5292671322822571,1.1919044256210327,-9.886670112609863
1745653736.6404634,-0.023751230910420418,-0.027302211150527,0.3591225743293762,0.432946115732193,1.1369328498840332,-9.933650016784668
1745653736.657162,-0.02980666235089302,-0.03498249500989914,0.3560446500778198,0.4613080620765686,1.1200419664382935,-9.606661796569824
1745653736.6626523,-0.017983872443437576,-0.03560876473784447,0.35596734285354614,0.3040466606616974,1.061982274055481,-9.592462539672852
1745653736.6627436,-0.026021752506494522,-0.031047701835632324,0.3563418388366699,0.5134799480438232,0.9930030703544617,-9.745794296264648
1745653736.681609,-0.004932890180498362,-0.03255607932806015,0.35184434056282043,0.5077004432678223,0.8787617683410645,-9.664851188659668
1745653736.686818,0.004138928838074207,-0.03762650117278099,0.35282522439956665,0.457815945148468,1.1188241243362427,-9.799840927124023
1745653736.6897082,-0.00046581291826441884,-0.02748645283281803,0.3537324070930481,0.4811212420463562,0.9947576522827148,-9.835569381713867
1745653736.6927183,-0.001798722892999649,-0.030169684439897537,0.35544583201408386,0.3931608498096466,1.0147268772125244,-9.668996810913086
1745653736.6946003,0.01176909077912569,-0.03056378662586212,0.3553604483604431,0.2982449531555176,1.0351614952087402,-9.603010177612305
1745653736.7268362,-0.000715743750333786,-0.03412635251879692,0.35626229643821716,0.560794472694397,1.0916521549224854,-9.681642532348633
1745653736.7298446,0.012788020074367523,-0.031051624566316605,0.35662323236465454,0.3419814705848694,1.1293647289276123,-9.906527519226074
1745653736.7370048,0.010690681636333466,-0.026716118678450584,0.3550195097923279,0.43858808279037476,1.0741714239120483,-9.769350051879883
1745653736.7401743,0.013721836730837822,-0.037265345454216,0.3534877300262451,0.37335509061813354,1.0479905605316162,-9.649870872497559
1745653736.7742705,0.01429777406156063,-0.0272638201713562,0.35412436723709106,0.4336918294429779,1.060610294342041,-9.67164421081543
1745653736.7759287,0.002799760550260544,-0.035045988857746124,0.3529888987541199,0.4667711853981018,0.9658629298210144,-9.840275764465332
1745653736.778265,0.016032561659812927,-0.030197393149137497,0.3543960452079773,0.3738441467285156,1.0292190313339233,-9.81750774383545
1745653736.7824013,0.006593681871891022,-0.02890387549996376,0.3544611632823944,0.5218861103057861,0.9892436861991882,-9.611916542053223
1745653736.8125176,0.0074643297120928764,-0.029667023569345474,0.3556452989578247,0.287747859954834,1.0230145454406738,-9.664080619812012
1745653736.8244627,0.018660983070731163,-0.030417367815971375,0.35461246967315674,0.47343844175338745,0.9648224115371704,-9.739644050598145
1745653736.824606,0.005022966302931309,-0.033659689128398895,0.3558279275894165,0.4272572994232178,1.096006989479065,-9.83578872680664
1745653736.8246837,0.022892583161592484,-0.023286273702979088,0.3563343286514282,0.3420163094997406,1.0080162286758423,-9.7125244140625
1745653736.853776,0.012021498754620552,-0.03327071666717529,0.3582303822040558,0.4784630239009857,1.0495043992996216,-9.575615882873535
1745653736.8625712,0.01998351514339447,-0.029025202617049217,0.35548388957977295,0.3182831406593323,1.010854959487915,-9.854352951049805
1745653736.8690517,0.018106602132320404,-0.027698438614606857,0.3547195792198181,0.508013129234314,1.0370243787765503,-9.795722961425781
1745653736.869313,0.007422894239425659,-0.028526078909635544,0.3553438186645508,0.3048759698867798,0.9692960977554321,-9.687115669250488
1745653736.897123,0.01518889982253313,-0.028423422947525978,0.3568914830684662,0.3080500066280365,1.0857685804367065,-9.931018829345703
1745653736.8989584,0.029601190239191055,-0.02327740751206875,0.3564697206020355,0.3585990369319916,0.9304976463317871,-9.60682487487793
1745653736.9005535,0.015080844052135944,-0.029820794239640236,0.3561856746673584,0.495370090007782,1.0646240711212158,-9.4493408203125
1745653736.9051905,0.010341683402657509,-0.028022533282637596,0.35640019178390503,0.29139724373817444,0.8792566061019897,-9.964847564697266
1745653736.905255,0.01821039244532585,-0.028889020904898643,0.3568212389945984,0.6076074838638306,0.9310206174850464,-9.89017105102539
1745653736.9417946,0.00844538863748312,-0.02660764381289482,0.35556986927986145,0.3634123206138611,1.03441321849823,-9.602640151977539
1745653736.945205,0.006759154610335827,-0.02362646535038948,0.3576402962207794,0.4011988639831543,0.869045615196228,-9.551070213317871
1745653736.9471383,0.015029186382889748,-0.03636046126484871,0.359161376953125,0.4554113447666168,1.042894959449768,-9.785200119018555
1745653736.9472091,0.009621625766158104,-0.025968989357352257,0.3585287034511566,0.40470466017723083,1.0625079870224,-9.930994033813477
1745653736.9838202,0.017058512195944786,-0.025024259462952614,0.361394464969635,0.4932785630226135,1.025229811668396,-9.684206008911133
1745653736.9868972,0.02157382294535637,-0.029619300737977028,0.3578631579875946,0.19428369402885437,1.1451359987258911,-9.635765075683594
1745653736.9889581,0.024490129202604294,-0.029289592057466507,0.35824769735336304,0.4898141026496887,0.9382004737854004,-9.749740600585938
1745653736.9928968,0.023266779258847237,-0.02874854765832424,0.35703104734420776,0.41605034470558167,1.141684651374817,-9.79421329498291
1745653736.9984615,0.020451974123716354,-0.025134563446044922,0.356344997882843,0.3683091998100281,0.8581379652023315,-9.777732849121094
1745653737.0281513,0.010136222466826439,-0.03316590562462807,0.3573419451713562,0.2895198464393616,0.8546398878097534,-9.664192199707031
1745653737.0299866,0.01760551705956459,-0.029422428458929062,0.3599112033843994,0.5135936737060547,0.8986597061157227,-9.710350036621094
1745653737.0322287,0.00796531978994608,-0.03155631572008133,0.3600446283817291,0.4306047856807709,0.9567813873291016,-9.859689712524414
1745653737.0352433,0.013952890411019325,-0.023283306509256363,0.3599473834037781,0.31711119413375854,0.8950824737548828,-9.733723640441895
1745653737.095648,0.014564203098416328,-0.03453829139471054,0.3610535264015198,0.4888989329338074,0.9106639623641968,-9.560709953308105
1745653737.0957468,0.009439029730856419,-0.030547762289643288,0.359650194644928,0.3506815731525421,0.9673560261726379,-9.805632591247559
1745653737.095795,0.012386167421936989,-0.026897603645920753,0.3596998453140259,0.5294825434684753,0.8630858659744263,-9.850876808166504
1745653737.0963721,0.007585263345390558,-0.03166120871901512,0.3589407205581665,0.2644616961479187,0.9641660451889038,-9.752427101135254
1745653737.113111,0.013803966343402863,-0.02812640741467476,0.35965535044670105,0.3985111117362976,0.8109391927719116,-9.627973556518555
1745653737.118066,0.0032816692255437374,-0.03138148412108421,0.3616263270378113,0.46681299805641174,0.9755887985229492,-9.665929794311523
1745653737.119577,0.007228432688862085,-0.02953610196709633,0.35976603627204895,0.355427622795105,0.8450838923454285,-9.882230758666992
1745653737.1361785,0.00782761536538601,-0.03550828620791435,0.3591688573360443,0.5486482977867126,0.9557064771652222,-9.782279014587402
1745653737.15581,0.009667845442891121,-0.02713126875460148,0.3605823516845703,0.2684563994407654,0.9750269055366516,-9.713179588317871
1745653737.1563516,0.007609661668539047,-0.028578687459230423,0.36112961173057556,0.4128119945526123,0.8218191862106323,-9.592207908630371
1745653737.1599257,0.011289214715361595,-0.03711002320051193,0.35812073945999146,0.3686330318450928,0.9348323941230774,-9.755901336669922
1745653737.1744385,0.004068664740771055,-0.027248427271842957,0.36101704835891724,0.4233538508415222,0.8634145855903625,-9.852964401245117
1745653737.1745086,0.005941715091466904,-0.03100338578224182,0.3600262403488159,0.4356955885887146,0.8705036044120789,-9.713716506958008
1745653737.201078,0.006081460975110531,-0.027058308944106102,0.36035147309303284,0.2661367952823639,0.9514490962028503,-9.640497207641602
1745653737.2056277,0.00024917200789786875,-0.03298468142747879,0.36073657870292664,0.5314937233924866,0.8168210983276367,-9.75871753692627
1745653737.2139688,0.003014310961589217,-0.029738646000623703,0.3601883053779602,0.32381942868232727,0.9830962419509888,-9.86153793334961
1745653737.2140656,-0.0043692681938409805,-0.026803970336914062,0.36007753014564514,0.4164105951786041,0.7853952646255493,-9.703618049621582
1745653737.242062,-0.0009071779204532504,-0.036526717245578766,0.35945162177085876,0.4170721173286438,0.996086597442627,-9.596098899841309
1745653737.2447584,0.013920417055487633,-0.02927706018090248,0.36186954379081726,0.34401682019233704,0.9052301645278931,-9.68760871887207
1745653737.2485886,0.006110791582614183,-0.02652105689048767,0.3607609272003174,0.33700376749038696,0.8858302235603333,-9.50953483581543
1745653737.252604,-0.005171624477952719,-0.033330898731946945,0.36144396662712097,0.48509281873703003,0.7577222585678101,-9.739055633544922
1745653737.2592492,0.005857578944414854,-0.029471566900610924,0.3614625334739685,0.34804409742355347,0.9392775297164917,-9.977116584777832
1745653737.2866912,-0.004591698758304119,-0.025345901027321815,0.3625813126564026,0.4708283543586731,0.8102697134017944,-9.764458656311035
1745653737.291474,-0.004450408276170492,-0.02825084887444973,0.3627980649471283,0.24251945316791534,0.9629615545272827,-9.497369766235352
1745653737.2935967,0.003887135535478592,-0.030495230108499527,0.3634225130081177,0.4265953600406647,0.8102306127548218,-9.667089462280273
1745653737.2962093,-0.007470746990293264,-0.032066456973552704,0.36435645818710327,0.4556850790977478,0.988972544670105,-9.970821380615234
1745653737.3298132,0.007891891524195671,-0.02048451267182827,0.3632705807685852,0.30026254057884216,0.9148218035697937,-9.886950492858887
1745653737.329891,0.0011657348368316889,-0.02908901870250702,0.3634302616119385,0.3823167681694031,0.9579622149467468,-9.455438613891602
1745653737.3299906,0.008970243856310844,-0.03164786845445633,0.36493396759033203,0.31905800104141235,0.9051072001457214,-9.657116889953613
1745653737.333756,0.003365283366292715,-0.027078336104750633,0.36241990327835083,0.5358384847640991,0.9222685098648071,-9.926301956176758
1745653737.33384,-0.0025380817241966724,-0.027216056361794472,0.36107057332992554,0.28339067101478577,0.8764911890029907,-9.921026229858398
1745653737.3740444,0.008164226077497005,-0.026048962026834488,0.36304301023483276,0.43777114152908325,0.846504807472229,-9.497514724731445
1745653737.380658,-0.011796154081821442,-0.019886765629053116,0.3660680651664734,0.2837928235530853,0.909214198589325,-9.648811340332031
1745653737.386653,-0.0014626177726313472,-0.024797087535262108,0.36594417691230774,0.41613730788230896,0.8773012161254883,-9.485713005065918
1745653737.4134643,-0.016123469918966293,-0.02690768800675869,0.36500391364097595,0.4684649407863617,0.9319936633110046,-9.869695663452148
1745653737.4142134,0.0032512322068214417,-0.01775018312036991,0.36489588022232056,0.33114492893218994,0.9369646310806274,-9.98279094696045
1745653737.4167473,-0.009366645477712154,-0.022702381014823914,0.36495813727378845,0.4007875323295593,0.9142032861709595,-9.661108016967773
1745653737.417824,0.0052618286572396755,-0.025624344125390053,0.3637762665748596,0.2868920862674713,0.9273856282234192,-9.577016830444336
1745653737.419648,-0.005761976819485426,-0.02155020274221897,0.3638201057910919,0.48576703667640686,0.881756603717804,-9.751123428344727
1745653737.456957,-0.010469695553183556,-0.025067228823900223,0.3639585077762604,0.3447648584842682,0.7935589551925659,-9.986207962036133
1745653737.4588597,0.0010214329231530428,-0.02146632969379425,0.3639657199382782,0.47699612379074097,0.8648878335952759,-9.70763874053955
1745653737.4589236,-0.014815923757851124,-0.025834664702415466,0.36619681119918823,0.4851589798927307,0.8393377065658569,-9.608698844909668
1745653737.4623506,-0.008823041804134846,-0.022069845348596573,0.3696567416191101,0.292997807264328,0.8138750791549683,-9.818028450012207
1745653737.5021303,-0.005452096927911043,-0.028745528310537338,0.3667204976081848,0.5455105304718018,0.8708113431930542,-9.798269271850586
1745653737.5063033,-0.008284800685942173,-0.024155374616384506,0.3673851191997528,0.31143516302108765,1.0097206830978394,-9.780496597290039
