timestamp,angular_vel_x,angular_vel_y,angular_vel_z,linear_acc_x,linear_acc_y,linear_acc_z
1745659988.0403805,-0.10221059620380402,-0.009373044595122337,0.4330049455165863,0.46653351187705994,0.8589656949043274,-9.899154663085938
1745659988.042158,-0.08829852193593979,-0.007523977197706699,0.4350077509880066,0.574723482131958,0.7765265703201294,-9.726214408874512
1745659988.0439146,-0.0725700631737709,-0.0028788368217647076,0.4296781122684479,0.38446134328842163,0.9238548278808594,-9.640817642211914
1745659988.0451655,-0.09681563079357147,-0.009826176799833775,0.428396612405777,0.6720173358917236,0.516452431678772,-9.801251411437988
1745659988.0471773,-0.07034864276647568,-0.01083217840641737,0.42658621072769165,0.6115804314613342,0.670856237411499,-9.840007781982422
1745659988.082143,-0.10920549929141998,-0.000996631570160389,0.4258456826210022,0.6185226440429688,0.4624875485897064,-9.855836868286133
1745659988.0887501,-0.11000190675258636,-0.016831357032060623,0.42735013365745544,0.6359295845031738,0.45407071709632874,-9.674509048461914
1745659988.0934572,-0.10439945757389069,-7.869302862673067e-06,0.42924171686172485,0.6087285876274109,0.5047404170036316,-9.615215301513672
1745659988.0976706,-0.11747239530086517,-0.006980004254728556,0.4340614378452301,0.6210904121398926,0.6615573167800903,-9.770899772644043
1745659988.1252167,-0.0981733426451683,-0.005518874619156122,0.4360378682613373,0.4976074695587158,0.8042868375778198,-9.835622787475586
1745659988.1288617,-0.08730873465538025,-0.000889090821146965,0.43588191270828247,0.6827570199966431,0.8851170539855957,-9.648054122924805
1745659988.1329532,-0.059907086193561554,-0.007141570560634136,0.4350258708000183,0.42255744338035583,1.1651514768600464,-9.772440910339355
1745659988.1345952,-0.06460072100162506,-0.0047837598249316216,0.43155422806739807,0.5372735261917114,0.823159396648407,-9.903194427490234
1745659988.1391563,-0.03906305879354477,-0.010583525523543358,0.43212905526161194,0.5407083034515381,0.7855325937271118,-9.733457565307617
1745659988.1709318,-0.05268050357699394,0.0001927684061229229,0.42836064100265503,0.5349754691123962,0.7776325941085815,-9.655884742736816
1745659988.1748242,-0.0912790521979332,-0.006239432841539383,0.42949551343917847,0.6939455270767212,0.4009508490562439,-9.766322135925293
1745659988.177685,-0.08283160626888275,-0.014110567048192024,0.4308101534843445,0.5150566101074219,0.5808578729629517,-9.607187271118164
1745659988.180319,-0.07953264564275742,-0.0004164481651969254,0.43334001302719116,0.6663771271705627,0.5861456394195557,-9.60662841796875
1745659988.2103355,-0.0773092657327652,-0.00955875962972641,0.4381435513496399,0.5399425625801086,0.923448920249939,-9.839336395263672
1745659988.2124047,-0.059308987110853195,-0.005167662166059017,0.43585753440856934,0.47494402527809143,0.9134640693664551,-9.855999946594238
1745659988.2141702,-0.04328010976314545,-0.006581527646631002,0.43394893407821655,0.5463861227035522,0.9099169969558716,-9.669800758361816
1745659988.2181432,-0.029171979054808617,-0.005042665638029575,0.4317489564418793,0.34928953647613525,1.0364539623260498,-9.662254333496094
1745659988.2541258,-0.052074361592531204,-0.00824316032230854,0.42856115102767944,0.6355487108230591,0.5857096910476685,-9.859387397766113
1745659988.2549396,-0.023879390209913254,-0.009653565473854542,0.42529067397117615,0.5802940130233765,0.7786700129508972,-9.770843505859375
1745659988.2566023,-0.06165643781423569,-0.003981954418122768,0.42480891942977905,0.6824491024017334,0.47542500495910645,-9.740585327148438
1745659988.259241,-0.06234036013484001,-0.01857435703277588,0.4289407730102539,0.6608137488365173,0.4809149205684662,-9.761582374572754
1745659988.29639,-0.06145373731851578,-0.0016977755585685372,0.4278031885623932,0.6454368829727173,0.5107696056365967,-9.697187423706055
1745659988.2981691,-0.07431275397539139,-0.00966286938637495,0.43266087770462036,0.6369210481643677,0.6415590047836304,-9.68436336517334
1745659988.3013215,-0.0012534313136711717,-0.021348390728235245,0.4244481027126312,0.5625618696212769,0.9109869003295898,-9.70103931427002
1745659988.3064039,0.015744337812066078,-0.014329954981803894,0.42076101899147034,0.35463476181030273,1.0043562650680542,-9.892688751220703
1745659988.3086014,-0.00969978142529726,-0.02159593626856804,0.4173751771450043,0.6135037541389465,0.6081163287162781,-9.827683448791504
1745659988.340074,0.014022089540958405,-0.024610403925180435,0.41683274507522583,0.5787400007247925,0.7038801908493042,-9.585026741027832
1745659988.3425193,-0.023287488147616386,-0.018631266430020332,0.4151659607887268,0.6508657336235046,0.49837327003479004,-9.797403335571289
1745659988.3451734,-0.03260079771280289,-0.03388373926281929,0.4145720601081848,0.6060982942581177,0.439535528421402,-9.97668743133545
1745659988.3475738,-0.027204196900129318,-0.01712745428085327,0.41720327734947205,0.6325917840003967,0.49757200479507446,-9.621051788330078
1745659988.3821168,-0.04587160423398018,-0.023301688954234123,0.42086249589920044,0.5792523622512817,0.6704155206680298,-9.530044555664062
1745659988.3863218,-0.03110077977180481,-0.025478413328528404,0.4204256534576416,0.4808357357978821,0.7465324997901917,-9.807905197143555
1745659988.3875585,-0.028049122542142868,-0.02246854268014431,0.4245215952396393,0.6582612991333008,0.9368227124214172,-9.82572078704834
1745659988.3900046,0.0006439244607463479,-0.027350077405571938,0.4186447560787201,0.3402946889400482,1.138282060623169,-9.84022045135498
1745659988.4257944,-0.006355065852403641,-0.021906476467847824,0.41790294647216797,0.5021491050720215,0.9422241449356079,-9.67025375366211
1745659988.428849,0.011174991726875305,-0.032027799636125565,0.41419297456741333,0.4750373959541321,0.7830182909965515,-9.719632148742676
1745659988.4300284,0.009610156528651714,-0.018755357712507248,0.4091168940067291,0.5412856340408325,0.8474496006965637,-9.768930435180664
1745659988.4325426,-0.018120113760232925,-0.03378031402826309,0.40926527976989746,0.6189054846763611,0.4448074400424957,-9.851195335388184
1745659988.4362752,-0.0010730463545769453,-0.026485558599233627,0.40870028734207153,0.573663055896759,0.567752480506897,-9.704183578491211
1745659988.4723487,-0.037449318915605545,-0.023719847202301025,0.41152486205101013,0.6950424909591675,0.45310544967651367,-9.652764320373535
1745659988.4750667,-0.03089642897248268,-0.033598363399505615,0.4119689464569092,0.5094543099403381,0.6250128149986267,-9.792375564575195
1745659988.479826,-0.02799367345869541,-0.022658538073301315,0.41381922364234924,0.6749250292778015,0.6100744009017944,-9.73814582824707
1745659988.4799714,-0.028062298893928528,-0.027209464460611343,0.41759592294692993,0.440340518951416,0.9461749792098999,-9.754732131958008
1745659988.5101545,-0.011214597150683403,-0.02596605196595192,0.41500037908554077,0.4441360533237457,0.9589483141899109,-9.74547004699707
1745659988.513936,-0.0031282585114240646,-0.031186088919639587,0.41374868154525757,0.5498977303504944,0.89397794008255,-9.770567893981934
1745659988.5172064,0.01986979879438877,-0.024697905406355858,0.40819334983825684,0.3474906086921692,1.0550110340118408,-9.806726455688477
1745659988.5200493,-0.01233731210231781,-0.030980557203292847,0.4079601764678955,0.5951370000839233,0.6522376537322998,-9.786593437194824
1745659988.5225084,-0.01653178595006466,-0.024703051894903183,0.4050327241420746,0.6612534523010254,0.584783673286438,-9.76294994354248
1745659988.5570204,-0.02345675602555275,-0.041887786239385605,0.4027450978755951,0.6150079965591431,0.5188242197036743,-9.9138822555542
1745659988.5601118,-0.020179353654384613,-0.026641642674803734,0.4071218967437744,0.600921630859375,0.5029908418655396,-9.732873916625977
1745659988.562404,-0.03311101719737053,-0.030747681856155396,0.4096551537513733,0.5646870732307434,0.6439603567123413,-9.560295104980469
1745659988.5644627,-0.02756459079682827,-0.03269631043076515,0.4103143811225891,0.43277615308761597,0.7632603645324707,-9.742706298828125
1745659988.597292,-0.020282143726944923,-0.030893754214048386,0.4113866686820984,0.6749182939529419,0.8701590299606323,-9.798073768615723
1745659988.6009808,0.006293673999607563,-0.02898596227169037,0.4087914526462555,0.31161901354789734,1.1466327905654907,-9.890572547912598
1745659988.602575,-0.009295178577303886,-0.027034789323806763,0.4062412679195404,0.4421408176422119,0.8317455053329468,-9.690584182739258
1745659988.6058137,0.01018784660845995,-0.03853278607130051,0.40303340554237366,0.46784281730651855,0.7483936548233032,-9.607287406921387
1745659988.6070452,0.008607467636466026,-0.022555029019713402,0.4001077711582184,0.5313774347305298,0.827181339263916,-9.801461219787598
1745659988.6415594,-0.02135753445327282,-0.03890399634838104,0.40007930994033813,0.5885983109474182,0.48785319924354553,-9.978509902954102
1745659988.6420333,-0.0021253086160868406,-0.032167259603738785,0.4006182551383972,0.5419195890426636,0.5560210347175598,-9.68189525604248
1745659988.6470454,-0.016453398391604424,-0.03245345503091812,0.38657206296920776,0.35172757506370544,0.7032403349876404,-9.837254524230957
1745659988.6835063,-0.015065694227814674,-0.02478853426873684,0.38706523180007935,0.5380865931510925,0.7722004652023315,-9.544833183288574
1745659988.6882024,0.005989857483655214,-0.03415418416261673,0.38492920994758606,0.25863415002822876,1.1380623579025269,-9.704449653625488
1745659988.6886625,-0.005539990495890379,-0.02891787327826023,0.38265708088874817,0.40421777963638306,0.8401077389717102,-9.967564582824707
1745659988.6897635,0.029987135902047157,-0.032627083361148834,0.3792477250099182,0.3876335918903351,0.9008698463439941,-9.772947311401367
1745659988.697031,0.01990867406129837,-0.02271188050508499,0.37765857577323914,0.45408493280410767,0.9955992698669434,-9.518941879272461
1745659988.7261646,0.004684613086283207,-0.04749955236911774,0.3746711015701294,0.592365026473999,0.46914881467819214,-9.882318496704102
1745659988.7289987,0.03270726278424263,-0.03197507932782173,0.3741385340690613,0.45793604850769043,0.7871981859207153,-9.95350456237793
1745659988.7309184,-0.006494258996099234,-0.029093105345964432,0.3767581880092621,0.5344058275222778,0.4803270697593689,-9.776525497436523
1745659988.7332208,0.018091322854161263,-0.04163593798875809,0.3789004385471344,0.4349444806575775,0.6614998579025269,-9.49492359161377
1745659988.7709036,0.00999442208558321,-0.036981191486120224,0.37511488795280457,0.5674412846565247,0.9547138214111328,-9.753071784973145
1745659988.7740872,0.019779041409492493,-0.05398188903927803,0.36478346586227417,-0.06291230767965317,1.1907340288162231,-10.297895431518555
1745659988.7777665,0.05219415947794914,-0.027927467599511147,0.3544992506504059,-0.07197295874357224,1.170846939086914,-9.46471118927002
1745659988.7798955,0.06224169209599495,-0.05160854011774063,0.3456048369407654,-0.029324019327759743,1.0896245241165161,-9.189553260803223
1745659988.8138893,0.06985598802566528,-0.05098715424537659,0.33797687292099,-0.4226652979850769,0.9019228219985962,-10.148674964904785
1745659988.8175724,0.07800620794296265,-0.03676494210958481,0.33868345618247986,0.013045919127762318,-0.14499080181121826,-10.119096755981445
1745659988.820326,0.07623794674873352,-0.02331005409359932,0.33947038650512695,-0.08748399466276169,0.5008723139762878,-9.106427192687988
1745659988.8213782,0.024415573105216026,-0.0565694198012352,0.3369444012641907,0.4123888611793518,-0.09974804520606995,-9.391805648803711
1745659988.857826,0.022848090156912804,-0.05511961504817009,0.3361304998397827,0.47818222641944885,-0.049955058842897415,-10.497827529907227
1745659988.8582613,0.0027286566328257322,-0.029138613492250443,0.32988864183425903,0.11829991638660431,0.4318428933620453,-10.368366241455078
1745659988.8611648,-0.06267053633928299,-0.06612347066402435,0.323901891708374,0.28752192854881287,0.20119509100914001,-9.034846305847168
1745659988.8641427,-0.04276248812675476,-0.05424073338508606,0.3181247413158417,0.06927911192178726,0.5483366250991821,-9.209749221801758
1745659988.8669262,-0.060854583978652954,-0.0564558207988739,0.31186947226524353,0.1572086662054062,0.9102188944816589,-10.406381607055664
1745659988.8992171,0.02239448018372059,-0.06575462967157364,0.2979125380516052,0.2050834447145462,1.511380910873413,-9.285370826721191
1745659988.9027133,0.058206744492053986,-0.06384040415287018,0.29420047998428345,0.19917483627796173,1.0922367572784424,-10.686882019042969
1745659988.904741,0.1077246442437172,-0.055796511471271515,0.2983497679233551,0.2622499167919159,0.9765831232070923,-10.167306900024414
1745659988.906223,0.12191294133663177,-0.05205604434013367,0.2947344183921814,-0.03966527432203293,0.9304431080818176,-9.043815612792969
1745659988.9432662,0.11130907386541367,-0.06839796900749207,0.2974023222923279,0.30992358922958374,0.4869999289512634,-9.213922500610352
1745659988.945222,0.10756136476993561,-0.06591999530792236,0.288239061832428,0.04247066378593445,0.5709648132324219,-10.506460189819336
1745659988.9481,0.08998612314462662,-0.051855552941560745,0.27914753556251526,0.19798310101032257,0.41945910453796387,-10.258687019348145
1745659988.9523206,0.059774380177259445,-0.06113969162106514,0.2716802656650543,0.09630612283945084,0.2879786491394043,-9.143743515014648
1745659988.9524744,0.043761998414993286,-0.06828505545854568,0.26880693435668945,0.20527300238609314,0.2219897210597992,-9.313425064086914
1745659988.9864342,-0.0022036428563296795,-0.07077742367982864,0.26758331060409546,0.2531243562698364,-0.08933649957180023,-10.511475563049316
1745659988.986755,0.018774885684251785,-0.05221102386713028,0.26914000511169434,-0.018999282270669937,0.4338316321372986,-10.224996566772461
1745659988.9882488,-0.009817568585276604,-0.058443017303943634,0.26958099007606506,0.12925851345062256,0.36457905173301697,-9.120741844177246
1745659988.990345,0.018332142382860184,-0.06705594062805176,0.26855868101119995,0.13981033861637115,0.8342956304550171,-9.312867164611816
1745659989.0264657,0.13067331910133362,0.016706451773643494,0.11910983175039291,0.42751798033714294,0.6356848478317261,-10.049691200256348
1745659989.0290604,0.16909971833229065,0.006492111831903458,0.11395204067230225,0.29433125257492065,0.9685083627700806,-9.235868453979492
1745659989.0315158,0.18190738558769226,0.014947923831641674,0.10907548666000366,0.45031723380088806,0.6864374279975891,-9.517362594604492
1745659989.032619,0.19284194707870483,0.007224666886031628,0.10523396730422974,0.23601575195789337,0.6404134631156921,-10.271865844726562
1745659989.0373945,0.22007803618907928,0.02785326912999153,0.09988000988960266,0.305412232875824,0.22450752556324005,-9.968510627746582
1745659989.0711493,0.19514860212802887,0.01842675916850567,0.09687647968530655,0.32416555285453796,0.30725809931755066,-9.33922004699707
1745659989.074383,0.18683579564094543,0.01483660377562046,0.09252077341079712,0.301176518201828,0.10312414169311523,-9.631400108337402
1745659989.076009,0.18977594375610352,0.021906983107328415,0.08839013427495956,0.5159845352172852,0.06705248355865479,-10.090571403503418
1745659989.0779092,0.15298201143741608,0.030841778963804245,0.08043039590120316,0.29148492217063904,0.16363433003425598,-9.975217819213867
1745659989.1142027,0.1634110063314438,0.021715540438890457,0.07913333922624588,0.5387202501296997,-0.22734279930591583,-9.402116775512695
1745659989.1165876,0.13395661115646362,0.024801105260849,0.07430770248174667,0.28529271483421326,0.315850168466568,-9.701492309570312
1745659989.121239,0.1475992202758789,0.032310113310813904,0.07598734647035599,0.23313334584236145,-0.04271647334098816,-10.21879768371582
1745659989.1231472,0.15346798300743103,0.028256824240088463,0.07351688295602798,0.24948449432849884,0.3357136845588684,-9.66346263885498
1745659989.1572845,0.15412303805351257,0.04222189262509346,0.0704408660531044,0.1797620952129364,0.40829968452453613,-9.397099494934082
1745659989.1603787,0.17223380506038666,0.028743591159582138,0.06644085049629211,0.3812524676322937,0.37417325377464294,-9.729108810424805
1745659989.16484,0.17328840494155884,0.03649977222084999,0.058552660048007965,0.23662981390953064,0.5570310950279236,-10.103876113891602
1745659989.1705518,0.19043006002902985,0.046413224190473557,0.055993370711803436,0.5186864137649536,0.2310786247253418,-9.804304122924805
1745659989.174076,0.17166084051132202,0.030596310272812843,0.04934059828519821,0.3551737070083618,0.211857408285141,-9.56796932220459
1745659989.2005842,0.18577940762043,0.04201023280620575,0.04743275046348572,0.6548528671264648,0.007086378522217274,-9.720501899719238
1745659989.200693,0.15445470809936523,0.03292275220155716,0.04023393988609314,0.6296099424362183,0.18849071860313416,-10.01855754852295
1745659989.2051141,0.17584343254566193,0.0508805513381958,0.035471461713314056,0.4340225160121918,0.19820867478847504,-9.858471870422363
1745659989.2052057,0.1765340268611908,0.039615698158741,0.02895127795636654,0.8726803064346313,0.3656076192855835,-9.265422821044922
1745659989.2434049,0.17827841639518738,0.04173264279961586,0.023157207295298576,0.4951992630958557,0.1034378781914711,-9.915132522583008
1745659989.2459185,0.2010844498872757,0.058513343334198,0.014046160504221916,0.28078994154930115,0.1129576712846756,-9.225314140319824
1745659989.2472768,0.17279453575611115,0.0450742207467556,0.00744128692895174,0.5338026285171509,-0.12524622678756714,-9.485340118408203
1745659989.2485082,0.19608180224895477,0.06543545424938202,-0.0008422101964242756,0.5022065043449402,0.21532317996025085,-10.12515640258789
1745659989.2847407,0.16073958575725555,0.050519395619630814,-0.009670058265328407,0.7776569128036499,-0.15411809086799622,-9.957319259643555
1745659989.2871923,0.17311415076255798,0.05784190446138382,-0.014270694926381111,0.5604575276374817,0.0022790252696722746,-9.497036933898926
1745659989.2893567,0.1343870311975479,0.05536123365163803,-0.016878783702850342,0.7113761305809021,-0.3169386088848114,-9.668046951293945
1745659989.2966769,0.1468391716480255,0.04637690633535385,-0.017665954306721687,0.5263782739639282,-0.24538567662239075,-10.003931045532227
1745659989.3002584,0.1401049941778183,0.0698070377111435,-0.019566264003515244,0.5197927951812744,0.17645061016082764,-9.769418716430664
1745659989.3307927,0.14305636286735535,0.04784323275089264,-0.025997230783104897,0.5510284304618835,0.10061109066009521,-9.42406177520752
1745659989.3325295,0.17893750965595245,0.06078247353434563,-0.03215532377362251,0.4138014316558838,0.6971136331558228,-9.533154487609863
1745659989.3372765,0.16275648772716522,0.05513383075594902,-0.03972037881612778,0.5685981512069702,0.07153119146823883,-10.153444290161133
1745659989.341126,0.2171308547258377,0.05819350481033325,-0.045883312821388245,0.3633192479610443,0.4240671992301941,-9.928268432617188
1745659989.3713274,0.19277212023735046,0.06105681508779526,-0.05100603029131889,0.5542857646942139,-0.2313803881406784,-9.418371200561523
1745659989.3736181,0.013106031343340874,-0.021912436932325363,-0.028311192989349365,-0.10516691207885742,-0.2748274803161621,-9.936253547668457
1745659989.3793972,0.0356108620762825,-0.023256486281752586,-0.029369378462433815,-0.1375659704208374,0.10962220281362534,-8.759649276733398
1745659989.3797507,0.015398946590721607,-0.0369153693318367,-0.023516908288002014,0.02988191321492195,-0.5214131474494934,-9.497879981994629
1745659989.384944,0.06320293247699738,-0.005870413035154343,-0.00745472451671958,0.30274492502212524,-0.10352112352848053,-10.349455833435059
1745659989.417098,0.03282086178660393,-0.05711769312620163,-0.009215173311531544,0.9231222867965698,0.11770357936620712,-10.080520629882812
1745659989.4202194,0.04777456074953079,-0.05318557471036911,-0.023524070158600807,-0.1452527791261673,-0.2964698076248169,-10.212892532348633
1745659989.4221997,0.060497988015413284,-0.008496650494635105,-0.027968663722276688,0.11005331575870514,0.007762598805129528,-9.051153182983398
1745659989.4237535,-0.010908890515565872,-0.08954824507236481,-0.03633907437324524,0.5339447259902954,-0.11156541109085083,-9.472487449645996
1745659989.4610562,0.047063425183296204,-0.06023231893777847,-0.03198859095573425,-0.13300272822380066,-0.7515014410018921,-10.962380409240723
1745659989.4636075,-0.010939533822238445,-0.013009537942707539,-0.016363242641091347,-0.2365870177745819,-0.9587136507034302,-9.660179138183594
1745659989.4649866,-0.020256083458662033,-0.039250995963811874,0.0008862853283062577,0.01771693304181099,-1.3730494976043701,-8.099489212036133
1745659989.4670048,0.0072604878805577755,-0.05663071945309639,0.0018011005595326424,0.9530725479125977,0.5942849516868591,-9.168912887573242
1745659989.4699955,-0.06784504652023315,-0.032866425812244415,0.0016553517198190093,0.7425515055656433,-0.6931136846542358,-12.350370407104492
1745659989.503333,0.07589223980903625,-0.051533497869968414,0.0020766169764101505,0.37091055512428284,0.5083534717559814,-10.31346321105957
1745659989.5058014,-0.05364706367254257,-0.04190068691968918,-0.00482881348580122,0.12296311557292938,0.0273039098829031,-7.9278693199157715
1745659989.5107906,0.019123293459415436,-0.05158986896276474,0.0052086226642131805,0.10924563556909561,-0.8733665347099304,-9.219331741333008
1745659989.5108244,-0.03055419959127903,-0.057480912655591965,0.008784265257418156,0.3436264395713806,0.029739951714873314,-11.121981620788574
1745659989.5514834,-0.02458963543176651,-0.02489907667040825,0.007684426847845316,0.2717951536178589,-0.22126317024230957,-10.46944808959961
1745659989.5516033,-0.006817148067057133,-0.03370124101638794,0.00890243798494339,0.4131340980529785,0.2554113268852234,-8.38138198852539
1745659989.551693,0.017469655722379684,-0.06556159257888794,0.00953904539346695,0.6142874956130981,0.3951943814754486,-9.547731399536133
1745659989.5517933,0.007468624506145716,-0.05170036479830742,0.006327225361019373,0.6609923839569092,-0.19962039589881897,-11.489535331726074
1745659989.587449,0.060721009969711304,-0.03637953847646713,0.015865081921219826,0.18175049126148224,-0.37538090348243713,-10.430780410766602
1745659989.5905273,0.03224088251590729,-0.042284104973077774,0.02549530193209648,-0.11457840353250504,-0.3598476052284241,-8.38404655456543
1745659989.5960777,0.00499045941978693,-0.042450208216905594,0.01908508501946926,0.2433975636959076,-0.30920735001564026,-8.802997589111328
1745659989.5980415,-0.03533010557293892,-0.042103350162506104,0.018594985827803612,0.26681891083717346,-0.8580719232559204,-9.315099716186523
1745659989.6291158,-0.06331930309534073,-0.05462395399808884,0.02286466397345066,0.4788575768470764,-0.8143259286880493,-10.718779563903809
1745659989.631599,-0.0786227136850357,-0.02562442049384117,0.034368496388196945,0.21956777572631836,-1.0111868381500244,-10.421649932861328
1745659989.6341298,-0.09145589917898178,-0.024723976850509644,0.04991275817155838,0.45403093099594116,-0.6979711055755615,-8.735971450805664
1745659989.6375349,-0.09423000365495682,-0.03997191786766052,0.06027795001864433,0.3442399501800537,0.026585305109620094,-9.25154972076416
1745659989.6387718,-0.07681865990161896,-0.03040451742708683,0.061267632991075516,0.6826022863388062,0.09481167048215866,-10.687106132507324
1745659989.6750255,-0.024983035400509834,-0.022907746955752373,0.055894386023283005,0.5250157117843628,0.8912922739982605,-10.451085090637207
1745659989.67726,-0.026272084563970566,-0.044980164617300034,0.041751883924007416,-0.033239807933568954,0.7489485740661621,-9.680776596069336
1745659989.6809962,0.009006156586110592,-0.04598310589790344,0.035239722579717636,-0.023290012031793594,0.30155110359191895,-9.168587684631348
1745659989.68654,0.045292239636182785,-0.028469983488321304,0.03650428727269173,-0.12614774703979492,0.39755362272262573,-9.943222999572754
1745659989.717369,0.023598339408636093,-0.03606896847486496,0.0346987321972847,-0.19612713158130646,-0.18834510445594788,-10.454211235046387
1745659989.7190812,0.0699198842048645,-0.02801307663321495,0.04003824666142464,0.045486610382795334,-0.45455509424209595,-9.387086868286133
1745659989.7217293,-0.040770821273326874,-0.0032478123903274536,0.007782996632158756,0.24655738472938538,-0.22929367423057556,-9.578346252441406
1745659989.724185,0.01829579845070839,0.002750639570876956,0.011235533282160759,0.38668638467788696,-0.3001536726951599,-10.562670707702637
1745659989.7593,-0.04686505347490311,0.029075438156723976,0.010253587737679482,0.25146257877349854,-0.7149511575698853,-10.176416397094727
1745659989.7626963,-0.042255423963069916,0.005321589298546314,0.018339086323976517,0.540045976638794,-1.0617458820343018,-8.929728507995605
1745659989.7679257,-0.073198102414608,0.0127644594758749,0.028941433876752853,0.46582531929016113,-0.47653061151504517,-9.50208854675293
1745659989.7709582,-0.09159822762012482,0.005788528360426426,0.02764969691634178,0.46369433403015137,-0.4581652581691742,-10.783648490905762
1745659989.7734153,-0.055876292288303375,0.020250771194696426,0.02693333849310875,0.08685240894556046,0.22475981712341309,-10.050119400024414
1745659989.8025181,-0.09094123542308807,0.019887084141373634,0.01782618835568428,0.09497766196727753,0.08280809223651886,-8.901985168457031
1745659989.805819,-0.06713753193616867,-0.0017016576603055,0.01087469793856144,0.2685033679008484,0.23402054607868195,-9.41157341003418
1745659989.8103426,-0.06834724545478821,0.017989810556173325,0.005363583564758301,0.13262760639190674,0.27222520112991333,-10.590792655944824
1745659989.813216,-0.061799030750989914,0.022191068157553673,0.0036606709472835064,0.42341890931129456,-0.16686874628067017,-9.977804183959961
1745659989.8471065,-0.05040540546178818,0.01995052769780159,0.007183822803199291,0.4053235948085785,0.2222518026828766,-8.964406967163086
1745659989.8507605,-0.06739003956317902,0.007178883068263531,0.007296303752809763,0.6311607360839844,-0.2571564316749573,-9.719017028808594
1745659989.856278,-0.0316595695912838,0.016348356381058693,0.005628574639558792,0.645792543888092,0.40410032868385315,-10.424860000610352
1745659989.8580782,-0.03759654611349106,0.023381268605589867,0.0002944408333860338,0.6976279020309448,0.08450237661600113,-9.956899642944336
1745659989.8624766,0.005039132200181484,0.027809465304017067,-0.011864423751831055,0.3802933394908905,0.7464372515678406,-9.148202896118164
1745659989.8910093,0.003260829718783498,0.016044406220316887,-0.023085925728082657,0.8048572540283203,0.44525250792503357,-9.102301597595215
1745659989.89269,0.045930467545986176,0.03113400936126709,-0.027752170339226723,0.8213591575622559,-0.04831616207957268,-10.469772338867188
1745659989.896286,0.0278904028236866,0.03216451779007912,-0.03379445523023605,0.29555487632751465,0.008348366245627403,-10.28985595703125
1745659989.9005606,0.04166771471500397,0.039782024919986725,-0.03215400129556656,0.5411437749862671,-0.7792513966560364,-8.983960151672363
1745659989.9313128,0.014015723951160908,0.051048826426267624,-0.03369894623756409,0.4007298946380615,-0.1630629003047943,-9.055342674255371
1745659989.9347165,-0.014116195030510426,0.03830570727586746,-0.03900616616010666,0.7873244285583496,-0.7581769227981567,-10.275232315063477
1745659989.9379756,-0.013313569128513336,0.046639978885650635,-0.04565472900867462,0.7753678560256958,0.08696606010198593,-10.351191520690918
1745659989.940351,-0.03445710241794586,0.049869149923324585,-0.06771331280469894,0.6909650564193726,-0.16551309823989868,-10.529058456420898
1745659989.9415915,-0.022445563226938248,0.0648721233010292,-0.06902237236499786,0.2824403643608093,0.7185745239257812,-9.671753883361816
1745659989.9747791,0.029399365186691284,0.05876736715435982,-0.06822972744703293,0.7028018832206726,0.24713771045207977,-8.823281288146973
1745659989.9794009,0.05966547131538391,0.04079415276646614,-0.06544940173625946,0.24763302505016327,0.8245768547058105,-9.759786605834961
1745659989.9830801,0.08274401724338531,0.06645570695400238,-0.06761480867862701,-0.09695018082857132,0.09340786188840866,-10.759939193725586
1745659989.9867544,0.08563243597745895,0.02901969850063324,-0.06202327460050583,0.3377142548561096,-0.30094224214553833,-9.465792655944824
1745659990.0181394,0.056755345314741135,0.05870123952627182,-0.05723079293966293,-0.9907395243644714,-0.3430096209049225,-9.528983116149902
1745659990.0201607,0.010945509187877178,0.04304789751768112,-0.06424827128648758,0.22529499232769012,-0.34129393100738525,-9.032323837280273
1745659990.0219252,0.013124632649123669,0.05189383774995804,-0.06764261424541473,0.09862938523292542,-0.007472717668861151,-9.95961856842041
1745659990.0248299,-0.04609460383653641,0.03010144829750061,-0.07210663706064224,0.6768901944160461,-0.48170438408851624,-10.500019073486328
1745659990.0609372,-0.0026641786098480225,0.02701534703373909,-0.06584268808364868,0.5463356971740723,-0.3021637499332428,-9.836685180664062
1745659990.063788,-0.05414284020662308,0.029437407851219177,-0.05146781727671623,-0.16095316410064697,-0.6091561317443848,-9.523327827453613
1745659990.0662613,-0.035644881427288055,0.021599922329187393,-0.03851885348558426,0.14990150928497314,-0.660335898399353,-9.183667182922363
1745659990.0717115,-0.031833045184612274,-0.015079970471560955,-0.01391908060759306,0.25385424494743347,-0.37109947204589844,-11.549543380737305
1745659990.1023746,-0.07834674417972565,-0.0017469230806455016,-0.022539712488651276,0.21730515360832214,0.609565258026123,-9.011831283569336
1745659990.104285,-0.030719229951500893,-0.07907327264547348,-0.03442244604229927,0.5458923578262329,0.5264288783073425,-8.115621566772461
1745659990.106379,-0.003990827593952417,-0.029137734323740005,-0.031103771179914474,0.4225800037384033,0.528854250907898,-11.058265686035156
1745659990.10648,0.01422514021396637,-0.06850024312734604,-0.01715175434947014,-1.0350940227508545,-0.09753837436437607,-11.792437553405762
1745659990.107365,0.06398989260196686,0.053620100021362305,-0.016142450273036957,-0.4412313997745514,0.05515638738870621,-7.476731300354004
1745659990.14663,-0.0028263076674193144,-0.08402217924594879,-0.009808997623622417,0.5309420824050903,-0.1257256269454956,-7.083859443664551
1745659990.1489613,0.01802237145602703,-0.063135527074337,0.0020174416713416576,0.09112977236509323,-0.46026983857154846,-12.855222702026367
1745659990.1497052,0.008787105791270733,-0.01155341137200594,-0.00648011127486825,-0.7120779752731323,0.20551744103431702,-12.608912467956543
1745659990.1515226,-0.01754227839410305,-0.026986679062247276,0.0033955059479922056,-0.6986579895019531,-1.4737659692764282,-6.718637943267822
1745659990.1936913,-0.08491931855678558,-0.05963694304227829,0.019844509661197662,-0.0176849365234375,-0.43526872992515564,-6.9923834800720215
1745659990.1957583,-0.18734008073806763,-0.11430297046899796,0.026257995516061783,0.26885128021240234,-1.029128074645996,-13.317068099975586
1745659990.1980567,-0.04580765590071678,-0.0028982555959373713,0.022962071001529694,-0.7134174108505249,0.877740204334259,-12.518345832824707
1745659990.1988416,-0.1581920087337494,-0.03168870881199837,0.020587822422385216,-0.39442306756973267,0.2639617323875427,-6.198635101318359
1745659990.2325597,-0.08571495115756989,-0.09876030683517456,0.01416024100035429,0.7883939743041992,0.42137646675109863,-6.998582363128662
1745659990.2357092,-0.0749274343252182,-0.06629972904920578,0.016142552718520164,1.0190486907958984,0.7378988862037659,-13.829534530639648
1745659990.2392921,-0.051321595907211304,-0.08868102729320526,0.02912021614611149,0.05693068355321884,-0.5059663653373718,-13.74866771697998
1745659990.2408152,0.09628597646951675,0.030618656426668167,0.036028821021318436,-0.99798583984375,1.25374174118042,-5.875461101531982
1745659990.2430072,-0.0783398374915123,-0.13326768577098846,0.026687532663345337,1.7371517419815063,-0.2969680726528168,-5.047857761383057
1745659990.2749822,0.15057986974716187,-0.011203917674720287,0.04065456986427307,-0.4190337657928467,0.5349358320236206,-15.189414978027344
1745659990.2770808,-0.04978030174970627,-0.12704408168792725,0.01551123894751072,0.695894718170166,0.46736088395118713,-12.825182914733887
1745659990.280135,0.16299331188201904,0.1146891713142395,0.011818786151707172,-0.32561951875686646,-0.5615373849868774,-6.398449420928955
1745659990.2850397,0.024412810802459717,0.020109597593545914,0.010669529438018799,-0.20887145400047302,1.8651787042617798,-7.149862766265869
1745659990.3210056,-0.2607549726963043,-0.11811665445566177,-0.005581310018897057,-0.02393641509115696,-0.8862987756729126,-13.331506729125977
1745659990.322239,0.17906972765922546,0.10152988135814667,-0.01310589350759983,1.5198490619659424,1.6404268741607666,-10.592270851135254
1745659990.3232365,-0.09453839063644409,-0.018069138750433922,-0.0321907177567482,0.4335574209690094,1.0088038444519043,-7.62177038192749
1745659990.3247685,0.11627473682165146,-0.08155461400747299,-0.04302685707807541,1.6796058416366577,-0.014556932263076305,-9.001853942871094
1745659990.367458,0.08793655037879944,0.03541840612888336,-0.04523671790957451,-0.11112616956233978,1.518265962600708,-12.654848098754883
1745659990.369843,0.09625498950481415,-0.008265713229775429,-0.04026808589696884,0.40132150053977966,-2.014981746673584,-10.447652816772461
1745659990.372295,0.10469257831573486,0.03289755433797836,-0.03590290993452072,0.7670235633850098,0.8941987156867981,-6.0288496017456055
1745659990.3733675,-0.05164342001080513,-0.04327705129981041,-0.044148676097393036,0.4104550778865814,-1.5723401308059692,-10.579641342163086
1745659990.3762836,0.15585914254188538,0.04786842316389084,-0.0673467144370079,0.7472201585769653,2.569765090942383,-12.154354095458984
1745659990.4041429,-0.08433546870946884,0.02611318789422512,-0.0903889536857605,0.9946479797363281,-1.3917080163955688,-10.183469772338867
1745659990.4062037,0.148867666721344,-0.019715841859579086,-0.09385986626148224,1.0512449741363525,-0.1624394953250885,-7.003758430480957
1745659990.408316,-0.10201909393072128,0.014513427391648293,-0.08675789833068848,-0.22660323977470398,-0.25578925013542175,-10.842489242553711
1745659990.447579,0.1279354989528656,0.0882783830165863,-0.21009257435798645,0.5846713781356812,-0.06846930086612701,-11.070338249206543
1745659990.4516985,0.11940528452396393,0.06688743084669113,-0.21903260052204132,0.7731431126594543,-0.5807487368583679,-9.786945343017578
1745659990.4536872,0.1309261918067932,0.05925363302230835,-0.21857795119285583,0.5562891960144043,0.012198388576507568,-8.40442943572998
1745659990.458601,0.11296512186527252,0.05694561079144478,-0.21648767590522766,0.5858228206634521,-0.5266535878181458,-9.742411613464355
1745659990.4600081,0.15095463395118713,0.06825519353151321,-0.21620039641857147,0.49605733156204224,0.08782367408275604,-10.633028030395508
1745659990.49027,0.14724986255168915,0.07352592051029205,-0.2163667231798172,0.7149561047554016,-0.32068341970443726,-9.491453170776367
1745659990.493665,0.17087069153785706,0.0571829155087471,-0.21783646941184998,0.8340066075325012,0.08915384858846664,-8.787839889526367
1745659990.4972668,0.16507963836193085,0.050531767308712006,-0.2247045487165451,0.5269924402236938,-0.10275623947381973,-10.089317321777344
1745659990.5032637,0.17827793955802917,0.05519334226846695,-0.2270611971616745,0.8649347424507141,-0.3880947530269623,-10.382074356079102
1745659990.533338,0.1623334288597107,0.06644923239946365,-0.23237256705760956,0.6155747175216675,-0.22809132933616638,-9.37397289276123
1745659990.5365026,0.14026157557964325,0.039288975298404694,-0.2334345132112503,0.8005396723747253,-0.7721665501594543,-9.040547370910645
1745659990.5392752,0.14008828997612,0.04583624005317688,-0.23532386124134064,0.6917954683303833,-0.1781565546989441,-9.806028366088867
1745659990.5425243,0.11821942031383514,0.056653447449207306,-0.2390718013048172,0.7865241765975952,-0.5697611570358276,-10.344287872314453
1745659990.5457876,0.13849353790283203,0.03519511967897415,-0.24363771080970764,0.8258121609687805,-0.11969435214996338,-9.503016471862793
1745659990.5806193,0.13606882095336914,0.03623531386256218,-0.24266986548900604,0.672903299331665,-0.23768654465675354,-9.42986011505127
1745659990.5851452,0.1528957188129425,0.0337056890130043,-0.24440665543079376,0.6773582100868225,-0.22311659157276154,-9.909631729125977
1745659990.5914276,0.15982158482074738,0.03361203148961067,-0.246961310505867,0.4558733403682709,-0.30094629526138306,-9.893104553222656
1745659990.5914981,0.16583040356636047,0.03273326903581619,-0.2454807311296463,0.9213801622390747,-0.48236021399497986,-9.29312515258789
1745659990.618482,0.15063536167144775,0.01986103504896164,-0.2473156452178955,0.5645874738693237,-0.30383381247520447,-9.721226692199707
1745659990.6222148,0.15633979439735413,0.01891256496310234,-0.248555988073349,0.714048445224762,-0.7599254846572876,-10.104965209960938
1745659990.6222768,0.14258165657520294,0.02802538312971592,-0.25326478481292725,0.8197776079177856,-0.20229455828666687,-9.540602684020996
1745659990.6250181,0.12449638545513153,0.01395067572593689,-0.2595810294151306,0.7352306246757507,-0.7963915467262268,-9.547658920288086
1745659990.6621091,0.1202315092086792,0.0049950010143220425,-0.2631852328777313,0.7657391428947449,-0.38905367255210876,-9.992145538330078
1745659990.666366,0.1364595890045166,0.0008098416146822274,-0.26731598377227783,0.5419523119926453,-0.023872755467891693,-10.015035629272461
1745659990.6708024,0.1543116718530655,0.003001829143613577,-0.26723456382751465,0.6556208729743958,-0.4256823658943176,-9.394447326660156
1745659990.6740153,0.1421915590763092,-0.006276816129684448,-0.269283652305603,0.7378790974617004,-0.29424038529396057,-9.323525428771973
1745659990.7073057,0.14481644332408905,-0.007436891086399555,-0.27351754903793335,0.5646522641181946,-0.7075231075286865,-10.110621452331543
1745659990.7108812,0.14280380308628082,-0.004749954212456942,-0.2699132561683655,0.885981559753418,-0.5816611647605896,-9.787532806396484
1745659990.7144578,0.11802597343921661,-0.009124265983700752,-0.27411872148513794,0.6324673891067505,-0.5491970181465149,-9.595693588256836
1745659990.71845,0.11703737825155258,-0.01718948781490326,-0.27558520436286926,0.8999384641647339,-0.8601903915405273,-9.65198040008545
1745659990.7240274,0.10280487686395645,-0.02381342090666294,-0.27799203991889954,0.7252759337425232,-0.32092809677124023,-9.948369026184082
1745659990.7502792,0.09752477705478668,-0.016126258298754692,-0.28162723779678345,0.6232944130897522,-0.7763693928718567,-9.916421890258789
1745659990.754628,0.10422728210687637,-0.021290091797709465,-0.2795793414115906,0.6835581660270691,-0.33642786741256714,-9.301069259643555
1745659990.7609057,0.09500177949666977,-0.029239049181342125,-0.28250616788864136,0.59088534116745,-0.5883499383926392,-9.638545989990234
1745659990.7621634,0.10756085067987442,-0.026730138808488846,-0.27954789996147156,0.7397338151931763,-0.461334228515625,-10.061525344848633
1745659990.7916505,0.1193954348564148,-0.029369691386818886,-0.2799360156059265,0.4875510632991791,-0.35803407430648804,-9.916543960571289
1745659990.7947214,0.08085522055625916,-0.04460261017084122,-0.3109191358089447,0.4454519748687744,-0.7202930450439453,-10.001492500305176
1745659990.7986012,0.07143697887659073,-0.04857911914587021,-0.31093138456344604,0.5740405321121216,-0.6187042593955994,-9.481877326965332
1745659990.8010516,0.08401195704936981,-0.04386933520436287,-0.31033048033714294,0.5044211149215698,-0.6414898633956909,-9.655200004577637
1745659990.836086,0.08393706381320953,-0.04862326383590698,-0.3118806779384613,0.6173399090766907,-0.6248573064804077,-9.98820686340332
1745659990.8384256,0.07708171010017395,-0.046846650540828705,-0.31598809361457825,0.5300214290618896,-0.6482535600662231,-10.014927864074707
1745659990.844217,0.08803926408290863,-0.037140779197216034,-0.3139822483062744,0.6408065557479858,-0.800373911857605,-9.58200740814209
1745659990.8442917,0.0679955929517746,-0.052118897438049316,-0.3174137771129608,0.38506820797920227,-0.6134787797927856,-9.692896842956543
1745659990.8454282,0.07514588534832001,-0.03977002575993538,-0.3179091811180115,0.6022933721542358,-0.9512394070625305,-9.91248607635498
1745659990.879534,0.06371462345123291,-0.04143784940242767,-0.31646937131881714,0.5410225987434387,-0.5974048376083374,-9.943836212158203
1745659990.8820786,0.06813924014568329,-0.04285966977477074,-0.32073527574539185,0.41459426283836365,-0.8154944181442261,-9.747396469116211
1745659990.8858922,0.04983678460121155,-0.04338077828288078,-0.31944528222084045,0.6120680570602417,-0.8970150947570801,-9.577126502990723
1745659990.8878107,0.0606975257396698,-0.03698297590017319,-0.31902629137039185,0.3774127662181854,-0.7387744188308716,-9.912332534790039
1745659990.9217694,0.052417587488889694,-0.04139053076505661,-0.3184862732887268,0.6092041730880737,-0.8487659692764282,-9.962297439575195
1745659990.9262075,0.0521923303604126,-0.037694498896598816,-0.3192720413208008,0.4027376174926758,-0.6464717984199524,-9.703962326049805
1745659990.9297578,0.054966170340776443,-0.028311025351285934,-0.3187965452671051,0.498828262090683,-0.9278383255004883,-9.635251998901367
1745659990.9313967,0.04969940334558487,-0.04302578419446945,-0.31918230652809143,0.48445168137550354,-0.4479159712791443,-9.69001293182373
1745659990.9318573,0.05306912586092949,-0.029267098754644394,-0.3232593238353729,0.5284846425056458,-0.8293286561965942,-10.05009937286377
1745659990.9649236,0.05787458270788193,-0.03385024145245552,-0.32228824496269226,0.5719605088233948,-0.5797603726387024,-9.822550773620605
1745659990.9682603,0.04997317120432854,-0.03328483924269676,-0.32430750131607056,0.44456571340560913,-0.794303834438324,-9.657938003540039
1745659990.9728165,0.052487511187791824,-0.03014579974114895,-0.3214665353298187,0.6299751400947571,-0.8422597646713257,-9.693288803100586
1745659990.9743166,0.052036385983228683,-0.033356569707393646,-0.32239657640457153,0.47740140557289124,-0.6678552627563477,-9.952692985534668
1745659991.0071652,0.05125196650624275,-0.025181833654642105,-0.3207629323005676,0.5410701036453247,-0.8466449975967407,-9.882196426391602
1745659991.0094523,0.04487653449177742,-0.033849917352199554,-0.3211989998817444,0.4505991041660309,-0.6062409281730652,-9.638581275939941
1745659991.01282,0.05659700557589531,-0.0224007498472929,-0.32533007860183716,0.5333164930343628,-0.8137764930725098,-9.692455291748047
1745659991.0150518,0.04441533610224724,-0.027438919991254807,-0.3274006247520447,0.38700011372566223,-0.8219412565231323,-9.75877857208252
1745659991.0194752,0.05077333003282547,-0.016223769634962082,-0.3276199400424957,0.5956515073776245,-0.9603761434555054,-9.775657653808594
1745659991.052944,0.030206065624952316,-0.026509657502174377,-0.32701051235198975,0.5313394665718079,-0.750182032585144,-9.739761352539062
1745659991.0552819,0.037806395441293716,-0.017550155520439148,-0.3290001451969147,0.5779239535331726,-0.8736076354980469,-9.832077026367188
1745659991.0604227,0.02076740749180317,-0.025598829612135887,-0.32736915349960327,0.5641276240348816,-0.782150149345398,-9.826666831970215
1745659991.0616405,0.042885638773441315,-0.01900799199938774,-0.3295418620109558,0.41326674818992615,-0.8034974932670593,-9.777828216552734
1745659991.0951676,0.022275686264038086,-0.01932419463992119,-0.328469455242157,0.5889436602592468,-0.7187358736991882,-9.651836395263672
1745659991.0952325,0.031339507550001144,-0.02182542346417904,-0.3286753296852112,0.34324324131011963,-0.7286874055862427,-9.814265251159668
1745659991.0972931,0.0495612695813179,-0.013667799532413483,-0.32820308208465576,0.5085805058479309,-0.6800395846366882,-9.808244705200195
1745659991.0990078,0.0380358025431633,-0.020550623536109924,-0.32873645424842834,0.5023733973503113,-0.5620850324630737,-9.68708610534668
1745659991.1349993,0.05685439705848694,-0.015764525160193443,-0.3292357325553894,0.5683726668357849,-0.8581887483596802,-9.65979290008545
1745659991.138288,0.04628794640302658,-0.019955497235059738,-0.3291148841381073,0.5333290100097656,-0.6152088046073914,-9.763017654418945
1745659991.1419892,0.031907711178064346,-0.0225553959608078,-0.33086973428726196,0.5058673620223999,-0.814104437828064,-9.798900604248047
1745659991.144892,0.0328887514770031,-0.013044362887740135,-0.3292599618434906,0.6312085390090942,-0.9363285899162292,-9.757972717285156
1745659991.179574,0.028729718178510666,-0.02655373513698578,-0.3286411464214325,0.502236545085907,-0.864037036895752,-9.746208190917969
1745659991.1809514,0.032748281955718994,-0.014786082319915295,-0.32666388154029846,0.5221531987190247,-0.9268935918807983,-9.759312629699707
1745659991.1840715,0.009217988699674606,-0.02244381420314312,-0.32700976729393005,0.5400128364562988,-0.8297517895698547,-9.647762298583984
1745659991.186017,0.02833765186369419,-0.021709199994802475,-0.33073586225509644,0.46648770570755005,-0.8294685482978821,-9.678951263427734
1745659991.1874745,0.016382982954382896,-0.01997099258005619,-0.32921144366264343,0.58577960729599,-0.7680469751358032,-9.682629585266113
1745659991.2234848,0.013770158402621746,-0.018792632967233658,-0.3313823342323303,0.46360325813293457,-0.783913254737854,-9.825793266296387
1745659991.2273397,0.0246934425085783,-0.017916690558195114,-0.3316616714000702,0.6252700686454773,-0.8792865872383118,-9.659396171569824
1745659991.2278953,0.012986351735889912,-0.02635187841951847,-0.3299998342990875,0.4408147931098938,-0.7489285469055176,-9.788299560546875
1745659991.2311625,0.028032755479216576,-0.01426987536251545,-0.3282232880592346,0.5057512521743774,-0.9412393569946289,-9.802976608276367
1745659991.2748258,0.018197908997535706,-0.02443893626332283,-0.3263717293739319,0.4854869842529297,-0.7321047186851501,-9.648126602172852
1745659991.2749283,0.030245298519730568,-0.01857445202767849,-0.3262661099433899,0.5025542974472046,-0.8245609402656555,-9.62757396697998
1745659991.2855191,0.01296814065426588,-0.0219979677349329,-0.3271164894104004,0.6002795696258545,-0.8270959854125977,-9.752443313598633
1745659991.2879596,0.02931126393377781,-0.021361807361245155,-0.33015063405036926,0.3656817078590393,-0.7943792343139648,-9.894575119018555
1745659991.3113189,0.016254911199212074,-0.016004325821995735,-0.32972684502601624,0.589458703994751,-0.8507179021835327,-9.594467163085938
1745659991.3114245,0.010224372148513794,-0.024472307413816452,-0.3283900320529938,0.4449852406978607,-0.7842212915420532,-9.659857749938965
1745659991.312653,0.022974826395511627,-0.017830559983849525,-0.33072441816329956,0.6323205232620239,-1.0312979221343994,-9.823497772216797
1745659991.313897,0.006325768772512674,-0.02834649384021759,-0.32849639654159546,0.5024515986442566,-0.6889874339103699,-9.826667785644531
1745659991.3157275,0.02322389744222164,-0.013146305456757545,-0.32588690519332886,0.4191993772983551,-0.9566421508789062,-9.677833557128906
1745659991.351622,0.01564956083893776,-0.020981933921575546,-0.3277314305305481,0.5783432722091675,-0.6679123044013977,-9.442120552062988
1745659991.3560421,0.017855918034911156,-0.02264009229838848,-0.3263675570487976,0.5042864084243774,-0.8462532162666321,-9.82573127746582
1745659991.3569617,0.01848643273115158,-0.02049732580780983,-0.32508331537246704,0.5290625691413879,-0.8910427093505859,-9.942448616027832
1745659991.3593588,0.002012240467593074,-0.022082610055804253,-0.32673007249832153,0.5688685178756714,-0.7643225789070129,-9.700045585632324
1745659991.3949685,0.006773519329726696,-0.020593050867319107,-0.3242131769657135,0.467363178730011,-0.8754385709762573,-9.576059341430664
1745659991.3967347,0.008232848718762398,-0.021701309829950333,-0.3245874345302582,0.5883783102035522,-0.8177322149276733,-9.665709495544434
1745659991.397914,0.005186880938708782,-0.027583951130509377,-0.3237919211387634,0.4060642719268799,-0.7357228994369507,-10.042304992675781
1745659991.4012349,0.020624343305826187,-0.014752009883522987,-0.32320037484169006,0.5142802000045776,-0.7843254804611206,-9.799468040466309
1745659991.4373984,0.013001842424273491,-0.025046953931450844,-0.3233126699924469,0.3975735604763031,-0.6784268617630005,-9.451677322387695
1745659991.43913,0.02739194966852665,-0.02022874541580677,-0.3226236402988434,0.5208700299263,-0.8308995962142944,-9.632906913757324
1745659991.441344,0.010798958130180836,-0.025966932997107506,-0.32348304986953735,0.5470162630081177,-0.8466442227363586,-9.98226547241211
1745659991.4430587,0.029856618493795395,-0.020115727558732033,-0.3216741979122162,0.3616441786289215,-0.8733949661254883,-9.936267852783203
1745659991.4469025,0.008652303367853165,-0.017953502014279366,-0.31954675912857056,0.5565779209136963,-0.8781606554985046,-9.440411567687988
1745659991.4847271,0.009222290478646755,-0.023864412680268288,-0.321047306060791,0.34942150115966797,-0.8589267730712891,-9.666801452636719
1745659991.489627,0.018124617636203766,-0.01778906211256981,-0.32025477290153503,0.5936731696128845,-0.8851712346076965,-9.945466995239258
1745659991.4945786,0.0058436705730855465,-0.024558480829000473,-0.32198789715766907,0.4592726230621338,-0.6271607279777527,-9.822576522827148
1745659991.4953678,0.020968692377209663,-0.011718686670064926,-0.3055418133735657,0.4197677671909332,-0.9959858059883118,-9.692106246948242
1745659991.5260448,0.015269686467945576,-0.02085217833518982,-0.3058179020881653,0.5298558473587036,-0.6768730878829956,-9.653841018676758
1745659991.5298278,0.018625658005475998,-0.018543142825365067,-0.3076668679714203,0.358643501996994,-0.769291877746582,-9.90832805633545
1745659991.5330484,0.022263282909989357,-0.012940406799316406,-0.30793946981430054,0.49824458360671997,-0.769343376159668,-9.816486358642578
1745659991.5363088,0.021876953542232513,-0.019852017983794212,-0.31014588475227356,0.3341768980026245,-0.8159921765327454,-9.598092079162598
1745659991.568487,0.021280502900481224,-0.013845977373421192,-0.30541473627090454,0.5527848601341248,-0.961355984210968,-9.65582275390625
1745659991.5723138,0.011190440505743027,-0.022641325369477272,-0.3038390278816223,0.4578678607940674,-0.8900071978569031,-9.942262649536133
1745659991.575681,0.025150910019874573,-0.013620485551655293,-0.3049498200416565,0.40101200342178345,-0.9132881164550781,-9.91013240814209
1745659991.5780637,0.001138113671913743,-0.017583351582288742,-0.30262988805770874,0.533284068107605,-0.8083680868148804,-9.553197860717773
1745659991.581142,0.01427372358739376,-0.019658777862787247,-0.30634772777557373,0.4088424742221832,-0.9046519994735718,-9.677282333374023
1745659991.6118915,0.01075177825987339,-0.01960715278983116,-0.30356311798095703,0.5527382493019104,-0.8088678121566772,-9.868874549865723
1745659991.6119845,0.005379010457545519,-0.01770223304629326,-0.306030809879303,0.3897143006324768,-0.716152548789978,-9.902802467346191
1745659991.6143627,0.015000835061073303,-0.012525605037808418,-0.30520856380462646,0.5086182355880737,-0.981153130531311,-9.593778610229492
1745659991.617794,0.00552964024245739,-0.02391626313328743,-0.3047758936882019,0.4001728892326355,-0.7274028062820435,-9.555244445800781
1745659991.6523054,0.011596543714404106,-0.015293409116566181,-0.30335578322410583,0.5045790672302246,-0.9737064242362976,-9.988885879516602
1745659991.657576,0.00637942086905241,-0.019034570083022118,-0.30021998286247253,0.4668705463409424,-0.7579036951065063,-9.944515228271484
1745659991.6581886,0.01973435841500759,-0.01871001347899437,-0.3023696541786194,0.3812057375907898,-0.7926852107048035,-9.580926895141602
1745659991.6609318,0.0011702349875122309,-0.02078140154480934,-0.3010466694831848,0.5674911141395569,-0.8869694471359253,-9.5003080368042
1745659991.6639578,0.012320632115006447,-0.020764201879501343,-0.30352360010147095,0.37499064207077026,-0.8135057687759399,-9.928773880004883
1745659991.6995723,0.008524930104613304,-0.01658431440591812,-0.3035953938961029,0.5710804462432861,-0.901573657989502,-9.816781997680664
1745659991.7031312,-0.006411331705749035,-0.016289250925183296,-0.3019559979438782,0.36422327160835266,-0.7989590764045715,-9.612525939941406
1745659991.704494,0.004105445928871632,-0.01583421230316162,-0.3039468228816986,0.4497889578342438,-1.0430635213851929,-9.685171127319336
1745659991.7075295,0.004386738408356905,-0.014061519876122475,-0.2982787489891052,0.45804768800735474,-0.8988205194473267,-9.640288352966309
1745659991.7405534,-0.01132406760007143,-0.022294331341981888,-0.29864567518234253,0.4669559895992279,-0.7467969059944153,-9.564436912536621
1745659991.7441044,0.006637051701545715,-0.016263069584965706,-0.29816970229148865,0.4398343563079834,-0.8560346364974976,-9.907569885253906
1745659991.7487795,-0.0010794528061524034,-0.017759952694177628,-0.30095911026000977,0.5207446217536926,-0.7382588386535645,-9.808552742004395
1745659991.7525952,-0.0039347028359770775,-0.016053766012191772,-0.3008534014225006,0.4294307827949524,-0.8009158968925476,-9.669025421142578
1745659991.7830415,0.003639328759163618,-0.0153512479737401,-0.2989874482154846,0.5358093976974487,-0.9227660894393921,-9.559282302856445
1745659991.7856524,-0.007031047251075506,-0.02259543165564537,-0.2988547682762146,0.3699462115764618,-0.6917091608047485,-9.849466323852539
1745659991.7867982,0.004235832951962948,-0.0129378167912364,-0.29672971367836,0.5371218919754028,-0.968686580657959,-9.924605369567871
1745659991.7885637,-0.0017202632734552026,-0.020021144300699234,-0.29646599292755127,0.44828739762306213,-0.7054557800292969,-9.720317840576172
1745659991.7922354,0.006329967640340328,-0.016389725729823112,-0.29760944843292236,0.4675835072994232,-0.8847590684890747,-9.627209663391113
1745659991.8252027,-0.010580766946077347,-0.025537606328725815,-0.2957313060760498,0.5405713319778442,-0.8594774007797241,-9.728086471557617
1745659991.8266146,0.0050295498222112656,-0.015528003685176373,-0.29633671045303345,0.3433235287666321,-0.8204811811447144,-9.89883804321289
1745659991.8296633,-0.0020460751838982105,-0.014755186624825,-0.2958429455757141,0.5595909357070923,-0.8528628349304199,-9.587946891784668
1745659991.8325868,-0.009558094665408134,-0.019003231078386307,-0.2960265278816223,0.2979486584663391,-0.7136284112930298,-9.655731201171875
1745659991.8702302,-0.00569041445851326,-0.022548312321305275,-0.2884875535964966,0.36147046089172363,-0.6794310808181763,-9.710195541381836
1745659991.8722665,-0.0010001510381698608,-0.020746301859617233,-0.2860592007637024,0.5103896260261536,-0.927651584148407,-9.825674057006836
1745659991.8772352,0.00018933360115624964,-0.023196838796138763,-0.2875298857688904,0.45902523398399353,-0.6514321565628052,-9.676396369934082
1745659991.880012,-0.008300992660224438,-0.01719282567501068,-0.28729844093322754,0.48317208886146545,-0.8658221364021301,-9.671335220336914
1745659991.9127202,-0.00316140940412879,-0.020807627588510513,-0.28743189573287964,0.554911732673645,-0.7409699559211731,-9.628984451293945
1745659991.9155285,-0.0056951604783535,-0.020190978422760963,-0.28605183959007263,0.3294987082481384,-0.6820256114006042,-9.89579963684082
1745659991.9189737,-0.0037911287508904934,-0.01811010204255581,-0.2867838740348816,0.5317891836166382,-0.7969812154769897,-9.874159812927246
1745659991.921341,-0.00011589397036004812,-0.023889828473329544,-0.28739133477211,0.3049197196960449,-0.5768531560897827,-9.752253532409668
1745659991.9244583,0.003302494529634714,-0.021300137042999268,-0.28700941801071167,0.5202937126159668,-0.8543118238449097,-9.66250991821289
1745659991.954564,-0.0087103471159935,-0.024662908166646957,-0.28705984354019165,0.41352027654647827,-0.649769127368927,-9.756922721862793
1745659991.9560597,0.003410394536331296,-0.017399214208126068,-0.28622883558273315,0.4289178252220154,-0.8802928924560547,-9.823034286499023
1745659991.9583855,-0.0035241569858044386,-0.021907988935709,-0.2856810986995697,0.5914611220359802,-0.666467547416687,-9.576713562011719
1745659991.961061,-0.002560324501246214,-0.020096251741051674,-0.2864723801612854,0.38331037759780884,-0.7258037328720093,-9.844321250915527
1745659991.9976048,-0.0005180068546906114,-0.023155810311436653,-0.28596439957618713,0.5724906921386719,-0.8500477075576782,-9.866373062133789
1745659992.0004456,0.0027640659827739,-0.02607656456530094,-0.28651589155197144,0.3206595480442047,-0.5463980436325073,-9.76866340637207
1745659992.0024598,-0.0014647521311417222,-0.018653279170393944,-0.2861069142818451,0.45722442865371704,-0.9498575925827026,-9.635298728942871
1745659992.0057738,0.0031789341010153294,-0.02269558236002922,-0.28686079382896423,0.39137083292007446,-0.5099475979804993,-9.599102973937988
1745659992.0072317,-0.004871498793363571,-0.019950823858380318,-0.2875845730304718,0.46369877457618713,-0.9225877523422241,-9.809346199035645
1745659992.04224,-0.004418413154780865,-0.020688878372311592,-0.2848895192146301,0.48172527551651,-0.7068951725959778,-9.795942306518555
1745659992.0445364,-0.0003539662866387516,-0.01861269399523735,-0.2864643931388855,0.4082692265510559,-0.8397140502929688,-9.798440933227539
1745659992.0459979,-0.01138427946716547,-0.025884350761771202,-0.28455957770347595,0.5561296939849854,-0.8509501218795776,-9.716283798217773
1745659992.046465,-0.007578250020742416,-0.022975336760282516,-0.2816389203071594,0.32954007387161255,-0.6571651697158813,-9.808040618896484
1745659992.0868552,0.005442436318844557,-0.02221410721540451,-0.2850886881351471,0.5451289415359497,-0.8294093012809753,-9.642587661743164
1745659992.0902965,0.007054382469505072,-0.022766077890992165,-0.28474700450897217,0.31864258646965027,-0.7071364521980286,-9.783563613891602
1745659992.0936296,0.0025110915303230286,-0.02087756060063839,-0.285138875246048,0.5812917947769165,-0.8967941999435425,-9.793905258178711
1745659992.0963523,-0.005732742603868246,-0.02405601181089878,-0.28352782130241394,0.371155321598053,-0.7345646023750305,-9.748491287231445
1745659992.1255655,-0.0007702376460656524,-0.019442230463027954,-0.28292012214660645,0.4603625237941742,-0.8961051106452942,-9.745097160339355
1745659992.1294825,-0.00946016050875187,-0.026857340708374977,-0.28411030769348145,0.4424835741519928,-0.6133472323417664,-9.640908241271973
1745659992.1333723,-0.007322023622691631,-0.018124543130397797,-0.28493547439575195,0.3389376103878021,-0.7584087252616882,-9.903843879699707
1745659992.135787,-0.006211499217897654,-0.02217169851064682,-0.2844407856464386,0.5442261695861816,-0.7865080833435059,-9.749173164367676
1745659992.1393232,0.0023260340094566345,-0.022623160853981972,-0.28607505559921265,0.30667680501937866,-0.6010066866874695,-9.661874771118164
1745659992.1723819,-0.006765812635421753,-0.021837646141648293,-0.28504353761672974,0.5109365582466125,-0.8952676653862,-9.753684997558594
1745659992.176005,0.006222023628652096,-0.019889995455741882,-0.2862035036087036,0.3283746838569641,-0.4826194643974304,-9.745984077453613
1745659992.176081,-0.003407776355743408,-0.017957346513867378,-0.28823956847190857,0.5628418922424316,-0.9376270174980164,-9.709016799926758
1745659992.176765,-0.003147398354485631,-0.02287260815501213,-0.28318747878074646,0.46892356872558594,-0.6486436128616333,-9.718379020690918
1745659992.213072,-0.003471879754215479,-0.021036479622125626,-0.2864816188812256,0.42452001571655273,-0.8844579458236694,-9.929388046264648
1745659992.2158453,0.009172583930194378,-0.01926017738878727,-0.29132896661758423,0.564590334892273,-0.8260215520858765,-9.711115837097168
1745659992.2164092,0.007814341224730015,-0.019515108317136765,-0.2912358045578003,0.41356125473976135,-0.5983163118362427,-9.718235969543457
1745659992.2212908,-0.007090707775205374,-0.0185130275785923,-0.28940993547439575,0.46419626474380493,-0.9233007431030273,-9.940895080566406
1745659992.2232502,0.00742954108864069,-0.021120920777320862,-0.29084157943725586,0.3943594992160797,-0.6576593518257141,-9.742141723632812
1745659992.2613564,0.00043280964018777013,-0.015512240119278431,-0.2914932370185852,0.3814810514450073,-0.7222755551338196,-9.593284606933594
1745659992.2616658,0.00047082966193556786,-0.022359970957040787,-0.2881353497505188,0.5032508969306946,-0.730930507183075,-9.666539192199707
1745659992.2635891,0.01299053244292736,-0.016846761107444763,-0.29135018587112427,0.31583958864212036,-0.5262528657913208,-9.87890338897705
1745659992.2646194,0.006635007448494434,-0.02062786929309368,-0.29048091173171997,0.5601543188095093,-0.8589137196540833,-9.807600021362305
1745659992.2980819,0.01650487817823887,-0.019631344825029373,-0.2887480854988098,0.2697184085845947,-0.6011365652084351,-9.759997367858887
1745659992.3023567,0.009237390011548996,-0.01916927471756935,-0.2894531786441803,0.4838331639766693,-0.8953391909599304,-9.75990104675293
1745659992.3055918,0.0069085075519979,-0.02342280186712742,-0.2888588607311249,0.3558906316757202,-0.5596149563789368,-9.753998756408691
1745659992.308886,-0.0004199095128569752,-0.01646575704216957,-0.29076695442199707,0.4737086892127991,-0.8997468948364258,-9.76709270477295
1745659992.341551,0.0023487256839871407,-0.026581164449453354,-0.28884217143058777,0.5252842307090759,-0.6843810677528381,-9.594743728637695
1745659992.344076,0.0015634059673175216,-0.017500555142760277,-0.2904203534126282,0.2856896221637726,-0.6636198163032532,-9.822346687316895
1745659992.346282,-0.009115721099078655,-0.019286256283521652,-0.28983134031295776,0.507608950138092,-0.7777072191238403,-9.78460693359375
1745659992.3482807,0.01332826167345047,-0.014699508436024189,-0.29233601689338684,0.27776458859443665,-0.43731755018234253,-9.638455390930176
1745659992.3522203,-0.0002421414537820965,-0.020968426018953323,-0.29072973132133484,0.5378237962722778,-0.7596551179885864,-9.842118263244629
1745659992.385356,0.025210797786712646,-0.02109343558549881,-0.2912721037864685,0.3536367118358612,-0.4302937388420105,-9.883278846740723
1745659992.3873956,0.01886855438351631,-0.014061732217669487,-0.29059407114982605,0.34508293867111206,-0.7925029397010803,-9.733378410339355
1745659992.3900309,0.02225867658853531,-0.017745405435562134,-0.28866004943847656,0.43876194953918457,-0.6324318051338196,-9.454773902893066
1745659992.3922453,0.0205212514847517,-0.01478438638150692,-0.28976568579673767,0.36127787828445435,-0.7589653134346008,-9.775370597839355
1745659992.4280045,0.020153671503067017,-0.01971854828298092,-0.28857070207595825,0.5039352178573608,-0.7245963215827942,-9.988469123840332
1745659992.4301805,0.020911291241645813,-0.012033501639962196,-0.29227975010871887,0.3579457700252533,-0.5372540950775146,-9.812682151794434
1745659992.431466,0.0040603866800665855,-0.017542991787195206,-0.29194217920303345,0.4930867552757263,-0.8267281651496887,-9.95553207397461
1745659992.4324555,0.013624394312500954,-0.01777227781713009,-0.29072660207748413,0.43225353956222534,-0.7046285271644592,-9.758219718933105
1745659992.4736269,0.01946159638464451,-0.012007808312773705,-0.29170703887939453,0.3363071084022522,-0.6363270878791809,-9.554789543151855
1745659992.4780827,0.013431072235107422,-0.021700870245695114,-0.2900391221046448,0.5553363561630249,-0.702299952507019,-9.740273475646973
1745659992.4830768,0.030522644519805908,-0.0147497383877635,-0.2865241765975952,0.2882555425167084,-0.5677329301834106,-10.030336380004883
1745659992.4873505,0.02690432406961918,-0.01841004379093647,-0.290763795375824,0.48729586601257324,-0.7463952302932739,-9.834707260131836
1745659992.4912055,0.03061816468834877,-0.019643103703856468,-0.28767868876457214,0.2956973910331726,-0.5624356865882874,-9.538900375366211
1745659992.5185144,0.025706732645630836,-0.014527946710586548,-0.28940457105636597,0.4782983362674713,-0.8535206913948059,-9.670812606811523
1745659992.5201943,0.03275824338197708,-0.022350838407874107,-0.2895990014076233,0.48303642868995667,-0.5685033202171326,-9.815528869628906
1745659992.5237098,0.029462426900863647,-0.011649233289062977,-0.2888825833797455,0.3900911509990692,-0.7565411329269409,-9.8612060546875
1745659992.529301,0.019714029505848885,-0.020840125158429146,-0.2892642617225647,0.5447297692298889,-0.7672364115715027,-9.63127326965332
1745659992.5558534,0.03580472618341446,-0.015528665855526924,-0.28960496187210083,0.29461440443992615,-0.622172474861145,-9.72229290008545
1745659992.5578458,0.01723083294928074,-0.016552314162254333,-0.2875317931175232,0.5168588757514954,-0.7903421521186829,-9.872977256774902
1745659992.5610507,0.024800512939691544,-0.022978508844971657,-0.2823221683502197,0.4598934054374695,-0.7392925024032593,-9.659897804260254
1745659992.5636013,0.025976430624723434,-0.0137251615524292,-0.28311845660209656,0.2792733311653137,-0.7123347520828247,-9.601031303405762
1745659992.5992105,0.017819155007600784,-0.020381642505526543,-0.2835693657398224,0.5183005928993225,-0.8334369659423828,-9.693525314331055
1745659992.5999897,0.03457250818610191,-0.017062153667211533,-0.2837527394294739,0.3547762632369995,-0.5652028322219849,-9.800065994262695
1745659992.6021252,0.018086854368448257,-0.013578802347183228,-0.2836253046989441,0.45662349462509155,-0.8230882883071899,-9.834976196289062
1745659992.6050606,0.02939167618751526,-0.019138704985380173,-0.28341561555862427,0.3976859152317047,-0.7099399566650391,-9.665287017822266
1745659992.608593,0.029963988810777664,-0.015081936493515968,-0.2845610976219177,0.4244634211063385,-0.753704845905304,-9.77553939819336
1745659992.6456294,0.02576332353055477,-0.021952195093035698,-0.2828020453453064,0.4535849094390869,-0.7527976036071777,-9.806376457214355
1745659992.6492004,0.0402582511305809,-0.00965718924999237,-0.28330206871032715,0.3593319356441498,-0.6391834616661072,-9.754718780517578
1745659992.6522698,0.022878343239426613,-0.0230399277061224,-0.2838626801967621,0.5386080741882324,-0.879185676574707,-9.61707878112793
1745659992.6561754,0.03838455677032471,-0.014337429776787758,-0.28381770849227905,0.3365350663661957,-0.6426462531089783,-9.700593948364258
1745659992.687194,0.0197881031781435,-0.018316393718123436,-0.28636735677719116,0.5167849063873291,-0.9513805508613586,-9.91462516784668
1745659992.6882482,0.02994369901716709,-0.020250830799341202,-0.2840240001678467,0.3481062948703766,-0.6784647107124329,-9.830314636230469
1745659992.6906598,0.01375261228531599,-0.014185830950737,-0.28530970215797424,0.4712287485599518,-0.9012852907180786,-9.701069831848145
1745659992.6966934,0.015299618244171143,-0.025396134704351425,-0.28391584753990173,0.4590426981449127,-0.7724120020866394,-9.69196891784668
1745659992.729129,0.028093338012695312,-0.014004978351294994,-0.2847183346748352,0.3436500132083893,-0.7694370150566101,-9.782503128051758
1745659992.7308185,0.005884959362447262,-0.023095164448022842,-0.2837296426296234,0.5821817517280579,-0.7691057324409485,-9.742749214172363
1745659992.7320924,0.03302069008350372,-0.018227988854050636,-0.28408029675483704,0.3360077738761902,-0.6992586255073547,-9.741073608398438
1745659992.7361612,0.012544435448944569,-0.02210121601819992,-0.28580009937286377,0.4660690724849701,-0.7788780927658081,-9.744749069213867
1745659992.7362704,0.028928786516189575,-0.020145965740084648,-0.28304532170295715,0.33060702681541443,-0.6454676389694214,-9.826064109802246
1745659992.7730548,0.025291819125413895,-0.017191089689731598,-0.2840046286582947,0.3785455822944641,-0.8034560084342957,-9.814517974853516
1745659992.7757897,0.024199822917580605,-0.02530096471309662,-0.2843380272388458,0.4318663477897644,-0.6414052844047546,-9.605411529541016
1745659992.7810354,0.020971108227968216,-0.017714206129312515,-0.2858196794986725,0.40345829725265503,-0.8632491827011108,-9.73536491394043
1745659992.7903116,0.01691303960978985,-0.023428600281476974,-0.28383079171180725,0.5136364102363586,-0.8660146594047546,-9.807031631469727
1745659992.8149447,0.0025925615336745977,-0.020787212997674942,-0.281666100025177,0.47617149353027344,-0.8801156878471375,-9.702142715454102
1745659992.8174417,0.021792534738779068,-0.020713787525892258,-0.2820797264575958,0.3059120774269104,-0.7226678133010864,-9.784284591674805
1745659992.8187494,0.018426213413476944,-0.015392211265861988,-0.28240078687667847,0.4187200963497162,-0.644692063331604,-9.780608177185059
1745659992.8211083,0.019700070843100548,-0.023065900430083275,-0.2833302617073059,0.37347128987312317,-0.6615148782730103,-9.70643424987793
1745659992.8593063,0.03532461076974869,-0.014169437810778618,-0.28432807326316833,0.3586297929286957,-0.6609634757041931,-9.718807220458984
1745659992.86346,0.019559288397431374,-0.02770640328526497,-0.2831457853317261,0.4954306185245514,-0.8287164568901062,-9.708088874816895
1745659992.8686407,0.03230663016438484,-0.01370604895055294,-0.2834314703941345,0.3539706766605377,-0.8165553212165833,-9.807513236999512
1745659992.870404,0.014696923084557056,-0.021222595125436783,-0.2799244523048401,0.5282984375953674,-0.9775813817977905,-9.797160148620605
1745659992.8716366,0.025901254266500473,-0.01949053630232811,-0.27905726432800293,0.3307495713233948,-0.6679733395576477,-9.758092880249023
1745659992.9017308,0.0094462214037776,-0.016281772404909134,-0.2797338664531708,0.5035490393638611,-0.8554486036300659,-9.74832534790039
1745659992.9058325,0.019874118268489838,-0.024321693927049637,-0.2794204652309418,0.37836146354675293,-0.6741965413093567,-9.730051040649414
1745659992.909494,0.027950305491685867,-0.0143501665443182,-0.2816002070903778,0.34196025133132935,-0.699553906917572,-9.688957214355469
1745659992.9120066,0.00962331984192133,-0.01130883488804102,-0.27719247341156006,0.43357452750205994,-0.7453566789627075,-9.772621154785156
1745659992.9452875,0.011119169183075428,-0.021071363240480423,-0.27453309297561646,0.3845102787017822,-0.7368628978729248,-9.742593765258789
1745659992.9477801,0.016273275017738342,-0.007238718681037426,-0.2742217779159546,0.37955793738365173,-0.7953639030456543,-9.709060668945312
1745659992.9505727,0.008099758997559547,-0.02319576032459736,-0.27688834071159363,0.4875428080558777,-0.7837101817131042,-9.76573657989502
1745659992.9540362,0.01674462854862213,-0.015573921613395214,-0.27240222692489624,0.30620062351226807,-0.7124499082565308,-9.91363525390625
1745659992.9906764,-0.0032882015220820904,-0.016689565032720566,-0.27690476179122925,0.4736211895942688,-0.8766798973083496,-9.775114059448242
1745659992.990754,0.017099175602197647,-0.01868211105465889,-0.2744148075580597,0.30991479754447937,-0.6961859464645386,-9.536343574523926
1745659992.9941432,0.0034272850025445223,-0.013501109555363655,-0.2757921516895294,0.4718753397464752,-0.8633155822753906,-9.589808464050293
1745659992.9966154,-0.002363890875130892,-0.020648736506700516,-0.2751971185207367,0.45300787687301636,-0.6985370516777039,-9.909233093261719
1745659993.00011,0.011105617508292198,-0.009091714397072792,-0.27604278922080994,0.38975781202316284,-0.7710838317871094,-9.931587219238281
1745659993.0295763,-0.0017579201376065612,-0.02384275756776333,-0.27612319588661194,0.42559146881103516,-0.707136332988739,-9.633699417114258
1745659993.0309656,0.016398319974541664,-0.012045083567500114,-0.27714020013809204,0.3450765609741211,-0.7400553822517395,-9.684082984924316
1745659993.0331533,-0.0011097472161054611,-0.022855227813124657,-0.2742325961589813,0.4492662847042084,-0.7991734147071838,-9.864752769470215
1745659993.0344265,0.01517032366245985,-0.016089359298348427,-0.27530694007873535,0.3649790585041046,-0.7143200635910034,-9.79200553894043
1745659993.0789256,-0.0028371813241392374,-0.016678977757692337,-0.2764183282852173,0.46804410219192505,-0.9153275489807129,-9.639944076538086
1745659993.0882123,0.007977508939802647,-0.022037575021386147,-0.27544599771499634,0.3159233629703522,-0.7310806512832642,-9.692317008972168
1745659993.088287,0.0012961495667696,-0.013404724188148975,-0.2745690643787384,0.4529576301574707,-0.7626343369483948,-9.759547233581543
1745659993.0883434,-0.007841669954359531,-0.02292484976351261,-0.2756115794181824,0.4171181619167328,-0.688379168510437,-9.863713264465332
1745659993.0883853,0.008877511136233807,-0.011103937402367592,-0.27817898988723755,0.4126124978065491,-0.8302051424980164,-9.781384468078613
1745659993.1171749,-0.009627340361475945,-0.023055491968989372,-0.27732452750205994,0.4491289258003235,-0.7148512601852417,-9.64886474609375
1745659993.1195073,0.0040595936588943005,-0.018571481108665466,-0.2760990262031555,0.3248419761657715,-0.8589975237846375,-9.757244110107422
1745659993.121,-0.0053510507568717,-0.015084868296980858,-0.27650919556617737,0.471442848443985,-0.7090238332748413,-9.716399192810059
1745659993.1220493,-0.0024863206781446934,-0.01875113509595394,-0.2764017879962921,0.34906643629074097,-0.718366801738739,-9.715060234069824
1745659993.1602654,0.010743503458797932,-0.014510734006762505,-0.2760540843009949,0.3495873808860779,-0.7983492612838745,-9.902655601501465
1745659993.1639338,-0.008561268448829651,-0.01985301822423935,-0.2762659192085266,0.4416123330593109,-0.7788974046707153,-9.647002220153809
1745659993.1688883,0.009864580817520618,-0.014875459484755993,-0.2760361135005951,0.26275911927223206,-0.7412835359573364,-9.560190200805664
1745659993.171158,-0.0011834788601845503,-0.015313548967242241,-0.27511605620384216,0.45739835500717163,-0.7608274221420288,-9.658909797668457
1745659993.2035582,-0.000730829022359103,-0.015657393261790276,-0.27824267745018005,0.4133911728858948,-0.6386640071868896,-9.850870132446289
1745659993.2045836,0.004299983847886324,-0.011704027652740479,-0.27741149067878723,0.4723394513130188,-0.818428635597229,-9.810525894165039
1745659993.206691,-0.001462851301766932,-0.02185339666903019,-0.2785685658454895,0.3840634226799011,-0.662886381149292,-9.73321533203125
1745659993.21083,0.010496732778847218,-0.010154667310416698,-0.27838602662086487,0.3622113764286041,-0.7784369587898254,-9.740262985229492
1745659993.2457452,-0.0037370044738054276,-0.020218420773744583,-0.2752106785774231,0.43616533279418945,-0.7567474246025085,-9.7698974609375
1745659993.2483282,0.012029158882796764,-0.01349183451384306,-0.27794867753982544,0.3776552677154541,-0.7187538146972656,-9.707575798034668
1745659993.2502053,-0.009542380459606647,-0.017307860776782036,-0.2769719958305359,0.46239909529685974,-0.8588059544563293,-9.698873519897461
1745659993.2512422,0.014231627807021141,-0.01777205802500248,-0.27840349078178406,0.2971092164516449,-0.6658824682235718,-9.763699531555176
1745659993.2542412,-0.0011163698509335518,-0.012735135853290558,-0.27866649627685547,0.49276629090309143,-0.7460429668426514,-9.753599166870117
1745659993.2880912,0.008914251811802387,-0.013877319172024727,-0.27984991669654846,0.4464763104915619,-0.7211833000183105,-9.962697982788086
1745659993.2914271,0.017434051260352135,-0.015831708908081055,-0.27849096059799194,0.4653013348579407,-0.6738669276237488,-9.863607406616211
1745659993.2927904,0.01898440159857273,-0.017796823754906654,-0.2810252010822296,0.2890523374080658,-0.6410695910453796,-9.710561752319336
1745659993.2965088,0.021567801013588905,-0.014011016115546227,-0.2780286371707916,0.4808253347873688,-0.8939821124076843,-9.680449485778809
1745659993.3322506,0.01909608580172062,-0.023001879453659058,-0.278036892414093,0.30227240920066833,-0.6604738831520081,-9.869251251220703
1745659993.3349502,0.02202351577579975,-0.014647506177425385,-0.27693819999694824,0.43897977471351624,-0.8189029693603516,-9.834695816040039
1745659993.3378367,0.009490085765719414,-0.018020963296294212,-0.2780373990535736,0.3721228837966919,-0.6799023151397705,-9.599843978881836
1745659993.3407924,0.021741503849625587,-0.01725718379020691,-0.2802314758300781,0.391549289226532,-0.7788676023483276,-9.703888893127441
1745659993.343584,0.004334148019552231,-0.020704984664916992,-0.27827000617980957,0.5730898976325989,-0.6930760145187378,-9.801065444946289
1745659993.376201,0.00680891890078783,-0.018807116895914078,-0.2810606360435486,0.3118330240249634,-0.7895601987838745,-10.038820266723633
1745659993.3782427,0.007031203713268042,-0.01658976636826992,-0.2788057327270508,0.47205567359924316,-0.9275764226913452,-9.694960594177246
1745659993.3810594,0.005758905317634344,-0.023426316678524017,-0.2777392268180847,0.2769237160682678,-0.5756101608276367,-9.503450393676758
1745659993.3849645,0.01008843444287777,-0.01654384657740593,-0.2770344913005829,0.46508947014808655,-0.8659358024597168,-9.762593269348145
1745659993.4185383,0.01564222201704979,-0.020636331290006638,-0.2779037356376648,0.3978061079978943,-0.4335758686065674,-9.882895469665527
1745659993.4195924,0.02275818958878517,-0.014818096533417702,-0.2778705656528473,0.3859265446662903,-0.7984864711761475,-9.783432006835938
1745659993.4229038,0.016730686649680138,-0.022108132019639015,-0.27668893337249756,0.4164400100708008,-0.676573634147644,-9.58500862121582
1745659993.4242814,0.0226173996925354,-0.01897609233856201,-0.27691709995269775,0.317660391330719,-0.8110079765319824,-9.86410140991211
1745659993.4256158,0.011757122352719307,-0.01882881671190262,-0.2764837145805359,0.4687468409538269,-0.801245391368866,-9.88368034362793
1745659993.4631407,0.008498622104525566,-0.019526109099388123,-0.2774147689342499,0.32266470789909363,-0.7068282961845398,-9.748075485229492
1745659993.4702752,0.012862356379628181,-0.018637198954820633,-0.2803417146205902,0.4945911467075348,-0.8439555168151855,-9.558560371398926
1745659993.4703472,0.0061420174315571785,-0.023832309991121292,-0.27737516164779663,0.3899540901184082,-0.5592145323753357,-9.684877395629883
1745659993.471721,0.0016162663232535124,-0.01841357909142971,-0.279563844203949,0.501619279384613,-0.8810027241706848,-9.991755485534668
1745659993.508291,0.011016640812158585,-0.020981822162866592,-0.27892789244651794,0.414340078830719,-0.6713944673538208,-9.7966890335083
1745659993.5109243,0.02290314994752407,-0.023934360593557358,-0.27706974744796753,0.2554851174354553,-0.5646093487739563,-9.911840438842773
1745659993.5134912,0.02118457853794098,-0.017291361466050148,-0.27657872438430786,0.5107839107513428,-0.7432346940040588,-9.768179893493652
1745659993.5140846,0.016901107504963875,-0.02424621395766735,-0.27663469314575195,0.31844499707221985,-0.6997126340866089,-9.63226318359375
1745659993.5511336,0.023635948076844215,-0.020003097131848335,-0.278617799282074,0.439461886882782,-0.9452992677688599,-9.765867233276367
1745659993.5552893,0.005768841598182917,-0.024597903713583946,-0.27748793363571167,0.49249759316444397,-0.699721097946167,-9.761502265930176
1745659993.559177,0.005041021853685379,-0.018138529732823372,-0.2779202163219452,0.3449643850326538,-0.8996371030807495,-9.910775184631348
1745659993.5592399,0.005538923665881157,-0.022701546549797058,-0.27642279863357544,0.5227246880531311,-0.8300704956054688,-9.678359985351562
1745659993.5912435,0.007631972432136536,-0.02336624450981617,-0.27596768736839294,0.25116461515426636,-0.5501235723495483,-9.634523391723633
1745659993.5924907,0.005409246310591698,-0.018363866955041885,-0.2764979600906372,0.4783220887184143,-0.8585481643676758,-9.761415481567383
1745659993.5964377,0.016437167301774025,-0.021013734862208366,-0.27755504846572876,0.2826175093650818,-0.3838950991630554,-9.785615921020508
1745659993.5987985,0.016690006479620934,-0.015846531838178635,-0.28014612197875977,0.4473901391029358,-0.8667281866073608,-9.766501426696777
1745659993.6007524,0.01915186457335949,-0.022648559883236885,-0.2758740782737732,0.3746460974216461,-0.5840873718261719,-9.68761157989502
1745659993.635254,0.025315985083580017,-0.020280957221984863,-0.27811217308044434,0.3722922205924988,-0.8347620964050293,-9.840723037719727
1745659993.6401017,0.015325051732361317,-0.016929399222135544,-0.27589014172554016,0.4530734419822693,-0.8947593569755554,-9.97217845916748
1745659993.6418579,0.014506375417113304,-0.015645094215869904,-0.2745347023010254,0.3120534121990204,-0.5124465227127075,-9.663945198059082
1745659993.6440575,0.0035925288684666157,-0.015303993597626686,-0.2769511342048645,0.4404319226741791,-0.8522764444351196,-9.647113800048828
1745659993.6749876,0.013049597851932049,-0.0209943987429142,-0.2792217433452606,0.4894728660583496,-0.6427021026611328,-9.8284273147583
1745659993.6810489,0.00981615949422121,-0.015770122408866882,-0.28166595101356506,0.38309523463249207,-0.7481301426887512,-9.93494987487793
1745659993.6845527,0.004745780490338802,-0.01910736784338951,-0.2784516215324402,0.49761372804641724,-0.8796120882034302,-9.676790237426758
1745659993.6858997,0.011654306203126907,-0.011749698780477047,-0.27773648500442505,0.233149453997612,-0.6110783815383911,-9.557904243469238
1745659993.6889896,0.0013604395790025592,-0.01910136640071869,-0.2773650586605072,0.5414520502090454,-0.8492103815078735,-9.71001148223877
1745659993.7199092,0.013735642656683922,-0.01695062965154648,-0.2766295075416565,0.3069777488708496,-0.5102409720420837,-9.987597465515137
1745659993.7216578,0.01386889535933733,-0.0147346006706357,-0.27759256958961487,0.46113651990890503,-0.8437736630439758,-9.879209518432617
1745659993.7233956,0.011093726381659508,-0.021914785727858543,-0.2788434326648712,0.30768901109695435,-0.5565605163574219,-9.571688652038574
1745659993.7256734,0.010768437758088112,-0.0133195910602808,-0.2803317904472351,0.31583550572395325,-0.8589513897895813,-9.69324779510498
1745659993.7620966,0.011278131976723671,-0.019372375681996346,-0.2796493172645569,0.4561542868614197,-0.7252711057662964,-9.75546646118164
1745659993.7651968,0.013370531611144543,-0.013506866991519928,-0.2790454924106598,0.26888927817344666,-0.7223130464553833,-9.781501770019531
1745659993.7673278,-0.003616723697632551,-0.015156080946326256,-0.2791934609413147,0.607676088809967,-0.8460881114006042,-9.643272399902344
1745659993.7689655,0.012387661263346672,-0.017849527299404144,-0.2788916528224945,0.2898089289665222,-0.6159695982933044,-9.746957778930664
1745659993.8070822,-0.0031949314288794994,-0.015605645254254341,-0.2786669135093689,0.5207507610321045,-0.8682349324226379,-9.902952194213867
1745659993.8083024,0.010666221380233765,-0.01803537644445896,-0.2779011130332947,0.3454262614250183,-0.5785431861877441,-9.810792922973633
1745659993.8098478,0.009349814616143703,-0.013194769620895386,-0.27855345606803894,0.27235618233680725,-0.7450016736984253,-9.698314666748047
1745659993.8146338,0.011816978454589844,-0.01911323145031929,-0.2788463234901428,0.4760497212409973,-0.5898152589797974,-9.507227897644043
1745659993.8520274,0.012874891981482506,-0.014203106984496117,-0.2778371274471283,0.2952558696269989,-0.7310104966163635,-9.857145309448242
1745659993.8521376,0.016205251216888428,-0.017919722944498062,-0.27773362398147583,0.4941116273403168,-0.7868235111236572,-9.883127212524414
1745659993.8543444,0.012066885828971863,-0.019163284450769424,-0.2785823941230774,0.41043299436569214,-0.7817930579185486,-9.6347074508667
1745659993.8562016,0.014297929592430592,-0.010020721703767776,-0.27804094552993774,0.2374676764011383,-0.6452687978744507,-9.54969596862793
1745659993.8910089,0.005698260385543108,-0.01863514631986618,-0.2786930501461029,0.5529207587242126,-0.8308597803115845,-9.695791244506836
1745659993.8952456,0.019064469262957573,-0.014933893457055092,-0.27868157625198364,0.31082120537757874,-0.5579871535301208,-10.002179145812988
1745659993.8987243,0.011187717318534851,-0.015276667661964893,-0.2788185477256775,0.49080348014831543,-0.903553307056427,-9.877481460571289
1745659993.9020042,0.0130472332239151,-0.021398289129137993,-0.27625399827957153,0.2811073660850525,-0.6109961867332458,-9.589780807495117
1745659993.9075282,0.0032053247559815645,-0.01475597359240055,-0.27749010920524597,0.3822244107723236,-0.9296135902404785,-9.689538955688477
1745659993.93619,0.01077463198453188,-0.021839264780282974,-0.278300940990448,0.46026507019996643,-0.6808114051818848,-9.7306489944458
1745659993.9403381,0.016956644132733345,-0.00940918829292059,-0.2767867147922516,0.3199809193611145,-0.6592406630516052,-9.81376838684082
1745659993.940457,-0.001855217618867755,-0.02039841189980507,-0.2768508791923523,0.5694714188575745,-0.7348974347114563,-9.656177520751953
1745659993.9418492,0.025563832372426987,-0.016977235674858093,-0.2765699028968811,0.28738856315612793,-0.5845366716384888,-9.750612258911133
1745659993.980905,0.004197240807116032,-0.018826812505722046,-0.2792310118675232,0.4962901473045349,-0.8165014982223511,-9.866939544677734
1745659993.98179,0.022449856624007225,-0.016369294375181198,-0.27881255745887756,0.3069498538970947,-0.5682308077812195,-9.760790824890137
1745659993.984637,0.024960141628980637,-0.016362566500902176,-0.2755136489868164,0.271170049905777,-0.6936615109443665,-9.75694465637207
1745659993.9866126,0.013341319747269154,-0.026972612366080284,-0.2764573395252228,0.5391620397567749,-0.8359190821647644,-9.689175605773926
1745659994.020816,0.016410918906331062,-0.02411806583404541,-0.2758748531341553,0.31628912687301636,-0.6313076615333557,-9.79023551940918
1745659994.0279746,0.0038766004145145416,-0.02152847871184349,-0.2766253352165222,0.4966316223144531,-0.9610048532485962,-9.83686637878418
1745659994.0280237,0.013752073049545288,-0.023346494883298874,-0.27518677711486816,0.3376409113407135,-0.6736512780189514,-9.6219482421875
1745659994.0328023,0.00019110087305307388,-0.01622111164033413,-0.27553826570510864,0.3545108437538147,-0.8185474276542664,-9.687641143798828
1745659994.0646684,-0.0009846517350524664,-0.02359655871987343,-0.2753640115261078,0.4376007914543152,-0.6641422510147095,-9.754545211791992
1745659994.070414,0.015272758901119232,-0.013729947619140148,-0.2763442397117615,0.2614729106426239,-0.6018158793449402,-9.831307411193848
1745659994.072656,0.0031756858807057142,-0.024054575711488724,-0.27891188859939575,0.48496389389038086,-0.7154263257980347,-9.713205337524414
1745659994.0758073,0.022007610648870468,-0.015480336733162403,-0.2787949740886688,0.2788601517677307,-0.5601215362548828,-9.753246307373047
1745659994.0791624,0.005701856222003698,-0.02119285985827446,-0.2774046063423157,0.4467378556728363,-0.8730605244636536,-9.776204109191895
1745659994.1087189,0.014964453876018524,-0.02156764641404152,-0.2772060036659241,0.38776373863220215,-0.70645672082901,-9.756471633911133
1745659994.11166,0.0027224700897932053,-0.015496896579861641,-0.27414336800575256,0.4176521897315979,-0.9565247297286987,-9.815752029418945
1745659994.114012,0.0043871644884347916,-0.02368250861763954,-0.27480602264404297,0.3803930878639221,-0.6932699680328369,-9.737749099731445
1745659994.1177917,0.00296408380381763,-0.014052247628569603,-0.27520298957824707,0.35713374614715576,-0.6430792808532715,-9.716899871826172
1745659994.149769,-0.006991294212639332,-0.021670758724212646,-0.27909472584724426,0.42572373151779175,-0.7455316781997681,-9.737092971801758
1745659994.152659,0.015807727351784706,-0.016332412138581276,-0.2774004638195038,0.27583321928977966,-0.5867129564285278,-9.841371536254883
1745659994.1527276,-0.0026168706826865673,-0.01904747262597084,-0.2802315652370453,0.4432624876499176,-0.7502518892288208,-9.73758602142334
1745659994.1534495,0.013711854815483093,-0.01740034855902195,-0.2775755822658539,0.2933080792427063,-0.6934865713119507,-9.698023796081543
1745659994.1546683,0.0047543589025735855,-0.011597339995205402,-0.2756153643131256,0.3503924310207367,-0.7597638368606567,-9.708929061889648
1745659994.1935153,0.00922499317675829,-0.017352953553199768,-0.27642273902893066,0.4501778185367584,-0.6740816235542297,-9.742656707763672
1745659994.1972241,0.016198430210351944,-0.004890447948127985,-0.27348795533180237,0.36621370911598206,-0.6791065335273743,-9.831644058227539
1745659994.2008297,0.006623470224440098,-0.007903898134827614,-0.2769359052181244,0.45654812455177307,-0.7694262862205505,-9.72893238067627
1745659994.2467988,0.003577007446438074,-0.015535334125161171,-0.2784495949745178,0.4682155251502991,-0.6487786173820496,-9.918394088745117
1745659994.2469177,0.02005116082727909,-0.004422003403306007,-0.27678707242012024,0.3377472758293152,-0.7043973803520203,-9.89366340637207
1745659994.2469845,0.0031934052240103483,-0.015848854556679726,-0.2779366970062256,0.45164236426353455,-0.7747151851654053,-9.673311233520508
1745659994.2470326,0.02572939172387123,-0.004780904855579138,-0.2751842141151428,0.30642110109329224,-0.6660060286521912,-9.72068977355957
1745659994.2488341,0.008742610923945904,-0.013466542586684227,-0.27514487504959106,0.4749307632446289,-0.7830223441123962,-9.82185173034668
1745659994.2801533,0.02490728721022606,-0.01043081097304821,-0.2753756642341614,0.2948821187019348,-0.5675941109657288,-9.818994522094727
1745659994.2832937,0.012135458178818226,-0.006449457257986069,-0.2762097120285034,0.3919641971588135,-0.8365846872329712,-9.676042556762695
1745659994.2913399,0.01814277656376362,-0.01558578573167324,-0.27679887413978577,0.3492110073566437,-0.6373127698898315,-9.690896034240723
1745659994.2914093,0.0118693383410573,-0.003797997487708926,-0.27871173620224,0.3980606198310852,-0.757244884967804,-9.917500495910645
1745659994.3217142,-0.0025123306550085545,-0.013835370540618896,-0.27788981795310974,0.4229828715324402,-0.8547971844673157,-9.870534896850586
1745659994.3232012,0.01779012754559517,-0.006326845847070217,-0.2781120538711548,0.3507915139198303,-0.7688456177711487,-9.664053916931152
1745659994.3278444,-0.008624234236776829,-0.012576748616993427,-0.27818793058395386,0.5574939846992493,-0.7988542914390564,-9.581768989562988
1745659994.3311431,0.012443037703633308,-0.01015800517052412,-0.2757018506526947,0.3413976728916168,-0.7176533341407776,-9.878153800964355
1745659994.3328047,-0.0493595227599144,-0.08076591789722443,-0.15481194853782654,0.3243429362773895,-0.10502596199512482,-9.582364082336426
1745659994.3734138,-0.06700992584228516,-0.06735166907310486,-0.16322176158428192,-0.291393518447876,-0.502183735370636,-11.054998397827148
1745659994.3755896,-0.04699324071407318,-0.05217515304684639,-0.16134397685527802,-0.16232424974441528,-0.7006266117095947,-9.657341003417969
1745659994.3756506,-0.09555081278085709,-0.07681391388177872,-0.1547507792711258,0.02912624552845955,-1.0041601657867432,-8.578767776489258
1745659994.375682,-0.07748895138502121,-0.06342287361621857,-0.14675596356391907,-0.32912811636924744,-1.105102300643921,-9.948086738586426
1745659994.4081182,-0.10938358306884766,-0.03996436670422554,-0.1370544135570526,0.03580101579427719,-1.1115657091140747,-10.347234725952148
1745659994.4105723,-0.10553928464651108,-0.055425554513931274,-0.1283746212720871,0.5408855676651001,-0.5498741269111633,-9.322369575500488
1745659994.4115899,-0.09735136479139328,-0.05874515324831009,-0.12870943546295166,0.4446037709712982,-0.5575577616691589,-9.859624862670898
1745659994.4131925,-0.10283438861370087,-0.06556886434555054,-0.12328322976827621,0.03312475234270096,-0.4569072127342224,-10.492579460144043
1745659994.4154396,-0.10242126137018204,-0.046826425939798355,-0.123774453997612,-0.1349211484193802,-0.7043634057044983,-9.798830032348633
1745659994.451904,-0.10965798050165176,-0.05016394704580307,-0.11723668873310089,0.02818346582353115,-0.5347857475280762,-8.941720962524414
1745659994.4540365,-0.13217702507972717,-0.05410701781511307,-0.11467216163873672,0.07851219922304153,-0.4425524175167084,-9.751164436340332
1745659994.4551826,-0.11857879161834717,-0.05650854855775833,-0.11385715007781982,0.2454015016555786,-0.4186261296272278,-10.504205703735352
1745659994.456181,-0.1057770624756813,-0.03405672311782837,-0.11698458343744278,0.12112029641866684,0.08665740489959717,-9.769220352172852
1745659994.4955587,-0.1040603369474411,-0.04529771953821182,-0.10983644425868988,0.4769364297389984,-0.35222485661506653,-9.41489028930664
1745659994.499695,-0.047575484961271286,-0.07571922242641449,-0.10053239017724991,0.18333673477172852,-0.14672186970710754,-10.021021842956543
1745659994.5026767,-0.048624925315380096,-0.03847966715693474,-0.09625598043203354,-0.47720202803611755,-0.3230589032173157,-10.558836936950684
1745659994.505839,-0.04963318631052971,-0.05071906000375748,-0.08357147127389908,-0.3201073110103607,-0.8334654569625854,-9.190195083618164
1745659994.5374086,-0.03414028882980347,-0.0633944645524025,-0.07186377048492432,-1.0132997035980225,-0.4833480417728424,-9.247902870178223
1745659994.54075,-0.08300967514514923,-0.06059194356203079,-0.06818331778049469,-1.0105903148651123,-0.7947973608970642,-10.201025009155273
1745659994.5439734,-0.06963048130273819,-0.04780798777937889,-0.057794053107500076,-1.151782751083374,-0.8539765477180481,-10.284860610961914
1745659994.5496168,-0.1518210619688034,-0.05433149263262749,-0.0505676195025444,-0.6513836979866028,-1.2981808185577393,-9.34190559387207
1745659994.5825932,-0.17270883917808533,-0.0788014605641365,0.006620843894779682,-1.1417690515518188,-0.16595333814620972,-10.407493591308594
1745659994.5904024,-0.1643601357936859,-0.04024847596883774,0.00471090991050005,-0.534450113773346,0.47253528237342834,-8.938398361206055
1745659994.5904424,-0.1432240903377533,-0.0799153670668602,-0.01643943227827549,-0.18669933080673218,1.3478225469589233,-8.737651824951172
1745659994.592857,-0.042822472751140594,-0.03237108513712883,-0.046438802033662796,-0.49844565987586975,1.438312292098999,-11.164258003234863
1745659994.596499,-0.002653923351317644,-0.07103321701288223,-0.07101452350616455,2.4012222290039062,0.5414940118789673,-8.980428695678711
1745659994.6272357,0.010101579129695892,0.00038279444561339915,-0.05809782072901726,-0.49984869360923767,-0.8039262890815735,-11.012007713317871
1745659994.6284246,-0.061363138258457184,-0.14918498694896698,-0.02968314290046692,0.7114337682723999,-2.2837345600128174,-8.719998359680176
1745659994.6327212,-0.009672182612121105,0.07373030483722687,-0.006586363073438406,0.007921171374619007,-1.5231285095214844,-9.836724281311035
1745659994.6399426,-0.14840489625930786,-0.07784722000360489,0.008522098883986473,-0.573874294757843,-0.6372696161270142,-10.273099899291992
1745659994.6646845,-0.04647569730877876,-0.07358429580926895,-0.010442020371556282,1.28834867477417,-0.2569480836391449,-8.57744026184082
1745659994.6675253,-0.08631360530853271,0.09324300289154053,-0.05630580708384514,-1.676855444908142,2.5704894065856934,-11.144652366638184
1745659994.671316,-0.16151142120361328,-0.16455917060375214,-0.09220567345619202,1.8593326807022095,-1.8367897272109985,-8.79900074005127
1745659994.674814,0.03296028450131416,0.07212460041046143,-0.07862452417612076,-0.7636075019836426,0.5169559717178345,-10.704742431640625
1745659994.679013,-0.32396963238716125,-0.02901805378496647,-0.0899139866232872,0.37965521216392517,-1.2264858484268188,-10.035565376281738
1745659994.7090282,0.060952622443437576,0.08132307231426239,-0.18822354078292847,0.5397594571113586,-0.33117911219596863,-10.330888748168945
1745659994.7119966,0.01070922240614891,0.0922679752111435,-0.19158276915550232,0.30255186557769775,-0.6222366690635681,-10.355279922485352
1745659994.7130146,0.03714850917458534,0.0829109326004982,-0.19905416667461395,0.2010168582201004,-0.01670333743095398,-8.7824068069458
1745659994.7156157,0.021910592913627625,0.08807557821273804,-0.2099730670452118,0.12384910881519318,0.12757372856140137,-9.067422866821289
1745659994.7554436,0.03218374401330948,0.06824343651533127,-0.2176356315612793,0.4876895844936371,-0.12308719009160995,-10.39431381225586
1745659994.7587156,0.060593925416469574,0.10023313760757446,-0.22027786076068878,0.6170409917831421,-0.08268433064222336,-10.458173751831055
1745659994.7625096,0.058484822511672974,0.06637070327997208,-0.21428433060646057,0.7523951530456543,-0.6743983030319214,-9.455770492553711
1745659994.7632494,0.08321216702461243,0.0739244595170021,-0.2076931893825531,0.5771518349647522,-0.39596277475357056,-9.249509811401367
1745659994.7965798,0.0481940321624279,0.07621841132640839,-0.19937977194786072,0.7879050374031067,-0.7445482015609741,-10.019112586975098
1745659994.8010838,0.09264077246189117,0.06703684478998184,-0.20223712921142578,0.6336405873298645,-0.06177201122045517,-9.817922592163086
1745659994.8018105,0.06242100149393082,0.07636109739542007,-0.2088056057691574,0.41111284494400024,-0.20677945017814636,-9.457444190979004
1745659994.804681,0.06922300159931183,0.05430394411087036,-0.218027263879776,0.40677589178085327,0.06687659025192261,-9.492807388305664
1745659994.8413785,0.07667133212089539,0.07968775182962418,-0.23079267144203186,0.3055989146232605,-0.1238449364900589,-9.933891296386719
1745659994.8415039,0.062145449221134186,0.05605976656079292,-0.23294250667095184,0.575623095035553,-0.43736153841018677,-9.805915832519531
1745659994.843076,0.07700587064027786,0.0661744624376297,-0.23518326878547668,0.5440959930419922,-0.4479833245277405,-9.487432479858398
1745659994.8490808,0.05279620736837387,0.06445305794477463,-0.22755751013755798,0.6462599039077759,-0.8127185106277466,-9.542863845825195
1745659994.8497095,0.07693574577569962,0.06254679709672928,-0.222344309091568,0.6275054216384888,-0.43877124786376953,-9.58442211151123
1745659994.881487,0.05752386897802353,0.06372939050197601,-0.21964573860168457,0.7679631114006042,-0.6253802180290222,-9.770000457763672
1745659994.8827472,0.07917268574237823,0.04791685938835144,-0.2194449007511139,0.6173672080039978,-0.26549288630485535,-9.8800630569458
1745659994.8854961,0.08941558748483658,0.0607052743434906,-0.2268395870923996,0.34626227617263794,-0.09650744497776031,-9.841474533081055
1745659994.8885596,0.07296071201562881,0.04707099124789238,-0.22929641604423523,0.35501018166542053,-0.30912870168685913,-9.486970901489258
1745659994.9244285,0.06804914772510529,0.020358219742774963,-0.23423929512500763,0.5745957493782043,-0.34647178649902344,-9.862070083618164
1745659994.926051,0.08490027487277985,0.03165879100561142,-0.2380358874797821,0.26217231154441833,-0.07564384490251541,-9.263420104980469
1745659994.9311507,0.06582331657409668,0.012094571255147457,-0.2398335486650467,0.43628963828086853,-0.3870829641819,-9.322315216064453
1745659994.9352121,0.1020783931016922,0.015693292021751404,-0.2440222054719925,0.45413175225257874,-0.15824203193187714,-9.861721992492676
1745659994.9674852,0.07852733135223389,0.028205182403326035,-0.24786047637462616,0.49683552980422974,-0.4534655213356018,-10.014596939086914
1745659994.9679546,0.09085120260715485,0.009553618729114532,-0.2498958557844162,0.5716356039047241,-0.5724636316299438,-9.494364738464355
1745659994.9699357,0.08371575176715851,0.018168319016695023,-0.24854567646980286,0.7568028569221497,-0.658265233039856,-9.378946304321289
1745659994.9717145,0.056678541004657745,0.003630963619798422,-0.24568721652030945,0.7731087803840637,-0.7769148349761963,-9.987325668334961
1745659994.9741707,0.07056338340044022,0.012563899159431458,-0.24561269581317902,0.5752592086791992,-0.6472452282905579,-9.9887113571167
1745659995.0115457,0.043773919343948364,0.003948320634663105,-0.2449541985988617,0.644778847694397,-0.7009854912757874,-9.281920433044434
1745659995.0123148,0.05713452026247978,0.0036733150482177734,-0.2424248903989792,0.4428897500038147,-0.2696545124053955,-9.381302833557129
1745659995.0136383,0.039485178887844086,-0.0018711608136072755,-0.24966943264007568,0.5208233594894409,-0.5328633189201355,-10.144037246704102
1745659995.0162706,0.07700963318347931,-0.003384560812264681,-0.24997596442699432,0.4514879584312439,-0.12460774183273315,-9.965707778930664
1745659995.0549095,0.060250163078308105,0.0057213506661355495,-0.25454679131507874,0.46268826723098755,-0.3683876693248749,-9.437409400939941
1745659995.0591285,0.025946754962205887,-0.03588219732046127,-0.26538100838661194,0.4267956614494324,-0.7941651940345764,-9.665507316589355
1745659995.0607657,0.026034686714410782,-0.04509672895073891,-0.2644226849079132,0.5219277739524841,-0.6657506227493286,-9.862695693969727
1745659995.0643609,0.032300591468811035,-0.034071363508701324,-0.2637621760368347,0.41881972551345825,-0.42993420362472534,-9.90185832977295
1745659995.0990047,0.02205941081047058,-0.03743930533528328,-0.2672962546348572,0.5033729076385498,-0.5490792989730835,-9.783259391784668
1745659995.1008415,0.04563295096158981,-0.04026496037840843,-0.2650972604751587,0.3457419276237488,-0.4247395098209381,-9.721086502075195
1745659995.1020029,0.03774557635188103,-0.03633386269211769,-0.2696722745895386,0.46809712052345276,-0.5312411785125732,-9.79662799835205
1745659995.1067135,0.04569238796830177,-0.04088985547423363,-0.26805227994918823,0.4063796103000641,-0.5654536485671997,-9.902824401855469
1745659995.1417186,0.05010691285133362,-0.03075309470295906,-0.268032431602478,0.4145735800266266,-0.5855591893196106,-9.785591125488281
1745659995.1418312,0.033544741570949554,-0.04168416187167168,-0.2672794759273529,0.559744656085968,-0.7329793572425842,-9.713346481323242
1745659995.1462383,0.046324752271175385,-0.03312548249959946,-0.2667604982852936,0.44403934478759766,-0.613267183303833,-9.910090446472168
1745659995.146289,0.02670971490442753,-0.03988002985715866,-0.26858219504356384,0.6310417652130127,-0.7654315829277039,-9.957382202148438
1745659995.1478028,0.032483749091625214,-0.042658332735300064,-0.2697066366672516,0.3964769244194031,-0.5520668625831604,-9.846595764160156
1745659995.1835856,0.01066423300653696,-0.0368143692612648,-0.27023476362228394,0.48606976866722107,-0.8383010029792786,-9.752955436706543
1745659995.1877403,0.01966775767505169,-0.042919863015413284,-0.26917505264282227,0.3579408526420593,-0.5607322454452515,-9.715204238891602
1745659995.1918914,0.019817858934402466,-0.029517224058508873,-0.26832520961761475,0.38002127408981323,-0.6076599359512329,-9.818288803100586
1745659995.1988153,0.009518856182694435,-0.03876713663339615,-0.27115246653556824,0.5048268437385559,-0.5351439714431763,-9.819353103637695
1745659995.2262287,0.03703182935714722,-0.030467456206679344,-0.27064424753189087,0.34624117612838745,-0.45323315262794495,-9.77943229675293
1745659995.228112,0.021470027044415474,-0.035450782626867294,-0.2698360085487366,0.535880446434021,-0.5880357027053833,-9.836390495300293
1745659995.2293563,0.048831187188625336,-0.03253381699323654,-0.2711055278778076,0.32354840636253357,-0.44234704971313477,-9.887056350708008
1745659995.2321522,0.028842926025390625,-0.029902111738920212,-0.26842984557151794,0.4602275788784027,-0.7167832255363464,-9.749895095825195
1745659995.2346945,0.03752613067626953,-0.03379303961992264,-0.27047276496887207,0.43041929602622986,-0.5587027668952942,-9.666015625
1745659995.2740276,0.025347739458084106,-0.026181017979979515,-0.2704170346260071,0.4604790210723877,-0.7888582348823547,-9.882195472717285
1745659995.2786145,0.027600472792983055,-0.01977001130580902,-0.2707732319831848,0.38341063261032104,-0.5751153230667114,-9.674825668334961
1745659995.2823815,0.029112285003066063,-0.02980797551572323,-0.27239519357681274,0.5168012380599976,-0.6288297772407532,-9.85501480102539
1745659995.2857516,0.039589326828718185,-0.0178967472165823,-0.26967138051986694,0.37406373023986816,-0.5828328132629395,-10.022053718566895
1745659995.3225296,0.023693203926086426,-0.02839788794517517,-0.27326110005378723,0.5232125520706177,-0.7437003254890442,-9.83629322052002
1745659995.3226275,0.027902960777282715,-0.024994900450110435,-0.27297675609588623,0.3396572470664978,-0.5882096290588379,-9.630752563476562
1745659995.3226767,0.003967503551393747,-0.023994704708456993,-0.273233562707901,0.5078323483467102,-0.8461136817932129,-9.738381385803223
1745659995.3227088,0.013669721782207489,-0.026441430673003197,-0.27493804693222046,0.4299188554286957,-0.5826359987258911,-9.853854179382324
1745659995.3235095,0.00732069555670023,-0.013370315544307232,-0.27608075737953186,0.46810755133628845,-0.6940141320228577,-9.83166790008545
1745659995.3547125,-0.005430141929537058,-0.02468380704522133,-0.27553361654281616,0.45121341943740845,-0.6142169237136841,-9.748678207397461
1745659995.3585536,0.02011900767683983,-0.014646889641880989,-0.2749621272087097,0.35245975852012634,-0.5930182933807373,-9.763479232788086
1745659995.361548,0.005068133119493723,-0.023392057046294212,-0.27508923411369324,0.5038817524909973,-0.5544639229774475,-9.859110832214355
1745659995.3695307,0.031838905066251755,-0.016032839193940163,-0.27473658323287964,0.326935350894928,-0.4599526524543762,-9.859406471252441
1745659995.3992124,0.01408914290368557,-0.015133237466216087,-0.2735044062137604,0.46074575185775757,-0.6519430875778198,-9.666434288024902
1745659995.3992896,0.02748556062579155,-0.018376240506768227,-0.2740292549133301,0.34527748823165894,-0.5048376321792603,-9.691648483276367
1745659995.4027412,0.01930518075823784,-0.017937680706381798,-0.285207062959671,0.4488426744937897,-0.5702337026596069,-9.684822082519531
1745659995.4028144,0.022021649405360222,-0.008618252351880074,-0.2833089530467987,0.3712528645992279,-0.6075796484947205,-9.711140632629395
1745659995.4431102,0.023770790547132492,-0.022050851956009865,-0.28077003359794617,0.551939845085144,-0.5792520046234131,-9.741865158081055
1745659995.4474764,0.026297826319932938,-0.011830827221274376,-0.2809368669986725,0.37119683623313904,-0.5716325044631958,-9.825113296508789
1745659995.4493403,0.020248958840966225,-0.017052311450242996,-0.28207749128341675,0.5556844472885132,-0.757286787033081,-9.68527889251709
1745659995.4520507,0.03477812558412552,-0.016315052285790443,-0.28240710496902466,0.3708556890487671,-0.44923287630081177,-9.583902359008789
1745659995.48828,0.016805782914161682,-0.01154671423137188,-0.2833276689052582,0.46538877487182617,-0.7135568261146545,-9.725006103515625
1745659995.4942942,0.02221631444990635,-0.01873820647597313,-0.2827361822128296,0.47531190514564514,-0.5912190675735474,-9.832730293273926
1745659995.498047,0.025521893054246902,-0.011162348091602325,-0.2879956364631653,0.4133670926094055,-0.6198917627334595,-9.767919540405273
1745659995.5026603,0.012278293259441853,-0.021915292367339134,-0.28362712264060974,0.4909982681274414,-0.6783190965652466,-9.670989990234375
1745659995.503892,0.031042728573083878,-0.011768506839871407,-0.2869143784046173,0.36441555619239807,-0.564332127571106,-9.702237129211426
1745659995.5342405,0.008017118088901043,-0.021047789603471756,-0.2847289443016052,0.5608502626419067,-0.7454860806465149,-9.72779655456543
1745659995.534282,0.026442795991897583,-0.01731700822710991,-0.28387516736984253,0.4037233293056488,-0.5557238459587097,-9.762750625610352
1745659995.5362642,0.013419141992926598,-0.015748029574751854,-0.2848622500896454,0.510682225227356,-0.803573489189148,-9.785309791564941
1745659995.5401883,0.02636990323662758,-0.024387750774621964,-0.2809796631336212,0.36432981491088867,-0.4875389039516449,-9.733785629272461
1745659995.5812526,0.01779559999704361,-0.012381235137581825,-0.2831896245479584,0.427211195230484,-0.5839256048202515,-9.698919296264648
1745659995.5813437,0.019077958539128304,-0.02494533732533455,-0.2862562835216522,0.46658602356910706,-0.5682612657546997,-9.708398818969727
1745659995.5814002,0.03373431786894798,-0.015936963260173798,-0.2838957905769348,0.3650229871273041,-0.5041996240615845,-9.768301963806152
1745659995.581447,0.014970083720982075,-0.023891743272542953,-0.28735074400901794,0.5865438580513,-0.6547714471817017,-9.738344192504883
1745659995.582917,0.03541247174143791,-0.019191615283489227,-0.28521424531936646,0.3991542458534241,-0.6067845225334167,-9.714694023132324
1745659995.6160123,0.016439566388726234,-0.0191739983856678,-0.2843070328235626,0.49526143074035645,-0.7152934670448303,-9.709382057189941
1745659995.6186526,0.01608421467244625,-0.026127582415938377,-0.2850830852985382,0.47982510924339294,-0.6448140144348145,-9.80622386932373
1745659995.6201134,0.01492348127067089,-0.018499834463000298,-0.2871004343032837,0.4705909788608551,-0.7051910758018494,-9.856832504272461
1745659995.6608891,0.008890585973858833,-0.026892656460404396,-0.2850082814693451,0.4488433003425598,-0.6562524437904358,-9.683371543884277
1745659995.668638,0.019675206393003464,-0.018312284722924232,-0.28690579533576965,0.41270509362220764,-0.6031686067581177,-9.703920364379883
1745659995.6687713,-0.00040947218076325953,-0.028309011831879616,-0.28574761748313904,0.478081613779068,-0.7107387781143188,-9.786345481872559
1745659995.6688585,0.019032491371035576,-0.021914411336183548,-0.28479763865470886,0.2931593358516693,-0.4884018898010254,-9.84798526763916
1745659995.673558,0.004920833744108677,-0.022199641913175583,-0.2848670482635498,0.5122130513191223,-0.7459186315536499,-9.70884895324707
1745659995.7002788,0.02118789404630661,-0.028731539845466614,-0.2867371439933777,0.3448607921600342,-0.46067771315574646,-9.708165168762207
1745659995.702609,0.0052256230264902115,-0.021261272951960564,-0.2849687337875366,0.45084911584854126,-0.6618943214416504,-9.818011283874512
1745659995.7055717,0.01499948836863041,-0.029682859778404236,-0.2868186831474304,0.4371640086174011,-0.6118642091751099,-9.77824592590332
1745659995.7080638,0.026753386482596397,-0.018710603937506676,-0.2876153588294983,0.33258312940597534,-0.6159518957138062,-9.64997673034668
1745659995.7460139,0.0047643170692026615,-0.027397850528359413,-0.2869548201560974,0.5655491352081299,-0.6550312042236328,-9.701225280761719
1745659995.746138,0.027751514688134193,-0.01905130222439766,-0.28611254692077637,0.33796945214271545,-0.5868673324584961,-9.816287994384766
1745659995.7472422,0.010354089550673962,-0.021056532859802246,-0.2864230275154114,0.48631158471107483,-0.6533169150352478,-9.752029418945312
1745659995.7501574,0.02539820969104767,-0.02317296713590622,-0.288635790348053,0.35665833950042725,-0.5884040594100952,-9.731396675109863
1745659995.7525148,0.03481738269329071,-0.016667086631059647,-0.2839570641517639,0.3545580804347992,-0.5677223801612854,-9.896615982055664
1745659995.7857995,0.025998275727033615,-0.012602615170180798,-0.2862536311149597,0.4546375870704651,-0.6154634356498718,-9.840001106262207
1745659995.7882783,0.02758857049047947,-0.021637599915266037,-0.2864779829978943,0.36338141560554504,-0.6151911616325378,-9.670297622680664
1745659995.7914221,0.03158663958311081,-0.007553762290626764,-0.2866544723510742,0.3871142268180847,-0.6099203824996948,-9.667608261108398
1745659995.7941754,0.020059969276189804,-0.02030477486550808,-0.2855983078479767,0.49240297079086304,-0.7217251062393188,-9.811288833618164
1745659995.8272357,0.037077173590660095,-0.006896461360156536,-0.2870487570762634,0.3357199728488922,-0.6475681662559509,-9.933905601501465
1745659995.8291109,0.01794707216322422,-0.017811736091971397,-0.28304991126060486,0.5436834692955017,-0.8548976182937622,-9.801839828491211
1745659995.8300843,0.029350927099585533,-0.016243327409029007,-0.2837876081466675,0.3026372790336609,-0.5935549736022949,-9.785247802734375
1745659995.832519,0.011736014857888222,-0.010689331218600273,-0.28142210841178894,0.43589672446250916,-0.7851906418800354,-9.774190902709961
1745659995.8340719,0.027551332488656044,-0.017177477478981018,-0.2848942279815674,0.3155829608440399,-0.5201163291931152,-9.700840950012207
1745659995.8754435,0.028796058148145676,-0.0070601836778223515,-0.2830111086368561,0.3771786689758301,-0.6499889492988586,-9.692070007324219
1745659995.8799524,0.017791766673326492,-0.019360002130270004,-0.28497129678726196,0.5199142098426819,-0.6051371693611145,-9.800551414489746
1745659995.8817804,0.04075207561254501,-0.005973210092633963,-0.28401631116867065,0.31329602003097534,-0.6186370849609375,-9.854757308959961
1745659995.8854544,0.018913578242063522,-0.012380493804812431,-0.28365686535835266,0.4922904372215271,-0.7174273729324341,-9.70390796661377
1745659995.9151013,0.03510171175003052,-0.011302751488983631,-0.2846401333808899,0.34468501806259155,-0.6428133249282837,-9.751208305358887
1745659995.9177866,0.017976265400648117,-0.0093600545078516,-0.28222042322158813,0.4729057848453522,-0.7360869646072388,-9.923077583312988
1745659995.9212563,0.02811354026198387,-0.016138587146997452,-0.28081923723220825,0.37028586864471436,-0.5898799300193787,-9.788979530334473
1745659995.9230928,0.020258383825421333,-0.005784389562904835,-0.28418490290641785,0.40031561255455017,-0.7622690200805664,-9.603981971740723
1745659995.955206,0.019299061968922615,-0.015274504199624062,-0.28140461444854736,0.4091784358024597,-0.6310475468635559,-9.71540641784668
1745659995.95898,0.027838919311761856,-0.006688316818326712,-0.2846662402153015,0.35359251499176025,-0.5772849321365356,-9.869688034057617
1745659995.960092,0.014322241768240929,-0.011217904277145863,-0.28196877241134644,0.4923272728919983,-0.690077543258667,-9.891345024108887
1745659995.9636416,0.0007204528665170074,-0.008673835545778275,-0.28205934166908264,0.4919411540031433,-0.8489980697631836,-9.682974815368652
1745659996.001827,0.018918123096227646,-0.015280105173587799,-0.28075721859931946,0.3564489781856537,-0.581699550151825,-9.751312255859375
1745659996.001921,0.01921015977859497,-0.006832474377006292,-0.28042536973953247,0.4034980237483978,-0.731180727481842,-9.845968246459961
1745659996.0050728,0.007868031039834023,-0.01062776893377304,-0.28184425830841064,0.4122673571109772,-0.602150022983551,-9.735708236694336
1745659996.0100656,0.028385231271386147,-0.0038290307857096195,-0.28254303336143494,0.31273433566093445,-0.6562007069587708,-9.675976753234863
1745659996.0132556,0.012862411327660084,-0.013767759315669537,-0.28047582507133484,0.4861701428890228,-0.6279450058937073,-9.803475379943848
1745659996.0460517,0.03609587252140045,-0.004457214847207069,-0.2817290723323822,0.3377927243709564,-0.6138866543769836,-9.9338960647583
1745659996.0498948,0.019155463203787804,-0.010270562954246998,-0.2817419469356537,0.49896401166915894,-0.7542338371276855,-9.764711380004883
1745659996.0544934,0.026818012818694115,-0.01293114386498928,-0.28105634450912476,0.33689168095588684,-0.6120463013648987,-9.623849868774414
1745659996.059097,0.012151060625910759,-0.005376648157835007,-0.281813383102417,0.42344599962234497,-0.8482875823974609,-9.731428146362305
1745659996.0873036,0.01680000312626362,-0.012240867130458355,-0.2808457314968109,0.39993926882743835,-0.6537923812866211,-9.817793846130371
1745659996.0873392,0.018598604947328568,-0.004477124661207199,-0.2806447446346283,0.4255269467830658,-0.6813111901283264,-9.744672775268555
1745659996.0904875,0.006554069928824902,-0.012845426797866821,-0.27918997406959534,0.48057740926742554,-0.624631941318512,-9.779260635375977
1745659996.092838,0.02711399272084236,-0.005688024219125509,-0.2822484076023102,0.2848147451877594,-0.6639000177383423,-9.875431060791016
1745659996.0955973,0.013586719520390034,-0.007954077795147896,-0.2801489233970642,0.41494375467300415,-0.6106952428817749,-9.692678451538086
1745659996.130574,0.01158412266522646,-0.010309828445315361,-0.28353962302207947,0.5571921467781067,-0.7648651003837585,-9.74865436553955
1745659996.1366136,0.004571992438286543,-0.015717051923274994,-0.2821733057498932,0.4389122426509857,-0.7428539991378784,-9.699423789978027
1745659996.138938,0.016625214368104935,-0.011420076712965965,-0.28186506032943726,0.3948695659637451,-0.7648565769195557,-9.746875762939453
1745659996.1408238,0.004660702310502529,-0.018614456057548523,-0.2778019309043884,0.38732075691223145,-0.6222460269927979,-9.840737342834473
1745659996.1724875,0.0268431194126606,-0.007134941406548023,-0.2806113362312317,0.3150339722633362,-0.6172528862953186,-9.739706993103027
1745659996.1751812,0.01157604344189167,-0.01961633935570717,-0.27954038977622986,0.4413118362426758,-0.6085559725761414,-9.634785652160645
1745659996.176033,0.03027370572090149,-0.014605266973376274,-0.2795584797859192,0.34110063314437866,-0.5774825811386108,-9.740790367126465
1745659996.1783047,0.012533353641629219,-0.015169466845691204,-0.2816314101219177,0.4846639037132263,-0.8231397867202759,-9.848165512084961
1745659996.180005,0.02776210941374302,-0.0163263026624918,-0.2780056595802307,0.3306640684604645,-0.6981474161148071,-9.782529830932617
1745659996.219396,0.011318695731461048,-0.009509831666946411,-0.2781175673007965,0.49787798523902893,-0.7754077911376953,-9.574987411499023
1745659996.2202678,0.0016988618299365044,-0.020391982048749924,-0.27959293127059937,0.40606576204299927,-0.7035844326019287,-9.76851749420166
1745659996.2234573,0.01883905939757824,-0.009318897500634193,-0.2793942093849182,0.45766687393188477,-0.7445573210716248,-9.897950172424316
1745659996.2270277,-0.0014081534463912249,-0.0204011257737875,-0.2796086370944977,0.4575127065181732,-0.5804873704910278,-9.697517395019531
1745659996.2577481,0.01880660094320774,-0.014432152733206749,-0.28092485666275024,0.2870078682899475,-0.6560906171798706,-9.648378372192383
1745659996.2599754,0.007888047955930233,-0.012541070580482483,-0.28016942739486694,0.4334618151187897,-0.5604268908500671,-9.686251640319824
1745659996.2612982,0.018383849412202835,-0.01563456654548645,-0.28150731325149536,0.32781121134757996,-0.6532094478607178,-9.857118606567383
1745659996.262785,0.021849000826478004,-0.009686737321317196,-0.2781982123851776,0.4705667495727539,-0.724273145198822,-9.78471851348877
1745659996.3006556,0.01773071102797985,-0.02275097370147705,-0.280487060546875,0.4240322709083557,-0.7029926776885986,-9.723474502563477
1745659996.3031695,0.022647906094789505,-0.011797195300459862,-0.27702489495277405,0.35170644521713257,-0.7597807049751282,-9.819184303283691
1745659996.3047552,0.006905277259647846,-0.018407458439469337,-0.27510565519332886,0.4677511751651764,-0.7470215559005737,-9.768038749694824
1745659996.3071835,0.025214826688170433,-0.014476840384304523,-0.27723097801208496,0.3340352177619934,-0.6880742311477661,-9.683934211730957
1745659996.3117056,0.0069208452478051186,-0.01408549677580595,-0.27691903710365295,0.48406171798706055,-0.6797215342521667,-9.689550399780273
1745659996.3471732,0.026122992858290672,-0.010050250217318535,-0.2761721611022949,0.3339449167251587,-0.5810272097587585,-9.681648254394531
1745659996.3493223,0.00981946662068367,-0.0169421024620533,-0.278206467628479,0.4978969991207123,-0.7248973250389099,-9.639190673828125
1745659996.3536172,0.03353095427155495,-0.017994064837694168,-0.2766479253768921,0.2891446053981781,-0.5772077441215515,-9.842391967773438
1745659996.356991,0.02094159461557865,-0.011999798938632011,-0.2789592146873474,0.46405935287475586,-0.6528513431549072,-9.7975435256958
1745659996.3880355,0.017142031341791153,-0.019345909357070923,-0.27716296911239624,0.3072203993797302,-0.6758158802986145,-9.734682083129883
1745659996.3910213,0.029329225420951843,-0.009851030074059963,-0.2787266671657562,0.44980674982070923,-0.8034146428108215,-9.739501953125
1745659996.3929417,0.00900370441377163,-0.01973000168800354,-0.278341144323349,0.4384002685546875,-0.6379724740982056,-9.745527267456055
1745659996.3953054,0.023794025182724,-0.008935866877436638,-0.2782437801361084,0.3388686180114746,-0.817410945892334,-9.856032371520996
1745659996.4302883,0.00748096639290452,-0.013104838319122791,-0.27742668986320496,0.4647652506828308,-0.6784575581550598,-9.619427680969238
1745659996.4443984,0.013601874932646751,-0.017101693898439407,-0.2751935124397278,0.39453938603401184,-0.7611516118049622,-9.705127716064453
1745659996.4444308,0.009270841255784035,-0.012168261222541332,-0.2755846083164215,0.4590896964073181,-0.7384248971939087,-9.846465110778809
1745659996.444459,0.013494454324245453,-0.016851559281349182,-0.2771150767803192,0.2995644509792328,-0.6236711144447327,-9.913834571838379
1745659996.4444811,0.01692814752459526,-0.008883732371032238,-0.2752876877784729,0.3392264246940613,-0.6665052771568298,-9.650758743286133
1745659996.4759276,0.0014403869863599539,-0.01858406886458397,-0.27775150537490845,0.43285098671913147,-0.7021369934082031,-9.595464706420898
1745659996.476995,-3.452096279943362e-05,-0.01867048814892769,-0.27112850546836853,0.26006802916526794,-0.6265519857406616,-9.77159595489502
1745659996.481017,0.015274946577847004,-0.009687448851764202,-0.2744109034538269,0.4538234770298004,-0.6434460282325745,-9.939984321594238
1745659996.4835076,0.003719119820743799,-0.017628241330385208,-0.2757579982280731,0.3854376971721649,-0.40017765760421753,-9.645910263061523
1745659996.5159874,0.022451434284448624,-0.011242171749472618,-0.2758124768733978,0.3826150894165039,-0.7547048330307007,-9.62905216217041
1745659996.5188227,0.010444686748087406,-0.01923646405339241,-0.27632707357406616,0.4441208243370056,-0.5251668095588684,-9.73674201965332
1745659996.5200303,0.021597344428300858,-0.012382854707539082,-0.2757536470890045,0.35378775000572205,-0.7811083197593689,-10.0320405960083
