timestamp,angular_vel_x,angular_vel_y,angular_vel_z,linear_acc_x,linear_acc_y,linear_acc_z
1745670680.4142754,0.004835827276110649,-2.334173814233509e-06,-0.017380449920892715,0.443351686000824,-0.2609613537788391,-9.717818260192871
1745670680.4614537,-0.00029400346102193,-0.002482315991073847,-0.018074210733175278,0.22533588111400604,-0.07875365018844604,-9.79776668548584
1745670680.4615486,0.005111766047775745,0.004446773789823055,-0.017866145819425583,0.39577585458755493,-0.20415587723255157,-9.812093734741211
1745670680.4616196,-0.008638580329716206,-0.002117863856256008,-0.019053081050515175,0.3271273374557495,-0.16214677691459656,-9.74814510345459
1745670680.4616838,0.0027448434848338366,0.004725556820631027,-0.01688420958817005,0.2903142273426056,-0.0542033314704895,-9.74809455871582
1745670680.4617438,-0.00802790280431509,-0.0034285050351172686,-0.01782645843923092,0.3914082944393158,-0.21521174907684326,-9.792436599731445
1745670680.4618025,-0.0002462930860929191,0.0036482594441622496,-0.018492180854082108,0.19915591180324554,0.022921297699213028,-9.807485580444336
1745670680.4618773,0.002196999965235591,0.001308939652517438,-0.018026992678642273,0.42240986227989197,-0.18096734583377838,-9.737661361694336
1745670680.4619389,0.0006784905563108623,-0.0026806029491126537,-0.016876043751835823,0.20493945479393005,-0.008265041746199131,-9.777730941772461
1745670680.4781861,0.012762431986629963,0.0035990416072309017,-0.0175983477383852,0.37018653750419617,-0.13222280144691467,-9.77436637878418
1745670680.4818149,0.0018599055474624038,-0.0018217969918623567,-0.0171164833009243,0.2752053141593933,-0.14148136973381042,-9.799227714538574
1745670680.4837487,0.014823180623352528,0.004362179897725582,-0.016610056161880493,0.302874356508255,-0.088762067258358,-9.742761611938477
1745670680.4879022,0.0028944157529622316,-0.002914801239967346,-0.01823420263826847,0.39334481954574585,-0.22572526335716248,-9.760303497314453
1745670680.520069,0.004914966411888599,0.0020930718164891005,-0.01762806996703148,0.21577802300453186,-0.05011872202157974,-9.819551467895508
1745670680.5223145,0.004125530831515789,0.00031446272623725235,-0.017336895689368248,0.4493275284767151,-0.25064414739608765,-9.769303321838379
1745670680.524971,-0.005284970626235008,-0.001852003624662757,-0.015915870666503906,0.22094202041625977,-0.08386943489313126,-9.767755508422852
1745670680.533247,0.0025457616429775953,0.0026357718743383884,-0.01839427277445793,0.3908253014087677,-0.18470291793346405,-9.755119323730469
1745670680.5745533,-0.0027943605091422796,-0.0033424589782953262,-0.01652631349861622,0.4165384769439697,-0.22871971130371094,-9.753252983093262
1745670680.5752463,0.0028091527055948973,0.002292949939146638,-0.016838137060403824,0.23388071358203888,-0.02134118787944317,-9.792149543762207
1745670680.575347,0.0021476775873452425,-0.002421037293970585,-0.016375228762626648,0.43719592690467834,-0.2431236207485199,-9.79272747039795
1745670680.5754175,-0.004571850411593914,-0.0018205683445557952,-0.017358016222715378,0.1989472210407257,-0.050869233906269073,-9.813079833984375
1745670680.575467,0.006729351822286844,0.0034321919083595276,-0.01612512394785881,0.38198786973953247,-0.14818258583545685,-9.760760307312012
1745670680.6184883,-0.00476138386875391,-0.005192664451897144,-0.015596616081893444,0.294798344373703,-0.1271013766527176,-9.791426658630371
1745670680.6186395,0.00955283734947443,0.004176130052655935,-0.018371129408478737,0.2723308801651001,-0.038874901831150055,-9.785843849182129
1745670680.618773,-0.0007413440616801381,-0.004653883166611195,-0.015720536932349205,0.3992561995983124,-0.2101161926984787,-9.776928901672363
1745670680.6188588,0.00470013078302145,0.0016429964452981949,-0.015247710049152374,0.2136203497648239,-0.00050358846783638,-9.811129570007324
1745670680.6489415,0.004391636233776808,-0.0016779827419668436,-0.016768723726272583,0.4709802269935608,-0.23020294308662415,-9.760786056518555
1745670680.662279,-0.0030334859620779753,-0.002189889084547758,-0.017315790057182312,0.24077753722667694,-0.0612223818898201,-9.806233406066895
1745670680.6623778,0.006220818031579256,0.0011847207788378,-0.014914298430085182,0.3862692415714264,-0.14021191000938416,-9.7962064743042
1745670680.662429,-0.006943574640899897,-0.0046410392969846725,-0.01760239154100418,0.324882447719574,-0.14554879069328308,-9.78803825378418
1745670680.6653335,0.006841548718512058,0.0006719438824802637,-0.01559565681964159,0.2788529396057129,-0.04749000072479248,-9.769681930541992
1745670680.7492812,-0.005388050805777311,-0.0030706997495144606,-0.017173511907458305,0.41555315256118774,-0.1965867280960083,-9.797586441040039
1745670680.7494395,-0.008314719423651695,0.00798136368393898,-0.02757108211517334,0.23742690682411194,0.10787050426006317,-12.001468658447266
1745670680.7495263,0.04690656438469887,0.0464542917907238,-0.032159291207790375,0.345871239900589,0.03207103908061981,-10.535787582397461
1745670680.749607,0.0445411391556263,0.018957151100039482,-0.03876641020178795,0.39610257744789124,0.5067422389984131,-7.429319858551025
1745670680.7502174,0.017467398196458817,-0.020377524197101593,-0.04455619305372238,0.5860350728034973,-0.38096883893013,-9.132835388183594
1745670680.7502606,0.0469491109251976,-0.0007175965001806617,-0.05027574300765991,0.4007047116756439,0.2713434398174286,-11.913405418395996
1745670680.7655947,0.030244966968894005,0.04519416764378548,-0.05285220593214035,0.0867554321885109,-0.44945329427719116,-10.765646934509277
1745670680.765707,0.04256768152117729,0.02616063877940178,-0.04591386765241623,0.5701181292533875,-0.3868972659111023,-7.279150485992432
1745670680.7657685,0.0008737184107303619,-0.01091671921312809,-0.04374716430902481,0.9270936846733093,-0.1078549176454544,-8.60856819152832
1745670680.7812538,0.012177052907645702,-0.0017441317904740572,-0.04488078132271767,0.6943496465682983,-0.4464450478553772,-12.358800888061523
1745670680.7844882,0.03787028789520264,0.047988854348659515,-0.05125206708908081,0.3424587845802307,0.3227880597114563,-11.036835670471191
1745670680.7887926,0.030218441039323807,0.024783659726381302,-0.048829689621925354,0.5706406831741333,-0.14813508093357086,-7.589292049407959
1745670680.7904377,0.02808460034430027,-0.017707955092191696,-0.048727020621299744,0.21103939414024353,0.09967775642871857,-8.595544815063477
1745670680.8240895,0.039226360619068146,0.01467941701412201,-0.05549710988998413,0.3464090824127197,0.0679444819688797,-11.472063064575195
1745670680.8251653,0.03905969113111496,0.04411199316382408,-0.06086542084813118,0.3905446529388428,-0.04906043782830238,-10.835797309875488
1745670680.8278496,0.058568745851516724,0.034984465688467026,-0.06629709899425507,0.434626966714859,0.39204609394073486,-8.066652297973633
1745670680.8284905,0.061404287815093994,0.0038046420086175203,-0.06950017809867859,1.2172183990478516,-0.024955052882432938,-8.696633338928223
1745670680.868552,0.06245768815279007,0.016868311911821365,-0.07771499454975128,0.9853702783584595,-0.06712425500154495,-11.594035148620605
1745670680.869021,0.07952761650085449,0.046947963535785675,-0.08045369386672974,1.0726944208145142,-0.40587544441223145,-10.97123908996582
1745670680.8715043,0.07580632716417313,0.04265448451042175,-0.08373872190713882,0.6777522563934326,-0.02038700506091118,-8.252141952514648
1745670680.874205,0.06712847948074341,0.02561669424176216,-0.08431646972894669,0.9081088900566101,-0.2443256378173828,-8.387484550476074
1745670680.8772016,0.08378729969263077,0.026611441746354103,-0.08954457938671112,0.9033780097961426,-0.28301802277565,-10.98155403137207
1745670680.9119053,0.11541082710027695,0.05581838637590408,-0.14079415798187256,0.9365658760070801,-0.14366208016872406,-10.746515274047852
1745670680.916375,0.12816515564918518,0.06857918202877045,-0.14964091777801514,0.4375201165676117,0.6097753047943115,-9.75104808807373
1745670680.9190512,0.14172929525375366,0.06796341389417648,-0.15838654339313507,0.5861167311668396,-0.05392834544181824,-8.875837326049805
1745670680.922768,0.14952270686626434,0.05710997432470322,-0.1623968631029129,0.7119759321212769,0.09187138080596924,-9.205263137817383
1745670680.953996,0.16207048296928406,0.06754980236291885,-0.1675553321838379,0.932581901550293,-0.1393614262342453,-10.382074356079102
1745670680.9554913,0.16365347802639008,0.07189632952213287,-0.17211446166038513,0.8251045346260071,-0.1282346099615097,-10.282033920288086
1745670680.9568374,0.17086443305015564,0.08502562344074249,-0.1755795031785965,0.6964821219444275,-0.2613777816295624,-9.234757423400879
1745670680.9590669,0.17352035641670227,0.06932644546031952,-0.1724577695131302,1.153173804283142,-0.3686160147190094,-8.919129371643066
1745670680.994101,0.15105417370796204,0.058977894484996796,-0.17854996025562286,0.7545568943023682,-0.30174893140792847,-10.261465072631836
1745670680.9978306,0.18061575293540955,0.07529028505086899,-0.18218302726745605,0.8295034170150757,-0.3859143853187561,-10.506933212280273
1745670681.0006425,0.15817447006702423,0.0860009416937828,-0.1882072240114212,0.659218430519104,-0.09185861051082611,-9.273783683776855
1745670681.0054927,0.16475895047187805,0.07378134876489639,-0.19316451251506805,0.7017576098442078,-0.239969402551651,-8.895925521850586
1745670681.0084026,0.1458372175693512,0.050527751445770264,-0.19787654280662537,1.031400442123413,-0.41568079590797424,-9.908401489257812
1745670681.039797,0.16977374255657196,0.07952936738729477,-0.20413561165332794,0.6824454069137573,-0.0858522430062294,-10.733752250671387
1745670681.04022,0.15075619518756866,0.08085783571004868,-0.20718732476234436,0.7965582013130188,-0.5655444860458374,-9.714117050170898
1745670681.0416958,0.11707715690135956,-0.007552750408649445,-0.290498286485672,0.9378587603569031,-0.6159293055534363,-9.791769027709961
1745670681.043172,0.09812303632497787,-0.012820102274417877,-0.29356640577316284,0.9526250958442688,-0.7358390092849731,-9.740522384643555
1745670681.0800395,0.11101094633340836,-0.016698703169822693,-0.2953647971153259,0.9030095934867859,-0.3946458399295807,-9.633479118347168
1745670681.082163,0.09685316681861877,-0.023257970809936523,-0.2977827489376068,0.9193205833435059,-0.7524611353874207,-9.887584686279297
1745670681.0844324,0.11435842514038086,-0.010709266178309917,-0.2997600734233856,0.7226190567016602,-0.25537118315696716,-9.655405044555664
1745670681.0857866,0.09560785442590714,-0.02197968028485775,-0.3030373156070709,1.0866718292236328,-0.7293899059295654,-9.53106689453125
1745670681.0874906,0.12159613519906998,-0.03538940101861954,-0.306814044713974,0.8168048858642578,-0.42843762040138245,-9.857494354248047
1745670681.1239605,0.1131671667098999,-0.02366757020354271,-0.3053458333015442,0.9285193681716919,-0.54832524061203,-10.035975456237793
1745670681.12513,0.1156006008386612,-0.02753150463104248,-0.3084520399570465,0.9214819073677063,-0.7037713527679443,-9.688702583312988
1745670681.1275156,0.12290316820144653,-0.03200049325823784,-0.3123650550842285,0.9058071970939636,-0.47487831115722656,-9.287443161010742
1745670681.1335933,0.10290559381246567,-0.044354986399412155,-0.3104313910007477,1.030005693435669,-0.8763813972473145,-9.799337387084961
1745670681.1681297,0.10638339817523956,-0.03853028267621994,-0.313831627368927,0.7098907232284546,-0.5684460997581482,-10.232741355895996
1745670681.1715353,0.09882519394159317,-0.04062122851610184,-0.3140454888343811,0.9427106976509094,-0.9155744314193726,-9.824884414672852
1745670681.1759198,0.09148615598678589,-0.042912792414426804,-0.3195129930973053,0.7873040437698364,-0.45850110054016113,-9.231584548950195
1745670681.177513,0.08697381615638733,-0.05013488978147507,-0.31958886981010437,0.9241213798522949,-0.8707472681999207,-9.66865348815918
1745670681.2093005,0.08691363036632538,-0.0484347902238369,-0.32194358110427856,0.8655115962028503,-0.5533825159072876,-10.077376365661621
1745670681.2121227,0.07866215705871582,-0.03608990088105202,-0.32440584897994995,0.7858486175537109,-0.7041059732437134,-9.936578750610352
1745670681.2131336,0.09549383819103241,-0.05721800774335861,-0.3245636224746704,0.9081673622131348,-0.7588551044464111,-9.429158210754395
1745670681.2163494,0.08234481513500214,-0.05409238860011101,-0.3261154890060425,0.7686670422554016,-0.35317468643188477,-9.609892845153809
1745670681.2265353,0.08936110883951187,-0.05036686733365059,-0.3283284306526184,0.9621062278747559,-0.823593258857727,-10.102472305297852
1745670681.253926,0.09384126961231232,-0.05475806072354317,-0.33081287145614624,0.7927091121673584,-0.4299822449684143,-9.750834465026855
1745670681.2585704,0.09516725689172745,-0.05296950787305832,-0.3302154541015625,0.8860969543457031,-0.6670750379562378,-9.487435340881348
1745670681.2635484,0.06380851566791534,-0.0639134868979454,-0.33876433968544006,0.6682432889938354,-0.8247686624526978,-10.160223960876465
1745670681.264104,0.10364234447479248,-0.06537254899740219,-0.3411085307598114,0.8440172076225281,-0.5880874395370483,-9.688017845153809
1745670681.2995374,0.06467024236917496,-0.06684128940105438,-0.3419407308101654,0.7739232778549194,-0.6450613737106323,-9.51824951171875
1745670681.3012285,0.08673272281885147,-0.06089700385928154,-0.3439933657646179,0.6968950033187866,-0.7405880689620972,-9.822720527648926
1745670681.305078,0.07539637386798859,-0.07262970507144928,-0.3427961468696594,0.9682756662368774,-0.7646067142486572,-9.765661239624023
1745670681.3086185,0.07173895835876465,-0.057809360325336456,-0.3435671627521515,0.6444811224937439,-0.6921764612197876,-9.868739128112793
1745670681.3402548,0.07828518003225327,-0.07228828966617584,-0.3442977964878082,0.8730767369270325,-0.8799455761909485,-9.745668411254883
1745670681.3429775,0.06516812741756439,-0.07262198626995087,-0.3449915945529938,0.7232961654663086,-0.656601071357727,-9.758997917175293
1745670681.3461816,0.06885845214128494,-0.06610406190156937,-0.34542104601860046,0.8292727470397949,-0.7064814567565918,-9.806514739990234
1745670681.3704772,0.06675421446561813,-0.07484135776758194,-0.3457847237586975,0.7394794821739197,-0.7924349904060364,-9.66624641418457
1745670681.3706036,0.07231874763965607,-0.06689673662185669,-0.35046714544296265,0.6746237874031067,-0.52079176902771,-9.693294525146484
1745670681.3942592,0.05776134878396988,-0.07174781709909439,-0.3503994345664978,0.8059231042861938,-0.9390810132026672,-9.916510581970215
1745670681.3943489,0.08415137231349945,-0.07003486901521683,-0.3514084219932556,0.6031442880630493,-0.519823431968689,-9.721086502075195
1745670681.394496,0.061051011085510254,-0.0673423483967781,-0.3505374491214752,0.8785066604614258,-0.8237446546554565,-9.631230354309082
1745670681.3946176,-0.011472140438854694,-0.047938358038663864,-0.36821505427360535,0.6275826692581177,-0.8313055038452148,-9.75843620300293
1745670681.428324,0.028010662645101547,-0.036748941987752914,-0.3693426549434662,0.4643469452857971,-0.7523189783096313,-9.875531196594238
1745670681.428439,0.006200118456035852,-0.03844509273767471,-0.3680010437965393,0.7187739610671997,-0.8755372166633606,-9.634233474731445
1745670681.430903,0.0020084665156900883,-0.04223119467496872,-0.36920496821403503,0.4451426565647125,-0.8757207989692688,-9.784440040588379
1745670681.4448493,0.01570596918463707,-0.04065798595547676,-0.36983758211135864,0.7449149489402771,-0.9498940706253052,-9.766785621643066
1745670681.4769175,-0.013053071685135365,-0.03795165941119194,-0.3693438470363617,0.6024659276008606,-0.8422031402587891,-9.764379501342773
1745670681.4770977,-0.009663557633757591,-0.032579898834228516,-0.3698709011077881,0.6113091707229614,-0.9014193415641785,-9.674675941467285
1745670681.4771864,-0.01024244911968708,-0.04253219813108444,-0.37018948793411255,0.7141243815422058,-0.9074847102165222,-9.590739250183105
1745670681.4772644,-0.03068186715245247,-0.028657635673880577,-0.37253981828689575,0.4172610342502594,-0.740602970123291,-9.921202659606934
1745670681.5265098,-0.013255474157631397,-0.03765518218278885,-0.3714759647846222,0.6372361779212952,-0.9807837605476379,-9.832242965698242
1745670681.5282526,-0.012494370341300964,-0.03271900862455368,-0.3720228672027588,0.49891915917396545,-0.40613216161727905,-9.464594841003418
1745670681.528339,-0.025695856660604477,-0.028996890410780907,-0.373902827501297,0.7775607109069824,-0.9877669215202332,-9.680669784545898
1745670681.5284004,-0.0026255170814692974,-0.03277532756328583,-0.37395259737968445,0.5173786878585815,-0.608330249786377,-9.89130973815918
1745670681.5284455,-0.009913409128785133,-0.025436222553253174,-0.3733278214931488,0.594438374042511,-0.7289493680000305,-9.831649780273438
1745670681.5563014,-0.0068232715129852295,-0.03320812061429024,-0.3742675185203552,0.6164423227310181,-0.8653000593185425,-9.608253479003906
1745670681.5590878,-0.0005778357153758407,-0.027438107877969742,-0.3746137022972107,0.5311667919158936,-0.6181045770645142,-9.610078811645508
1745670681.5635128,-0.01177388895303011,-0.03208388760685921,-0.372139036655426,0.7337234616279602,-0.9737756848335266,-9.82518196105957
1745670681.5678232,-0.016450006514787674,-0.024094896391034126,-0.3765185475349426,0.47431081533432007,-0.6932180523872375,-9.799652099609375
1745670681.6001503,-0.012711668387055397,-0.02558707632124424,-0.3757186233997345,0.7113274335861206,-0.9557403326034546,-9.580299377441406
1745670681.600283,-0.03318709880113602,-0.029569586738944054,-0.3766137361526489,0.48305314779281616,-0.7910307049751282,-9.662075996398926
1745670681.6033323,-0.01914423331618309,-0.020776301622390747,-0.37656936049461365,0.6245507597923279,-0.9552456140518188,-9.894317626953125
1745670681.6090982,-0.027574270963668823,-0.028476065024733543,-0.37768831849098206,0.6795271635055542,-0.693956732749939,-9.673355102539062
1745670681.6104503,-0.03209923952817917,-0.015095177106559277,-0.3778351843357086,0.5144399404525757,-0.8220577239990234,-9.629304885864258
1745670681.6424336,-0.021542076021432877,-0.02202317677438259,-0.37604475021362305,0.4942440390586853,-0.5535703897476196,-9.550426483154297
1745670681.6436508,-0.02007182687520981,-0.016330907121300697,-0.379594087600708,0.6487026810646057,-0.8660951852798462,-9.619560241699219
1745670681.6479335,-0.03714805096387863,-0.02385634556412697,-0.37716588377952576,0.6754499673843384,-0.7922524213790894,-9.766947746276855
1745670681.6517107,-0.018834972754120827,-0.016751619055867195,-0.3796618580818176,0.5853527188301086,-0.7681235074996948,-9.848689079284668
1745670681.682653,-0.04350464791059494,-0.018216466531157494,-0.37741032242774963,0.6084545850753784,-0.9023027420043945,-9.74338150024414
1745670681.6880088,-0.02507202886044979,-0.01690233126282692,-0.3802407383918762,0.4553038477897644,-0.7273145318031311,-9.644908905029297
1745670681.6903336,-0.026766231283545494,-0.01942192204296589,-0.37986430525779724,0.731309175491333,-0.6659137606620789,-9.546995162963867
1745670681.6954718,-0.044087935239076614,-0.016257839277386665,-0.38018402457237244,0.5089220404624939,-0.7745881676673889,-9.844736099243164
1745670681.7001996,-0.012240258976817131,-0.010545642115175724,-0.3795287311077118,0.5960204005241394,-0.6473015546798706,-9.790627479553223
1745670681.7290077,-0.04307593032717705,-0.0185150858014822,-0.3785492479801178,0.5487558841705322,-0.8182830810546875,-9.73731803894043
1745670681.7340136,-0.01698557659983635,-0.0130972471088171,-0.37942156195640564,0.48004740476608276,-0.7425013780593872,-9.7115478515625
1745670681.7369938,-0.03290676325559616,-0.020062902942299843,-0.37880003452301025,0.6926826238632202,-0.8315020799636841,-9.687984466552734
1745670681.7406132,-0.03300520032644272,-0.011840390041470528,-0.3784460425376892,0.5667158365249634,-0.7762383222579956,-9.768159866333008
1745670681.7714012,-0.010869428515434265,-0.016411544755101204,-0.3796353340148926,0.5013611316680908,-0.5426273345947266,-9.508631706237793
1745670681.775361,-0.008147603832185268,-0.008937999606132507,-0.3802182376384735,0.65961754322052,-0.7620165944099426,-9.695199966430664
1745670681.78098,-0.027995357289910316,-0.018565185368061066,-0.37946996092796326,0.6578391790390015,-0.7209314703941345,-9.924150466918945
1745670681.7821817,-0.0064874798990786076,-0.008584348484873772,-0.3771222233772278,0.553521990776062,-0.6645647883415222,-9.831936836242676
1745670681.8130953,-0.027269667014479637,-0.013279971666634083,-0.378694623708725,0.6374776363372803,-0.6718193292617798,-9.640871047973633
1745670681.8147779,-0.015562295913696289,-0.014319184236228466,-0.3764764368534088,0.5215128064155579,-0.6526812314987183,-9.787965774536133
1745670681.8175473,-0.002895792480558157,-0.01674368605017662,-0.37741702795028687,0.7200273275375366,-0.5065878033638,-9.767274856567383
1745670681.8221292,-0.02951432764530182,-0.01493138074874878,-0.3799407482147217,0.49803513288497925,-0.6274389624595642,-9.860068321228027
1745670681.8550005,0.013395795598626137,-0.007186497561633587,-0.3763457238674164,0.5557262897491455,-0.5403475761413574,-9.640340805053711
1745670681.8575256,-0.021680841222405434,-0.019448038190603256,-0.37574300169944763,0.5977778434753418,-0.6383631825447083,-9.68071174621582
1745670681.8617675,0.0036854161880910397,-0.01465338934212923,-0.3772645890712738,0.513484001159668,-0.6165958642959595,-9.868961334228516
1745670681.8642843,-0.00270812027156353,-0.018135448917746544,-0.37682098150253296,0.6596676111221313,-0.6292887926101685,-9.856975555419922
1745670681.8672295,-0.003350264858454466,-0.012171213515102863,-0.37636256217956543,0.49277061223983765,-0.5936647653579712,-9.729045867919922
1745670681.9006295,-0.00558176776394248,-0.016029542312026024,-0.3760858476161957,0.7454911470413208,-0.6482746005058289,-9.554998397827148
1745670681.9043374,-0.0037106007803231478,-0.01995049975812435,-0.37694627046585083,0.5378796458244324,-0.645273745059967,-9.773859024047852
1745670681.907109,-0.005391539074480534,-0.010753047652542591,-0.3783114552497864,0.5829402208328247,-0.5802673697471619,-9.906209945678711
1745670681.908399,-0.012428179383277893,-0.017037421464920044,-0.3776613175868988,0.5620855093002319,-0.7906045317649841,-9.88221549987793
1745670681.940603,0.012644561938941479,-0.015872927382588387,-0.3759031891822815,0.5083630681037903,-0.34411078691482544,-9.48124885559082
1745670681.944042,-0.015942376106977463,-0.02010626718401909,-0.3758770227432251,0.7028902769088745,-0.7333420515060425,-9.684419631958008
1745670681.94462,0.019557856023311615,-0.01283072866499424,-0.37831512093544006,0.46890944242477417,-0.36106958985328674,-9.952199935913086
1745670681.9466712,0.007721038069576025,-0.014523407444357872,-0.3770306706428528,0.6952233910560608,-0.6532734036445618,-9.818828582763672
1745670681.947311,0.009097544476389885,-0.018953878432512283,-0.3742448389530182,0.46374693512916565,-0.5808230638504028,-9.668571472167969
1745670681.985752,0.012191240675747395,-0.020621411502361298,-0.3780163824558258,0.6971680521965027,-0.8329372406005859,-10.002790451049805
1745670681.9934525,0.01939939148724079,-0.021445956081151962,-0.375949501991272,0.44845518469810486,-0.38792890310287476,-9.662630081176758
1745670681.9963303,0.00904996506869793,-0.015992457047104836,-0.3761609196662903,0.6208000183105469,-0.6870859861373901,-9.589944839477539
1745670682.002927,0.02418118342757225,-0.01979433372616768,-0.3741101920604706,0.5252540707588196,-0.5631932020187378,-9.77782917022705
1745670682.0277421,0.024300288408994675,-0.013576758094131947,-0.37514302134513855,0.548565685749054,-0.49565428495407104,-9.902301788330078
1745670682.03111,0.017819656059145927,-0.023598555475473404,-0.37630921602249146,0.636993408203125,-0.7011498212814331,-9.787285804748535
1745670682.0312698,0.032099924981594086,-0.02133704349398613,-0.37446120381355286,0.4582533836364746,-0.4506514072418213,-9.68113899230957
1745670682.0341399,0.02240036427974701,-0.021936621516942978,-0.3758423328399658,0.6964418292045593,-0.8080131411552429,-9.827311515808105
1745670682.0717614,0.0158853642642498,-0.02251814305782318,-0.37555569410324097,0.4847630560398102,-0.5042259693145752,-9.821494102478027
1745670682.0745912,0.030853357166051865,-0.01991998590528965,-0.37379732728004456,0.6365183591842651,-0.7479108572006226,-9.591100692749023
1745670682.0767357,0.008677029982209206,-0.02348187193274498,-0.3755767345428467,0.5016688108444214,-0.49306124448776245,-9.655206680297852
1745670682.0792575,0.024323107674717903,-0.01840892806649208,-0.37470465898513794,0.5265835523605347,-0.6793307662010193,-9.952417373657227
1745670682.1124547,0.030139494687318802,-0.02995508350431919,-0.37395769357681274,0.6301625967025757,-0.5687648057937622,-9.774744987487793
1745670682.1168077,0.018385371193289757,-0.01891828514635563,-0.3772265911102295,0.45684391260147095,-0.4879682958126068,-9.664346694946289
1745670682.1180902,0.025025248527526855,-0.023552294820547104,-0.364027738571167,0.5840421319007874,-0.8395644426345825,-9.756211280822754
1745670682.1216946,0.04567749798297882,-0.03544715791940689,-0.36308804154396057,0.4227208197116852,-0.5295450091362,-9.762974739074707
1745670682.1263108,0.03891713172197342,-0.026305044069886208,-0.36237406730651855,0.5462870001792908,-0.5668145418167114,-9.79076862335205
1745670682.1578257,0.04239624738693237,-0.030233031138777733,-0.36279526352882385,0.5633764863014221,-0.8549467921257019,-9.864861488342285
1745670682.1587079,0.04880300164222717,-0.023691531270742416,-0.36111411452293396,0.46405258774757385,-0.5310301184654236,-9.592931747436523
1745670682.1617203,0.033459026366472244,-0.030656319111585617,-0.3599506914615631,0.6369661688804626,-0.8992107510566711,-9.595675468444824
1745670682.1627533,0.036693476140499115,-0.030498206615447998,-0.3582163453102112,0.38386884331703186,-0.6487835049629211,-9.907925605773926
1745670682.2017536,0.03717213124036789,-0.027583295479416847,-0.3584896922111511,0.6423699259757996,-0.8614249229431152,-9.938409805297852
1745670682.2171583,0.020212428644299507,-0.032418444752693176,-0.35723990201950073,0.4709855020046234,-0.6063363552093506,-9.7072114944458
1745670682.217254,0.03373106196522713,-0.02873210236430168,-0.3569622337818146,0.5683084726333618,-0.8135150671005249,-9.606359481811523
1745670682.223246,0.02338825911283493,-0.03325772285461426,-0.3569410443305969,0.5329400300979614,-0.5685681104660034,-9.674726486206055
1745670682.2233515,0.017666593194007874,-0.023910261690616608,-0.3562972843647003,0.40884214639663696,-0.7356712222099304,-9.949867248535156
1745670682.2423992,0.04271689057350159,-0.030187755823135376,-0.35602813959121704,0.5358222723007202,-0.7122454643249512,-9.699304580688477
1745670682.2448583,0.017957646399736404,-0.028910135850310326,-0.35627487301826477,0.37240415811538696,-0.5512949824333191,-9.605276107788086
1745670682.2504432,0.03779761865735054,-0.026758259162306786,-0.3547822833061218,0.6551700234413147,-0.8419164419174194,-9.828369140625
1745670682.250548,0.024938007816672325,-0.03160101920366287,-0.3541630506515503,0.4681929647922516,-0.5535646677017212,-9.806663513183594
1745670682.301982,0.029903341084718704,-0.022263454273343086,-0.3545219898223877,0.5811444520950317,-0.783100962638855,-9.694624900817871
1745670682.3064346,0.018601013347506523,-0.03379356488585472,-0.3540448546409607,0.5192314982414246,-0.7946145534515381,-9.707586288452148
1745670682.3065271,0.0228857584297657,-0.027379345148801804,-0.3543756604194641,0.43655306100845337,-0.7534154057502747,-9.909558296203613
1745670682.3065813,0.011858751066029072,-0.030926868319511414,-0.3526182770729065,0.6183276176452637,-0.6653523445129395,-9.78274154663086
1745670682.306622,0.01351961214095354,-0.029074564576148987,-0.35192734003067017,0.3903345763683319,-0.7492063045501709,-9.71481704711914
1745670682.328648,0.024240151047706604,-0.02502942457795143,-0.3513772487640381,0.6209914088249207,-0.5588338971138,-9.496129989624023
1745670682.331955,0.008958609774708748,-0.026489775627851486,-0.34999051690101624,0.42914313077926636,-0.6591160297393799,-9.873218536376953
1745670682.3332043,0.014736900106072426,-0.023761985823512077,-0.34995871782302856,0.5834394693374634,-0.8379778861999512,-9.84489631652832
1745670682.3359544,-0.0023794325534254313,-0.02880154922604561,-0.34897708892822266,0.40663307905197144,-0.7500171065330505,-9.828573226928711
1745670682.3906035,0.009070813655853271,-0.026081690564751625,-0.3484242558479309,0.545835018157959,-0.6314464807510376,-9.692978858947754
1745670682.3907056,-0.01072124857455492,-0.03061354160308838,-0.3475813567638397,0.4764300286769867,-0.882093071937561,-9.797361373901367
1745670682.3907557,0.016934668645262718,-0.020933058112859726,-0.3477790653705597,0.4251020848751068,-0.4241945147514343,-9.64128589630127
1745670682.390798,-0.01412119995802641,-0.026575356721878052,-0.34727320075035095,0.6215798854827881,-0.8085786700248718,-9.75666332244873
1745670682.4585156,0.02105909213423729,-0.022358961403369904,-0.34794336557388306,0.3157908022403717,-0.5626920461654663,-9.865167617797852
1745670682.4586384,0.00965091586112976,-0.025676965713500977,-0.34413808584213257,0.5496872663497925,-0.6147044897079468,-9.772308349609375
1745670682.4587085,0.010528581216931343,-0.025718938559293747,-0.34739431738853455,0.4178004264831543,-0.7526364326477051,-9.797924995422363
1745670682.4587593,0.026208508759737015,-0.021852347999811172,-0.3447529375553131,0.5622398257255554,-0.5706901550292969,-9.595365524291992
1745670682.4710631,6.509979721158743e-05,-0.02790435031056404,-0.3457103669643402,0.521099865436554,-0.7818862795829773,-9.728776931762695
1745670682.4711227,0.015601659193634987,-0.01727944426238537,-0.34396618604660034,0.4231417775154114,-0.6268351674079895,-9.867703437805176
1745670682.471166,-0.0036763660609722137,-0.024567436426877975,-0.34450429677963257,0.5961653590202332,-0.9046231508255005,-9.814905166625977
1745670682.4712176,0.008028972893953323,-0.017654186114668846,-0.3343230187892914,0.5923293828964233,-0.7810320854187012,-9.56005573272705
1745670682.4754083,-0.012454860843718052,-0.020722107961773872,-0.3357120752334595,0.41083669662475586,-0.6044310927391052,-9.727620124816895
1745670682.5065198,-0.0025889433454722166,-0.012835587374866009,-0.33351606130599976,0.5624238848686218,-0.7939321398735046,-9.916332244873047
1745670682.5117192,-0.02544824406504631,-0.01712151989340782,-0.3360920250415802,0.4227810502052307,-0.7049417495727539,-9.749665260314941
1745670682.5118065,-0.0007450920529663563,-0.012622803449630737,-0.3352968990802765,0.45626869797706604,-0.5712281465530396,-9.496591567993164
1745670682.5118523,-0.03509354963898659,-0.021770773455500603,-0.33756023645401,0.48642435669898987,-0.8194459676742554,-9.735429763793945
1745670682.5464213,0.0014396533370018005,-0.012215095572173595,-0.3328426480293274,0.33729737997055054,-0.5615299344062805,-9.941420555114746
1745670682.5505517,-0.014305567368865013,-0.014644707553088665,-0.3369908928871155,0.670199453830719,-0.5688033699989319,-9.646740913391113
1745670682.5506542,-0.013154645450413227,-0.010530112311244011,-0.33335644006729126,0.39102426171302795,-0.626909077167511,-9.6835298538208
1745670682.5548065,0.012697865255177021,-0.015138563700020313,-0.3357543349266052,0.5396282076835632,-0.45778560638427734,-9.713037490844727
1745670682.5549817,-0.016693245619535446,-0.01694975607097149,-0.3336794674396515,0.4372050166130066,-0.6537667512893677,-9.924315452575684
1745670682.5893507,0.010321403853595257,-0.01032927818596363,-0.3371507525444031,0.4344666600227356,-0.6148083806037903,-9.773661613464355
1745670682.589447,-0.009175533428788185,-0.021415693685412407,-0.334789901971817,0.5821722149848938,-0.7459100484848022,-9.542463302612305
1745670682.6361067,-0.008571874350309372,-0.014671720564365387,-0.3338543474674225,0.43134722113609314,-0.6468507647514343,-9.790153503417969
1745670682.6361635,-0.01931658573448658,-0.01717018522322178,-0.33292356133461,0.6022993922233582,-0.8488195538520813,-9.937417984008789
1745670682.6362221,-0.006956790573894978,-0.013606746681034565,-0.3336948752403259,0.3737891614437103,-0.5310710668563843,-9.673852920532227
1745670682.6362743,-0.026682090014219284,-0.014966088347136974,-0.3348308205604553,0.496589332818985,-0.6970666646957397,-9.608999252319336
1745670682.636332,-0.005998785141855478,-0.021249430254101753,-0.33424249291419983,0.39249294996261597,-0.6331261992454529,-9.811105728149414
1745670682.6365294,-0.005430924706161022,-0.01416709739714861,-0.33391350507736206,0.4826602041721344,-0.38438472151756287,-9.788853645324707
1745670682.6485922,-0.014174972660839558,-0.013030024245381355,-0.3327328860759735,0.5094264149665833,-0.7660955786705017,-9.775131225585938
1745670682.675107,0.01555894035845995,-0.011140180751681328,-0.3309265673160553,0.31956568360328674,-0.37255626916885376,-9.58366584777832
1745670682.6817696,-0.008574919775128365,-0.017431428655982018,-0.3323558270931244,0.5580413341522217,-0.7617995142936707,-9.767294883728027
1745670682.6852334,0.0037521235644817352,-0.015338738448917866,-0.3279949128627777,0.578515887260437,-0.8235770463943481,-9.863716125488281
1745670682.6898298,0.011396767571568489,-0.015518367290496826,-0.3292498290538788,0.3713752031326294,-0.3186819553375244,-9.81414794921875
1745670682.718648,-0.00040934496792033315,-0.007136561907827854,-0.3284357488155365,0.578727662563324,-0.8388286828994751,-9.782856941223145
1745670682.7283204,0.015582697466015816,-0.013428842648863792,-0.327450692653656,0.3807127773761749,-0.4924073815345764,-9.653310775756836
1745670682.728374,0.0034433857072144747,-0.009068043902516365,-0.32595422863960266,0.488762229681015,-0.6896122694015503,-9.758661270141602
1745670682.728432,0.0027024615556001663,-0.017647569999098778,-0.3228614032268524,0.49705347418785095,-0.7082828283309937,-9.87379264831543
1745670682.7599657,0.007836045697331429,-0.012595802545547485,-0.3256553113460541,0.417631059885025,-0.5262230038642883,-9.8584566116333
1745670682.7644136,-0.002043353859335184,-0.01575898379087448,-0.3264322280883789,0.6142069697380066,-0.7925624847412109,-9.735880851745605
1745670682.767221,-0.010332045145332813,-0.014525623992085457,-0.32577115297317505,0.37568244338035583,-0.4937041401863098,-9.703653335571289
1745670682.770405,0.007528499700129032,-0.0166628360748291,-0.32267773151397705,0.5594524145126343,-0.8001587986946106,-9.733747482299805
1745670682.8018265,-0.020017346367239952,-0.012000811286270618,-0.3236384391784668,0.35755637288093567,-0.4693410396575928,-9.786520004272461
1745670682.8041372,-0.000260005152085796,-0.011158015578985214,-0.32510146498680115,0.4935285449028015,-0.7918535470962524,-9.850351333618164
1745670682.809221,0.0019441309850662947,-0.019619880244135857,-0.32108816504478455,0.4591129720211029,-0.45822873711586,-9.643739700317383
1745670682.8109028,-0.010702375322580338,-0.009519798681139946,-0.32336312532424927,0.4282023012638092,-0.5895591974258423,-9.833932876586914
1745670682.8452153,0.00499488040804863,-0.007792024873197079,-0.3088798522949219,0.32437556982040405,-0.24702969193458557,-9.815589904785156
1745670682.8471959,-0.016413655132055283,-0.012112535536289215,-0.30883604288101196,0.5720260739326477,-0.773750901222229,-9.895987510681152
1745670682.8498023,0.0153893381357193,-0.01405015867203474,-0.3076576590538025,0.27031058073043823,-0.4133686125278473,-9.714069366455078
1745670682.851046,0.0006906163180246949,-0.015031370334327221,-0.30671533942222595,0.5063086152076721,-0.5443490743637085,-9.676214218139648
1745670682.8540366,0.010442990809679031,-0.015317981131374836,-0.30672815442085266,0.4240768849849701,-0.6120287179946899,-9.915372848510742
1745670682.8896492,0.02168278396129608,-0.007099194917827845,-0.30583760142326355,0.4915146231651306,-0.46171826124191284,-9.64882755279541
1745670682.894823,0.00946346390992403,-0.01630989834666252,-0.3042336702346802,0.551982581615448,-0.6680509448051453,-9.538129806518555
1745670682.898698,0.01356746256351471,-0.01123786997050047,-0.30420711636543274,0.35605841875076294,-0.5423914194107056,-9.864217758178711
1745670682.898761,0.007060042582452297,-0.01586083322763443,-0.3021610677242279,0.5366967916488647,-0.8304703831672668,-10.051401138305664
1745670682.9324274,0.007564825471490622,-0.008552231825888157,-0.3051420748233795,0.304760605096817,-0.3145258128643036,-9.640732765197754
1745670682.9355302,0.0009959719609469175,-0.013669699430465698,-0.30551877617836,0.49552756547927856,-0.8245941400527954,-9.4855318069458
1745670682.938309,0.017133809626102448,-0.014219951815903187,-0.3050508201122284,0.4386215806007385,-0.2889660894870758,-9.599069595336914
1745670682.9383752,-0.0035193979274481535,-0.005823367275297642,-0.30640560388565063,0.5745874643325806,-0.626444399356842,-10.028458595275879
1745670682.9397159,0.02261534333229065,-0.013889054767787457,-0.30436331033706665,0.402748167514801,-0.6484130620956421,-9.932451248168945
1745670682.981604,0.01754963956773281,-0.008898962289094925,-0.302003413438797,0.3602563440799713,-0.3966652750968933,-9.569587707519531
1745670682.9842005,0.019812408834695816,-0.0171645600348711,-0.30243200063705444,0.5357924699783325,-0.790275514125824,-9.663737297058105
1745670682.9871883,0.029389947652816772,-0.011112995445728302,-0.3003312647342682,0.3390965163707733,-0.280880331993103,-9.724065780639648
1745670682.9912868,0.028767531737685204,-0.010803664103150368,-0.299940824508667,0.6123625636100769,-0.6744197010993958,-9.780486106872559
1745670683.0159478,0.02694660797715187,-0.012757773511111736,-0.3020692765712738,0.3762868046760559,-0.4719246029853821,-9.794647216796875
1745670683.018704,0.032832227647304535,-0.009000369347631931,-0.3022986948490143,0.4619170129299164,-0.6704418659210205,-9.769869804382324
1745670683.0222044,0.02369660511612892,-0.015268577262759209,-0.30144965648651123,0.4328135848045349,-0.5284300446510315,-9.667834281921387
1745670683.024603,0.018972594290971756,-0.010904548689723015,-0.30271783471107483,0.3477303981781006,-0.7343957424163818,-9.799541473388672
1745670683.0278933,0.037851665169000626,-0.008291857317090034,-0.29958009719848633,0.4466173052787781,-0.5464624166488647,-9.69792652130127
1745670683.0623786,0.029552757740020752,-0.013729376718401909,-0.2993568480014801,0.5735522508621216,-0.7100249528884888,-9.88522720336914
1745670683.0639472,0.03115331195294857,-0.006456644739955664,-0.2973676323890686,0.3515990972518921,-0.5556665658950806,-9.916345596313477
1745670683.066352,0.03727154806256294,-0.0104488804936409,-0.297829806804657,0.5270673632621765,-0.6206303238868713,-9.580842018127441
1745670683.0696123,0.013741363771259785,-0.013536070473492146,-0.2981806695461273,0.2994662821292877,-0.6073203086853027,-9.691295623779297
1745670683.104649,0.04952472075819969,-0.008944270201027393,-0.29849299788475037,0.490302711725235,-0.5906118750572205,-9.812723159790039
1745670683.106707,0.01797013357281685,-0.012281753122806549,-0.29591450095176697,0.49377623200416565,-0.40712770819664,-9.775589942932129
1745670683.109038,0.04396165907382965,-0.0027335851918905973,-0.29911118745803833,0.4400196969509125,-0.6663759350776672,-9.76948070526123
1745670683.1120324,0.03874552994966507,-0.015351344831287861,-0.29690152406692505,0.4987355172634125,-0.4847726821899414,-9.674322128295898
1745670683.1444917,0.03659970313310623,-0.007342934608459473,-0.2971765995025635,0.3284619152545929,-0.5928235054016113,-9.893904685974121
1745670683.147621,0.050164591521024704,-0.01079145260155201,-0.2948988080024719,0.4798510670661926,-0.6571723222732544,-9.763591766357422
1745670683.1488261,0.039319198578596115,-0.007484070025384426,-0.2929033041000366,0.3731990456581116,-0.5193027257919312,-9.59031867980957
1745670683.1516075,0.048454053699970245,-0.0073455385863780975,-0.29314032196998596,0.5967240333557129,-0.6793407797813416,-9.698023796081543
1745670683.1532657,0.026740778237581253,-0.012136649340391159,-0.2941776216030121,0.464901864528656,-0.675552248954773,-9.973469734191895
1745670683.1903799,0.040134526789188385,-0.018715281039476395,-0.28432759642601013,0.48626774549484253,-0.8030474781990051,-9.943399429321289
1745670683.1910079,0.048708897083997726,-0.011309479363262653,-0.28171685338020325,0.40169697999954224,-0.7146051526069641,-9.85339641571045
1745670683.1920688,0.0321987122297287,-0.01850220561027527,-0.2797820568084717,0.5832309722900391,-0.9202196002006531,-9.693713188171387
1745670683.1948287,0.02706533670425415,-0.01679401472210884,-0.28014689683914185,0.41179242730140686,-0.5104383826255798,-9.687650680541992
1745670683.2333183,0.03796744346618652,-0.01858753338456154,-0.2789577841758728,0.5478765964508057,-0.8322906494140625,-9.850839614868164
1745670683.2345796,0.0244776401668787,-0.015448221936821938,-0.2805808484554291,0.31239476799964905,-0.3165094256401062,-9.739648818969727
1745670683.2395453,0.03007616102695465,-0.011839265935122967,-0.2838082015514374,0.44989266991615295,-0.8095710873603821,-9.74809455871582
1745670683.239593,0.03922214359045029,-0.025132954120635986,-0.2822340428829193,0.3664174973964691,-0.5520893931388855,-9.679362297058105
1745670683.2761128,0.025978554040193558,-0.016821574419736862,-0.2812104821205139,0.45657485723495483,-0.6276364922523499,-9.845442771911621
1745670683.279289,0.03885478898882866,-0.01707368530333042,-0.27739396691322327,0.5745213031768799,-0.865738570690155,-9.910595893859863
1745670683.2834702,0.030616456642746925,-0.015618706122040749,-0.2798458933830261,0.45597219467163086,-0.5256907939910889,-9.649151802062988
1745670683.287716,0.031135965138673782,-0.019954180344939232,-0.2743648886680603,0.6057871580123901,-0.8417184948921204,-9.686689376831055
1745670683.2924085,0.028311068192124367,-0.023855865001678467,-0.2753365635871887,0.32991766929626465,-0.5813199281692505,-9.887166023254395
1745670683.3199449,0.033463191241025925,-0.015752121806144714,-0.2762719392776489,0.4867628216743469,-0.773706316947937,-9.871183395385742
1745670683.3227854,0.017429355531930923,-0.025802820920944214,-0.27682337164878845,0.41342633962631226,-0.48292964696884155,-9.628898620605469
1745670683.3283365,0.03431102633476257,-0.019303709268569946,-0.2786811292171478,0.4311216473579407,-0.7280974984169006,-9.70889663696289
1745670683.334112,0.02242925949394703,-0.024446934461593628,-0.2795563042163849,0.5210717916488647,-0.5444525480270386,-9.714006423950195
1745670683.3605442,0.014453060925006866,-0.015703266486525536,-0.27880269289016724,0.39009517431259155,-0.7878941297531128,-9.92983341217041
1745670683.364314,0.04184870049357414,-0.02479465678334236,-0.277226984500885,0.5397345423698425,-0.7440169453620911,-9.716669082641602
1745670683.3689773,0.00984889641404152,-0.02558167278766632,-0.2755274772644043,0.3681827485561371,-0.6155624389648438,-9.736793518066406
1745670683.3718586,0.035792041569948196,-0.02026202902197838,-0.27309128642082214,0.5662940144538879,-0.8335545659065247,-9.835592269897461
1745670683.375847,0.02006326988339424,-0.025560840964317322,-0.27405887842178345,0.4363693296909332,-0.5112320780754089,-9.67949390411377
1745670683.4074152,-0.0008389718132093549,-0.02348029613494873,-0.2735547423362732,0.48763108253479004,-0.7632418274879456,-9.92101764678955
1745670683.4074552,0.043356336653232574,-0.018338322639465332,-0.2732717990875244,0.39917466044425964,-0.5784199833869934,-9.894216537475586
1745670683.418157,0.010332690551877022,-0.02827989123761654,-0.2732327878475189,0.4420747756958008,-0.6501883268356323,-9.661287307739258
1745670683.4182086,0.03562767431139946,-0.019057629629969597,-0.27294856309890747,0.3356403410434723,-0.6487600207328796,-9.716078758239746
1745670683.448385,0.028250882402062416,-0.023344293236732483,-0.27283865213394165,0.5182338953018188,-0.6319732069969177,-9.660097122192383
1745670683.4534779,0.029430245980620384,-0.0219377800822258,-0.2729969322681427,0.33714646100997925,-0.5968135595321655,-9.743619918823242
1745670683.4535394,0.02852023020386696,-0.019103435799479485,-0.27388477325439453,0.5020191669464111,-0.7788438200950623,-9.796431541442871
1745670683.4636357,0.019659101963043213,-0.025523889809846878,-0.271974116563797,0.3940644860267639,-0.7657021284103394,-9.861480712890625
1745670683.4636796,0.024546796455979347,-0.01911184936761856,-0.2718645930290222,0.4833502173423767,-0.5962944030761719,-9.738637924194336
1745670683.4957924,0.003755237441509962,-0.030080026015639305,-0.2713591754436493,0.49231404066085815,-0.9985514879226685,-9.773080825805664
1745670683.5010555,0.0311687383800745,-0.01986626908183098,-0.269978791475296,0.40506991744041443,-0.4424212872982025,-9.631584167480469
1745670683.5056899,-0.008557920344173908,-0.020597180351614952,-0.2709295153617859,0.607184886932373,-0.8463282585144043,-9.75279426574707
1745670683.509225,0.026548003777861595,-0.020055707544088364,-0.270906001329422,0.2422555387020111,-0.5626324415206909,-9.822985649108887
1745670683.5345635,0.01395065151154995,-0.022711152210831642,-0.27102455496788025,0.4860718846321106,-0.5942420363426208,-9.741185188293457
1745670683.539004,0.010045087896287441,-0.020445089787244797,-0.26225462555885315,0.4404076635837555,-0.6882966756820679,-9.770593643188477
1745670683.5432975,-0.024534981697797775,-0.027846742421388626,-0.2611362338066101,0.5227432250976562,-0.5563963651657104,-9.69643783569336
1745670683.5548105,-0.0053731598891317844,-0.018044766038656235,-0.25960054993629456,0.2985099256038666,-0.695788562297821,-9.863041877746582
1745670683.578062,-0.0013231092598289251,-0.022821446880698204,-0.2605603337287903,0.440161794424057,-0.6105260252952576,-9.697830200195312
1745670683.5822308,-0.006763904355466366,-0.02265009842813015,-0.2573584020137787,0.2399776726961136,-0.540132999420166,-9.692962646484375
1745670683.58574,0.0059725940227508545,-0.022618860006332397,-0.2564018666744232,0.45986777544021606,-0.6856641173362732,-9.730741500854492
1745670683.5858324,0.005647371523082256,-0.0259155984967947,-0.2550508379936218,0.30144044756889343,-0.5090871453285217,-9.834101676940918
1745670683.620098,0.004080258309841156,-0.01539869885891676,-0.2594546675682068,0.38585060834884644,-0.657707154750824,-9.859390258789062
1745670683.6311147,-0.005762605462223291,-0.026949752122163773,-0.25701355934143066,0.3828170895576477,-0.7762702703475952,-9.723897933959961
1745670683.6511257,0.009841576218605042,-0.02147667109966278,-0.2576211094856262,0.3294822573661804,-0.5968233942985535,-9.61961555480957
1745670683.6513565,-0.020656850188970566,-0.024918485432863235,-0.25397923588752747,0.46345001459121704,-0.9684984087944031,-9.857305526733398
1745670683.651438,-0.005722946487367153,-0.017918692901730537,-0.25469788908958435,0.3127087652683258,-0.5458399057388306,-9.785686492919922
1745670683.668618,-0.021678512915968895,-0.020538631826639175,-0.25245246291160583,0.4894120693206787,-0.8311372995376587,-9.707416534423828
1745670683.6686914,-0.01097969152033329,-0.028102165088057518,-0.25493454933166504,0.2316640317440033,-0.5272031426429749,-9.75765609741211
1745670683.6711383,-0.004574480466544628,-0.01820252276957035,-0.2514156401157379,0.4211803376674652,-0.566377580165863,-9.746750831604004
1745670683.7049108,-0.012245495803654194,-0.022132059559226036,-0.2537042498588562,0.3079824149608612,-0.6456329226493835,-9.774351119995117
1745670683.7078004,0.003211408155038953,-0.01691565476357937,-0.25110822916030884,0.2495911419391632,-0.49722784757614136,-9.656377792358398
1745670683.7103636,-0.004744310863316059,-0.024433884769678116,-0.24956679344177246,0.40610748529434204,-0.7108086347579956,-9.703187942504883
1745670683.7169755,-0.002648536581546068,-0.018635589629411697,-0.24790163338184357,0.24034905433654785,-0.5979297757148743,-9.892838478088379
1745670683.7204201,0.0037944994401186705,-0.018046220764517784,-0.24802644550800323,0.5226377248764038,-0.7800432443618774,-9.813514709472656
1745670683.7529125,-0.012692615389823914,-0.021909378468990326,-0.24811533093452454,0.27091413736343384,-0.4631710946559906,-9.669310569763184
1745670683.7540143,0.0035422644577920437,-0.011700684204697609,-0.24331310391426086,0.42918118834495544,-0.6493393778800964,-9.81775188446045
1745670683.7540545,-0.006226104684174061,-0.020126311108469963,-0.2450793981552124,0.3678414821624756,-0.7232167720794678,-9.772626876831055
1745670683.7561777,-0.0014443204272538424,-0.011430354788899422,-0.2406274974346161,0.2956693768501282,-0.6252767443656921,-9.740354537963867
1745670683.790568,-0.011060375720262527,-0.02098875120282173,-0.2396489679813385,0.46468329429626465,-0.816027820110321,-9.758299827575684
1745670683.793557,0.00018200390331912786,-0.012568281963467598,-0.24038906395435333,0.1867692470550537,-0.3626081347465515,-9.781984329223633
1745670683.7957397,-0.012012725695967674,-0.014326831325888634,-0.23919343948364258,0.4112960696220398,-0.7266178131103516,-9.746655464172363
1745670683.79707,-0.001465432345867157,-0.016158893704414368,-0.24006740748882294,0.22174838185310364,-0.5301377773284912,-9.690269470214844
1745670683.799417,0.006119324825704098,-0.014734148979187012,-0.23609212040901184,0.2776656448841095,-0.6072279214859009,-9.724501609802246
1745670683.8390152,-0.01328539289534092,-0.017297962680459023,-0.23511485755443573,0.2675451338291168,-0.8832095265388489,-9.893647193908691
1745670683.8390732,-0.0017719498137012124,-0.008246475830674171,-0.2286786139011383,-0.034165333956480026,-0.6927418112754822,-9.835687637329102
1745670683.8425577,-0.02561960741877556,-0.02068961039185524,-0.2262655794620514,0.20376379787921906,-0.826901912689209,-9.586992263793945
1745670683.8443065,-0.016669709235429764,-0.013446512632071972,-0.2253865897655487,0.07336284220218658,-0.426064670085907,-9.608765602111816
1745670683.8788908,-0.030602533370256424,-0.018547004088759422,-0.2269420176744461,0.3502298891544342,-0.632659912109375,-9.920555114746094
1745670683.879593,-0.013718309812247753,-0.020861487835645676,-0.22607901692390442,0.23473504185676575,-0.4973708987236023,-9.969781875610352
1745670683.8817155,-0.028124278411269188,-0.016755351796746254,-0.22167201340198517,0.2906845211982727,-0.595108687877655,-9.764800071716309
1745670683.8854263,-0.016953179612755775,-0.013921421952545643,-0.1856364905834198,0.4353768229484558,-0.5753487348556519,-9.943746566772461
1745670683.8855069,-0.03092082403600216,-0.016294533386826515,-0.18447312712669373,0.3703109323978424,-0.47412294149398804,-9.919164657592773
1745670683.9221897,-0.003379983128979802,-0.006176061928272247,-0.18383033573627472,0.31162670254707336,-0.31563320755958557,-9.6321382522583
1745670683.9225914,-0.024022739380598068,-0.0163818821310997,-0.1868075430393219,0.312806099653244,-0.45943814516067505,-9.649158477783203
1745670683.925608,0.0003174068406224251,-0.008549768477678299,-0.19094190001487732,0.125684916973114,-0.18865753710269928,-9.866212844848633
1745670683.9292011,-0.017116766422986984,-0.012587541714310646,-0.19467678666114807,0.4157191812992096,-0.539565920829773,-9.871294975280762
1745670683.966028,-0.0029709050431847572,-0.006510227918624878,-0.19480742514133453,0.2228631228208542,-0.38082456588745117,-9.762290000915527
1745670683.9693227,-0.002856283215805888,-0.009929121471941471,-0.1942518949508667,0.5276869535446167,-0.6387659311294556,-9.67971134185791
1745670683.9693785,-0.0209908839315176,-0.013471156358718872,-0.19344750046730042,0.5192179083824158,-0.8366923332214355,-9.959494590759277
1745670683.9742587,0.007174646016210318,-0.005180533975362778,-0.187362402677536,0.37619274854660034,-0.5828518867492676,-9.909528732299805
1745670684.010656,-0.019005117937922478,-0.0074287643656134605,-0.18576565384864807,0.34031203389167786,-0.698323130607605,-9.601325988769531
1745670684.0107303,-0.005390559788793325,-0.0009562259656377137,-0.1869467794895172,0.25571829080581665,-0.3840096592903137,-9.550997734069824
1745670684.018162,-0.012761058285832405,-0.005771503783762455,-0.19058163464069366,0.3526356816291809,-0.512022852897644,-9.893157005310059
1745670684.0201414,-0.008779567666351795,-0.002783786039799452,-0.19481709599494934,0.14741738140583038,-0.2349676787853241,-9.993780136108398
1745670684.0215833,-0.0012332724872976542,0.0015385171864181757,-0.19715000689029694,0.36909347772598267,-0.4348009526729584,-9.681821823120117
1745670684.052504,-0.010467952117323875,-0.005997464992105961,-0.19724801182746887,0.3424714207649231,-0.5609255433082581,-9.589825630187988
1745670684.053888,-0.002780481008812785,0.000736663059797138,-0.19550864398479462,0.48763307929039,-0.5379544496536255,-9.78883171081543
1745670684.0617604,-0.018158774822950363,-0.005169243551790714,-0.19460180401802063,0.4799227714538574,-0.7488109469413757,-10.06202220916748
1745670684.066368,0.012298720888793468,0.007584845181554556,-0.18850640952587128,0.3385722041130066,-0.36621344089508057,-9.735933303833008
1745670684.0920546,-0.010680624283850193,-0.0002040362887782976,-0.18963569402694702,0.4391877055168152,-0.5119272470474243,-9.592999458312988
1745670684.0942504,0.014377486892044544,-0.004476753994822502,-0.18902739882469177,0.20833078026771545,-0.3857603073120117,-9.854272842407227
1745670684.0969977,0.002754645887762308,-0.005335814319550991,-0.19383230805397034,0.2018612176179886,-0.4591742157936096,-10.063177108764648
1745670684.099821,0.015075139701366425,0.00429125502705574,-0.1930096447467804,0.340353399515152,-0.35025128722190857,-9.786279678344727
1745670684.1366277,0.013962428085505962,0.00531007582321763,-0.19466373324394226,0.3545600175857544,-0.48245948553085327,-9.504354476928711
1745670684.1399612,0.022110816091299057,0.006749547086656094,-0.1945834457874298,0.09831081330776215,-0.2701919674873352,-9.679117202758789
1745670684.145379,0.022900333628058434,-0.005557515192776918,-0.19482144713401794,0.5718396902084351,-0.6403785943984985,-9.885435104370117
1745670684.1454687,0.032143160700798035,0.00855195801705122,-0.19581446051597595,0.3637373745441437,-0.3087517023086548,-9.894668579101562
1745670684.1487505,0.018609270453453064,0.010360817424952984,-0.19486014544963837,0.4654671549797058,-0.6938008069992065,-9.780355453491211
1745670684.1830204,0.035243574529886246,-0.0047030202113091946,-0.19492359459400177,0.29984384775161743,-0.42653989791870117,-9.619699478149414
1745670684.1832678,0.020832838490605354,0.004905202426016331,-0.19320061802864075,0.46601757407188416,-0.616191029548645,-9.77431583404541
1745670684.1851473,0.024645201861858368,0.00666413689032197,-0.1944875419139862,0.40603989362716675,-0.5584656596183777,-9.893941879272461
1745670684.1872346,0.024791596457362175,0.0031962604261934757,-0.19591745734214783,0.16472287476062775,-0.3372938930988312,-9.729597091674805
1745670684.2215202,0.024097014218568802,0.0006802277639508247,-0.19557586312294006,0.47482794523239136,-0.6228718161582947,-9.552732467651367
1745670684.227136,0.025813404470682144,0.0060011474415659904,-0.19766445457935333,0.24558702111244202,-0.3001270890235901,-9.76732063293457
1745670684.229016,0.0233614481985569,0.0014221728779375553,-0.19799134135246277,0.44867682456970215,-0.8081005811691284,-10.041242599487305
1745670684.2300692,0.02496103011071682,-0.0011724896030500531,-0.19656714797019958,0.3100954592227936,-0.3197680115699768,-9.71895980834961
1745670684.2331214,-0.013372090645134449,-0.009131799452006817,-0.1987534761428833,0.23547105491161346,-0.5056736469268799,-9.638799667358398
1745670684.265098,0.023101555183529854,-0.009516171179711819,-0.19781914353370667,0.3217926621437073,-0.6006641983985901,-9.509648323059082
1745670684.266545,-0.009627068415284157,-0.01214538887143135,-0.1972266137599945,0.49062928557395935,-0.5176057815551758,-9.775627136230469
1745670684.2696085,0.010329755954444408,-0.0027263700030744076,-0.1997455209493637,0.2680457532405853,-0.5668855905532837,-10.076894760131836
1745670684.2710373,0.007591529283672571,-0.010286073200404644,-0.19777937233448029,0.46382659673690796,-0.5515848398208618,-9.556283950805664
1745670684.3166983,0.002034506294876337,-0.007490950636565685,-0.1978730708360672,0.3081977367401123,-0.464539110660553,-9.48771858215332
1745670684.3167748,0.00996046606451273,-0.009162324480712414,-0.19690391421318054,0.4338042140007019,-0.6869244575500488,-9.872005462646484
1745670684.3209274,-0.0073859780095517635,-0.017646053805947304,-0.19425970315933228,0.3669658303260803,-0.6415648460388184,-10.016413688659668
1745670684.3278515,0.015546144917607307,-0.0017433302709832788,-0.1953979730606079,0.346379816532135,-0.3758508265018463,-9.671208381652832
1745670684.327962,-0.01436857134103775,-0.014417089521884918,-0.19514738023281097,0.33922499418258667,-0.7302206754684448,-9.573991775512695
1745670684.3528504,0.020164087414741516,-0.011300401762127876,-0.19599758088588715,0.315557062625885,-0.23828840255737305,-9.603490829467773
1745670684.3550215,-0.016869548708200455,-0.013133920729160309,-0.19864901900291443,0.5414794683456421,-0.7589055895805359,-10.032451629638672
1745670684.3576503,0.015080896206200123,-0.007523653097450733,-0.1967872530221939,0.2401687204837799,-0.5059988498687744,-9.923032760620117
1745670684.3610547,-0.00015565045760013163,-0.0071744294837117195,-0.19846710562705994,0.4324316084384918,-0.4393710494041443,-9.49949836730957
1745670684.3937945,-0.007144550792872906,-0.01568739116191864,-0.19502606987953186,0.40612849593162537,-0.7558566331863403,-9.625943183898926
1745670684.3975475,0.011765850707888603,-0.012537193484604359,-0.1906624585390091,0.3438279330730438,-0.40991052985191345,-9.932470321655273
1745670684.3993924,-0.0012249031569808722,-0.0132952481508255,-0.19129803776741028,0.18016351759433746,-0.6360147595405579,-9.985696792602539
1745670684.4022634,0.006609479896724224,-0.00775147695094347,-0.18572071194648743,0.1754884570837021,-0.5846723914146423,-9.51116943359375
1745670684.4376113,-0.008262629620730877,-0.02367444522678852,-0.18559999763965607,0.18511047959327698,-0.7470423579216003,-9.605490684509277
1745670684.4418304,-0.013181807473301888,-0.012970666401088238,-0.1818833202123642,-0.029335666447877884,-0.42540398240089417,-9.92299747467041
1745670684.4446435,-0.025943037122488022,-0.014543091878294945,-0.18132905662059784,0.21046724915504456,-0.732979953289032,-9.874837875366211
1745670684.4488425,-0.016245048493146896,-0.020454173907637596,-0.1820875108242035,0.25332558155059814,-0.3451506793498993,-9.491686820983887
1745670684.4830384,-0.016863474622368813,-0.024526644498109818,-0.16386662423610687,0.24433200061321259,-0.43524807691574097,-9.92516803741455
1745670684.4884708,-0.017998073250055313,-0.02242274582386017,-0.1657065451145172,0.04763330519199371,-0.28708532452583313,-9.885274887084961
1745670684.4885125,-0.0013312766095623374,-0.022006459534168243,-0.1664734184741974,0.3632358908653259,-0.45708638429641724,-9.522720336914062
1745670684.4924355,-0.03219567611813545,-0.030908960849046707,-0.16583068668842316,0.17719921469688416,-0.6146326065063477,-9.803499221801758
1745670684.4939246,-0.015812847763299942,-0.021936649456620216,-0.16275867819786072,0.2632267475128174,-0.7115219235420227,-9.950465202331543
1745670684.5258071,-0.03404567390680313,-0.023739347234368324,-0.1561611145734787,0.30286622047424316,-0.81580650806427,-9.751432418823242
1745670684.5270786,-0.047858189791440964,-0.02270721271634102,-0.15485398471355438,0.19723902642726898,-0.5434929132461548,-9.582056999206543
1745670684.52916,-0.03433258831501007,-0.0319262333214283,-0.1520995944738388,0.3921672999858856,-0.5807933807373047,-9.768529891967773
1745670684.530859,-0.05474996566772461,-0.025568241253495216,-0.1545756459236145,0.08146514743566513,-0.2976282238960266,-10.056695938110352
1745670684.5660307,-0.02787545695900917,-0.020272303372621536,-0.1540060192346573,0.20131182670593262,-0.5198220014572144,-9.757347106933594
1745670684.5682044,-0.046313680708408356,-0.030762696638703346,-0.15261882543563843,0.122856006026268,-0.4105461537837982,-9.487617492675781
1745670684.5700188,-0.03875312954187393,-0.02727954089641571,-0.15099123120307922,0.12758150696754456,-0.5453607439994812,-9.880219459533691
1745670684.5743346,-0.0383901409804821,-0.028425440192222595,-0.14750352501869202,0.23426108062267303,-0.5752591490745544,-9.997411727905273
1745670684.577658,-0.04655828699469566,-0.01814010925590992,-0.14572665095329285,0.13879656791687012,-0.5245990753173828,-9.702802658081055
1745670684.6128037,-0.02292773872613907,-0.0139410849660635,-0.13905182480812073,0.10416313260793686,-0.1666681319475174,-9.971536636352539
1745670684.6185508,-0.04321535676717758,-0.0024160449393093586,-0.14353156089782715,0.20621326565742493,-0.25833913683891296,-9.992578506469727
1745670684.6217067,-0.0366172157227993,-0.009782573208212852,-0.1426733285188675,0.23209428787231445,-0.4661896824836731,-9.678751945495605
1745670684.626034,-0.021677229553461075,-0.007350562606006861,-0.14089833199977875,0.29327577352523804,-0.13800641894340515,-9.496079444885254
1745670684.6584184,-0.05029832571744919,-0.011610213667154312,-0.1408185064792633,0.36318686604499817,-0.6967516541481018,-10.017081260681152
1745670684.6585946,-0.021595424041152,-0.002079303842037916,-0.14036443829536438,0.21570143103599548,-0.15002143383026123,-9.92416000366211
1745670684.658693,-0.05348634719848633,-0.005902106873691082,-0.142012357711792,0.4220535159111023,-0.5840153694152832,-9.679990768432617
1745670684.6587477,-0.03409188613295555,-0.008077770471572876,-0.14025253057479858,0.1072564348578453,-0.23757588863372803,-9.687006950378418
1745670684.6954587,-0.0494680181145668,-0.005612614564597607,-0.14220228791236877,0.33379802107810974,-0.39979153871536255,-9.871194839477539
1745670684.6993058,-0.04124409705400467,-0.0068847863003611565,-0.1431458443403244,0.08394886553287506,-0.31631457805633545,-9.96496295928955
1745670684.7002006,-0.029166966676712036,-0.0028460370376706123,-0.1439206600189209,0.23422177135944366,-0.1923750340938568,-9.604789733886719
1745670684.7045975,-0.03912854939699173,-0.003903182689100504,-0.14190366864204407,0.306731253862381,-0.4073387682437897,-9.632997512817383
1745670684.7060173,-0.028528261929750443,-0.0005455769132822752,-0.14060726761817932,0.17266640067100525,-0.2020299732685089,-9.868882179260254
1745670684.7440941,-0.031454313546419144,-0.002227185759693384,-0.14183320105075836,0.4019579291343689,-0.535794734954834,-9.919840812683105
1745670684.7489145,-0.027597647160291672,-0.0008459946257062256,-0.14123760163784027,0.12121053040027618,-0.10525999963283539,-9.775197982788086
1745670684.749192,-0.023847321048378944,-0.0010176110081374645,-0.1400301307439804,0.33376994729042053,-0.5167735815048218,-9.70973014831543
1745670684.751285,-0.027589667588472366,-0.004906375892460346,-0.14180198311805725,0.17895753681659698,-0.07937177270650864,-9.696377754211426
1745670684.7831976,-0.02889684960246086,-0.0004268932971172035,-0.14255757629871368,0.28984206914901733,-0.4187169075012207,-9.882316589355469
1745670684.7882683,-0.025563308969140053,-0.0035581134725362062,-0.14108704030513763,0.2766147255897522,-0.32657575607299805,-9.796274185180664
1745670684.788314,-0.031066041439771652,0.0013748196652159095,-0.14418871700763702,0.14070168137550354,-0.23577603697776794,-9.719783782958984
1745670684.7936914,-0.023917336016893387,-0.00416142214089632,-0.14116045832633972,0.37859171628952026,-0.49859562516212463,-9.68300724029541
1745670684.8352554,-0.034102655947208405,-0.0016345370095223188,-0.1422693431377411,0.18471267819404602,-0.20074185729026794,-9.8594970703125
1745670684.8353426,-0.019180169329047203,-0.001073450781404972,-0.1403551995754242,0.3957502841949463,-0.48708969354629517,-9.935056686401367
1745670684.8354077,-0.01760992221534252,0.0003856613184325397,-0.1411699801683426,0.32003962993621826,-0.2824881374835968,-9.756332397460938
1745670684.83546,-0.020164567977190018,-0.00044728777720592916,-0.14424245059490204,0.19902482628822327,-0.2699892222881317,-9.716821670532227
1745670684.838091,-0.005253209266811609,-0.002187186386436224,-0.14224186539649963,0.3842179775238037,-0.33738499879837036,-9.74559497833252
1745670684.8979409,-0.027902524918317795,-0.0016288321930915117,-0.14378224313259125,0.20049813389778137,-0.2575838565826416,-9.889159202575684
1745670684.898083,-0.00095669663278386,0.006957619450986385,-0.1402100771665573,0.3279281556606293,-0.35969609022140503,-9.671854019165039
1745670684.8981752,-0.0292520672082901,-0.0036381494719535112,-0.14138789474964142,0.2975969910621643,-0.3000125288963318,-9.607656478881836
1745670684.898897,-0.0025472051929682493,0.00283905235119164,-0.1404399424791336,0.22291962802410126,-0.3185476064682007,-9.848367691040039
1745670684.917363,-0.01756536401808262,-0.0019215017091482878,-0.1403743475675583,0.3300657570362091,-0.3406659960746765,-9.902137756347656
1745670684.9174528,-0.012576634995639324,0.0031947349198162556,-0.14072294533252716,0.11418880522251129,-0.28066587448120117,-9.822265625
1745670684.9207683,-0.005682189948856831,3.311559703433886e-05,-0.14169541001319885,0.37939295172691345,-0.346810907125473,-9.532075881958008
1745670684.9215446,-0.02441960573196411,-0.0008292716229334474,-0.13809046149253845,0.21235616505146027,-0.3455028831958771,-9.762872695922852
1745670684.9237614,0.001450555631890893,0.0018888715421780944,-0.14033475518226624,0.33929118514060974,-0.2500521242618561,-9.853962898254395
1745670684.9798198,-0.027495820075273514,-0.0022671304177492857,-0.14239534735679626,0.304411381483078,-0.3759966492652893,-9.797657012939453
1745670684.9800038,0.010350997559726238,-0.009588800370693207,-0.13553717732429504,0.47146835923194885,-0.25943437218666077,-9.817914009094238
1745670684.9953837,-0.010146355256438255,-0.001290297252126038,-0.13816724717617035,0.16339150071144104,-0.15124085545539856,-9.994361877441406
1745670684.9954495,0.011203108355402946,-0.0011837946949526668,-0.136093407869339,0.4572555422782898,-0.3946175277233124,-9.660836219787598
1745670685.0000508,-0.008955135941505432,-0.007254341151565313,-0.1355646550655365,0.33134692907333374,-0.14008431136608124,-9.554808616638184
1745670685.002738,0.0012590850237756968,-0.0022083031944930553,-0.1356113702058792,0.2686331272125244,-0.39719995856285095,-10.006274223327637
1745670685.0212324,0.0005723401554860175,-0.009911087341606617,-0.13360759615898132,0.3806251883506775,-0.24873638153076172,-9.916311264038086
1745670685.023662,0.013068640604615211,0.0056110345758497715,-0.13686418533325195,0.22239211201667786,-0.1103302612900734,-9.630714416503906
1745670685.0417836,0.0018182586645707488,-0.0061147138476371765,-0.13568565249443054,0.3702715039253235,-0.2908305525779724,-9.575912475585938
1745670685.0441673,0.011130742728710175,-0.007023386657238007,-0.13663670420646667,0.23156504333019257,-0.17931577563285828,-9.840373039245605
1745670685.0442696,0.01266578771173954,-0.001972888596355915,-0.1379522681236267,0.31941360235214233,-0.2820388078689575,-9.976422309875488
1745670685.0458183,-0.0015270058065652847,-0.004131772555410862,-0.13600124418735504,0.1766117960214615,-0.439765989780426,-9.817773818969727
1745670685.0840445,0.025222450494766235,-0.002427516970783472,-0.13547059893608093,0.3702125549316406,-0.1485593169927597,-9.470298767089844
1745670685.0871491,-0.015417465940117836,-0.006820794194936752,-0.13406649231910706,0.34779104590415955,-0.4460153579711914,-9.882723808288574
1745670685.089708,0.016804862767457962,-0.004322239197790623,-0.1365709751844406,0.27730002999305725,-0.24164648354053497,-9.980796813964844
1745670685.0920737,-8.578039705753326e-05,-0.0055581992492079735,-0.13300634920597076,0.45834025740623474,-0.3098622262477875,-9.711282730102539
1745670685.0933414,-0.0023320126347243786,-0.0007341487216763198,-0.13386458158493042,0.140096053481102,-0.2862659692764282,-9.709992408752441
1745670685.1268346,0.003042429219931364,-0.01162775605916977,-0.13560554385185242,0.4432644844055176,-0.2675909698009491,-9.736961364746094
1745670685.130663,0.004031189251691103,-0.007544671185314655,-0.13373000919818878,0.2592925727367401,-0.24575085937976837,-9.922240257263184
1745670685.1375756,0.005710582248866558,0.003559709759429097,-0.13370278477668762,0.23396721482276917,-0.11719361692667007,-9.872591018676758
1745670685.1500375,0.003849657718092203,-0.01614384911954403,-0.13576775789260864,0.3095281720161438,-0.38517624139785767,-9.617938041687012
1745670685.1693316,0.025594403967261314,-0.004109954461455345,-0.1365683525800705,0.35643869638442993,-0.008984136395156384,-9.588018417358398
1745670685.169889,0.001975507941097021,-0.0023582058493047953,-0.1362859457731247,0.4089122414588928,-0.41070064902305603,-10.03053092956543
1745670685.1758304,-0.003039619652554393,0.0018109686207026243,-0.1360495537519455,0.15581724047660828,-0.15673381090164185,-9.712038040161133
1745670685.1794276,0.015619991347193718,-0.014682198874652386,-0.13646772503852844,0.45716768503189087,-0.5572214722633362,-9.727951049804688
1745670685.2141502,0.005440895911306143,-0.002928095404058695,-0.1355220377445221,0.20971398055553436,-0.02628149464726448,-9.830429077148438
1745670685.221622,-0.005407017655670643,-0.0037929664831608534,-0.13591086864471436,0.3220713436603546,-0.6182442903518677,-9.993528366088867
1745670685.2270813,0.013449234887957573,-0.009804478846490383,-0.13506262004375458,0.2243620604276657,-0.1142079085111618,-9.591743469238281
1745670685.2272243,-0.004021456930786371,-0.002133007626980543,-0.1360987275838852,0.3833938241004944,-0.32558226585388184,-9.647101402282715
1745670685.2272754,0.006524390075355768,-0.008709616027772427,-0.13514401018619537,0.28959351778030396,-0.2612747251987457,-9.937644958496094
1745670685.257569,0.010408933274447918,-0.00572230014950037,-0.13678202033042908,0.3080992102622986,-0.14127568900585175,-9.850080490112305
1745670685.2603,0.009546356275677681,-0.0023094676434993744,-0.1372508555650711,0.38931193947792053,-0.3013003170490265,-9.672651290893555
1745670685.2635686,0.005202434957027435,-0.0042023370042443275,-0.13716085255146027,0.18357618153095245,-0.1396702229976654,-9.731162071228027
1745670685.2676265,0.01519734226167202,-0.008795262314379215,-0.13656726479530334,0.41660943627357483,-0.45951852202415466,-9.867439270019531
1745670685.3022978,0.004781047813594341,-0.005497762002050877,-0.13683834671974182,0.18373820185661316,-0.1263885200023651,-9.875823974609375
1745670685.3024368,0.01753568835556507,-0.000540630251634866,-0.1361871212720871,0.3500380516052246,-0.4003539979457855,-9.731352806091309
1745670685.3037958,0.010635990649461746,-0.012339862994849682,-0.13766822218894958,0.32844194769859314,-0.1528574526309967,-9.573792457580566
1745670685.307424,0.020114410668611526,-0.0009270865703001618,-0.1430288851261139,0.2018081247806549,-0.07641057670116425,-9.85277271270752
1745670685.3419073,0.013392949476838112,-0.0025503779761493206,-0.1410250961780548,0.38099098205566406,-0.4250670075416565,-9.65825366973877
1745670685.3453035,0.021587561815977097,-0.004854423459619284,-0.1431281715631485,0.22522588074207306,-0.052853893488645554,-9.605883598327637
1745670685.3474166,0.018592560663819313,-0.0015396123053506017,-0.1427612155675888,0.4110591411590576,-0.40935736894607544,-9.871147155761719
1745670685.3504114,0.011437800712883472,-0.004463759250938892,-0.14331257343292236,0.18219217658042908,-0.22702136635780334,-9.951929092407227
1745670685.354749,0.02132747694849968,-0.0010940080974251032,-0.1439286321401596,0.2957116961479187,-0.4694709777832031,-9.764384269714355
1745670685.3879926,0.009965723380446434,-0.004362206440418959,-0.14046843349933624,0.27693110704421997,-0.2652720808982849,-9.601702690124512
1745670685.3920302,0.00433638459071517,-0.004377016332000494,-0.14187394082546234,0.26326876878738403,-0.3722575604915619,-9.840638160705566
1745670685.395791,0.014503729529678822,-0.0070839920081198215,-0.14168894290924072,0.42772191762924194,-0.343458354473114,-9.871607780456543
1745670685.3983848,-0.002180231036618352,0.0019897930324077606,-0.14306198060512543,0.15353286266326904,-0.17803026735782623,-9.790870666503906
1745670685.4274538,0.011814577504992485,-0.006327438168227673,-0.1420036256313324,0.396005779504776,-0.4592009484767914,-9.678929328918457
1745670685.4305997,0.002945662010461092,-0.008842607028782368,-0.1423221379518509,0.2529371380805969,-0.10460307449102402,-9.778631210327148
1745670685.433805,0.015355462208390236,0.0005509025068022311,-0.14066143333911896,0.3576054573059082,-0.3421704173088074,-9.959702491760254
1745670685.4366992,0.0052330708131194115,-0.011340097524225712,-0.14195409417152405,0.23381558060646057,-0.23238897323608398,-9.790792465209961
1745670685.442847,0.027143707498908043,0.0005308780819177628,-0.1394546926021576,0.2564919590950012,-0.17503288388252258,-9.540105819702148
1745670685.4721599,0.01673145964741707,-0.006926150061190128,-0.13944701850414276,0.43034934997558594,-0.28099843859672546,-9.676721572875977
1745670685.4764557,0.02163744904100895,-0.0031928480602800846,-0.1402241289615631,0.1451878547668457,-0.13456209003925323,-10.043805122375488
1745670685.4787877,0.021943610161542892,-0.0033315527252852917,-0.13976910710334778,0.3755417466163635,-0.2918005585670471,-9.858707427978516
1745670685.480082,0.018069254234433174,-0.004172897897660732,-0.14027802646160126,0.22941525280475616,-0.238023042678833,-9.583405494689941
1745670685.5186214,0.02545505203306675,-0.005797131918370724,-0.1386767327785492,0.3019624352455139,-0.30016690492630005,-9.682836532592773
1745670685.5187201,0.01262394618242979,-0.01245129108428955,-0.13977327942848206,0.313419908285141,-0.3915974497795105,-9.974170684814453
1745670685.5227714,0.026211801916360855,0.002250442747026682,-0.13717196881771088,0.2627183496952057,-0.1525806188583374,-9.804990768432617
1745670685.5267556,0.009277424775063992,-0.01256022322922945,-0.1332395225763321,0.3021472096443176,-0.3846263289451599,-9.639350891113281
1745670685.5566764,0.024628812447190285,-0.004557487554848194,-0.13315394520759583,0.28653857111930847,-0.1994362324476242,-9.944852828979492
1745670685.564481,0.009785301052033901,-0.009622737765312195,-0.13149306178092957,0.3500341773033142,-0.42135897278785706,-9.941780090332031
1745670685.564554,0.018654124811291695,-0.0037551105488091707,-0.1332416534423828,0.24330708384513855,-0.15781792998313904,-9.6277437210083
1745670685.5667334,0.010468939319252968,-0.011144221760332584,-0.1330830156803131,0.4318545460700989,-0.4064989984035492,-9.66569709777832
1745670685.5704257,0.01958874985575676,-0.01005875039845705,-0.13181069493293762,0.205903097987175,-0.2418004274368286,-9.89012622833252
1745670685.6140094,0.01822769269347191,-0.002467680023983121,-0.13027110695838928,0.33530333638191223,-0.23567938804626465,-9.851162910461426
1745670685.6141095,0.014998311176896095,-0.010647943243384361,-0.13154861330986023,0.25649985671043396,-0.34382718801498413,-9.618782043457031
1745670685.6141763,0.02863449789583683,-0.005705075338482857,-0.13046661019325256,0.26326805353164673,-0.06694737821817398,-9.657712936401367
1745670685.6142387,0.01363413967192173,-0.012558436021208763,-0.13159814476966858,0.3123927116394043,-0.46605461835861206,-10.036905288696289
1745670685.6457014,0.03821871429681778,-0.0022590539883822203,-0.13213777542114258,0.18047919869422913,-0.11308908462524414,-9.823765754699707
1745670685.6480072,0.01367619913071394,-0.010140572674572468,-0.13090786337852478,0.40685877203941345,-0.43784624338150024,-9.613967895507812
1745670685.6487834,0.03469223529100418,-0.007180283777415752,-0.12970712780952454,0.20075908303260803,-0.22662726044654846,-9.705437660217285
1745670685.6510284,0.008736804127693176,-0.00466508325189352,-0.13029885292053223,0.3797021508216858,-0.4634527564048767,-9.88950252532959
1745670685.6861796,0.03191175311803818,-0.004045883193612099,-0.13893985748291016,0.36777493357658386,-0.22911784052848816,-9.90999698638916
1745670685.6907964,0.013996112160384655,-0.003934977110475302,-0.14234846830368042,0.2608524560928345,-0.3458530604839325,-9.88916301727295
1745670685.694359,0.03763555735349655,0.003618005197495222,-0.14034029841423035,0.2487928420305252,-0.32033196091651917,-9.650032043457031
1745670685.7002656,0.009165013208985329,-0.011352920904755592,-0.13925491273403168,0.3507499694824219,-0.452937513589859,-9.699554443359375
1745670685.7034352,0.03324993699789047,-0.00034165490069426596,-0.14179040491580963,0.2457018792629242,-0.27001264691352844,-9.86391830444336
1745670685.7296243,0.0045282309874892235,0.000687754072714597,-0.14171458780765533,0.4013047218322754,-0.41270676255226135,-9.84514331817627
1745670685.7326329,0.024463366717100143,-0.005419688764959574,-0.14359048008918762,0.2773427963256836,-0.3473905920982361,-9.627176284790039
1745670685.7343235,0.014299917034804821,-0.0028267744928598404,-0.14144833385944366,0.43517789244651794,-0.28276172280311584,-9.746180534362793
1745670685.7386074,0.007357676513493061,-0.004991041496396065,-0.14173533022403717,0.1919068992137909,-0.4470193386077881,-10.11233901977539
1745670685.7740583,0.030310630798339844,-7.403525614790851e-06,-0.1411801129579544,0.2736480236053467,-0.18904106318950653,-9.69578742980957
1745670685.7787197,-0.0011703352211043239,-0.00641922140493989,-0.14204582571983337,0.3090110123157501,-0.41935545206069946,-9.538429260253906
1745670685.7797215,0.03233886882662773,-0.0024411161430180073,-0.14463955163955688,0.2553778886795044,-0.13767094910144806,-9.760355949401855
1745670685.783568,0.009142788127064705,-0.008947852998971939,-0.14589668810367584,0.42634493112564087,-0.418620765209198,-10.014902114868164
1745670685.7868257,0.028341051191091537,0.0017201952869072556,-0.14388242363929749,0.2422063797712326,-0.1915515959262848,-9.826631546020508
1745670685.816566,0.013909349218010902,-0.0029743823688477278,-0.14477764070034027,0.46811991930007935,-0.4116472601890564,-9.58631706237793
1745670685.817575,0.015941979363560677,-0.007828624919056892,-0.14461861550807953,0.22595970332622528,-0.4338076710700989,-9.853715896606445
1745670685.819946,0.019433239474892616,-0.003389322431758046,-0.1451975405216217,0.3396054208278656,-0.2981698513031006,-9.88869857788086
1745670685.8210812,0.011603305116295815,-0.005020850338041782,-0.1473902016878128,0.34963637590408325,-0.46159881353378296,-9.760923385620117
1745670685.8609858,0.021598663181066513,-0.001102426671423018,-0.14412617683410645,0.2593737840652466,-0.1037924513220787,-9.594770431518555
1745670685.8622727,0.0031869541853666306,-0.0084454957395792,-0.14802511036396027,0.4070238173007965,-0.5166597962379456,-9.817936897277832
1745670685.8685727,0.023181648924946785,-0.002327836351469159,-0.147785946726799,0.173815056681633,-0.09545610845088959,-9.916549682617188
1745670685.870189,0.008351140655577183,-0.0031261774711310863,-0.14681224524974823,0.3850953280925751,-0.5594398379325867,-9.808685302734375
1745670685.9005008,0.012301473878324032,-0.006039307452738285,-0.14787070453166962,0.4362521767616272,-0.5592213869094849,-9.890146255493164
1745670685.9053338,0.013173933140933514,-0.002984512597322464,-0.14874860644340515,0.21908549964427948,-0.16138389706611633,-9.81861686706543
1745670685.9054139,0.01468098908662796,-0.004204744938760996,-0.15006284415721893,0.36814165115356445,-0.48283782601356506,-9.714031219482422
1745670685.9173086,0.015897398814558983,-0.008998917415738106,-0.14814110100269318,0.2800036072731018,-0.25264155864715576,-9.6777982711792
1745670685.9173684,0.014307238161563873,0.002226079348474741,-0.14937081933021545,0.3688926100730896,-0.3661547601222992,-9.755313873291016
1745670685.9456313,0.012788740918040276,-0.005198267754167318,-0.14900021255016327,0.34216684103012085,-0.3310622572898865,-9.814059257507324
1745670685.9508111,0.016771551221609116,-0.0009774857899174094,-0.14834822714328766,0.23966968059539795,-0.2636244297027588,-9.848773002624512
1745670685.9539897,0.024864401668310165,-0.005631598643958569,-0.14911632239818573,0.38032251596450806,-0.39677757024765015,-9.76356315612793
1745670685.9540768,0.012477796524763107,-0.0040647974237799644,-0.15104803442955017,0.19183696806430817,-0.21070809662342072,-9.74536418914795
1745670685.9990823,0.02830076590180397,-0.0028073142748326063,-0.14906302094459534,0.3687509000301361,-0.4436841905117035,-9.70554256439209
1745670685.999241,0.000299806531984359,-0.0027094329707324505,-0.15245357155799866,0.2309761345386505,-0.3099347949028015,-9.736739158630371
1745670685.9993017,0.02308906614780426,-0.0018639571499079466,-0.147726371884346,0.46202635765075684,-0.4872243404388428,-9.738271713256836
1745670685.999352,0.007468098308891058,-0.005765849258750677,-0.1480395793914795,0.36213427782058716,-0.333673894405365,-9.89467716217041
1745670686.0314848,0.010632666759192944,0.0009982266929000616,-0.1476040929555893,0.2601967751979828,-0.35144105553627014,-9.94883918762207
1745670686.035916,0.0024753690231591463,0.0027025477029383183,-0.15221348404884338,0.20205719769001007,-0.2899014949798584,-9.796285629272461
1745670686.0379622,0.025893744081258774,-0.00841807946562767,-0.149435356259346,0.42180126905441284,-0.5337506532669067,-9.730435371398926
1745670686.0399566,0.008323170244693756,-0.0019486229866743088,-0.1509769856929779,0.25283581018447876,-0.09857980161905289,-9.770538330078125
1745670686.0733707,0.007803597487509251,-0.0036004558205604553,-0.15194405615329742,0.43314188718795776,-0.6067692041397095,-9.932873725891113
1745670686.0735028,0.01756138540804386,-0.009328537620604038,-0.15088555216789246,0.2765267491340637,-0.19482886791229248,-9.738275527954102
1745670686.0923634,0.0045607322826981544,0.00201071472838521,-0.15177106857299805,0.42235857248306274,-0.4253759980201721,-9.713591575622559
1745670686.092421,0.009305465966463089,-0.0126555310562253,-0.15013185143470764,0.3295103907585144,-0.33002355694770813,-9.775351524353027
1745670686.092462,0.017585095018148422,-0.00023003379465080798,-0.1501496583223343,0.31582990288734436,-0.25080031156539917,-9.8507080078125
1745670686.1217482,0.011845474131405354,-0.004182949662208557,-0.15253478288650513,0.36514025926589966,-0.3235839307308197,-9.754220962524414
1745670686.1218355,0.012896614149212837,-0.006599011365324259,-0.15346811711788177,0.23842811584472656,-0.2338285744190216,-9.730277061462402
1745670686.126243,0.02576177380979061,-0.004905947484076023,-0.15194833278656006,0.41400519013404846,-0.36682653427124023,-9.80841064453125
1745670686.1312208,0.010864313691854477,-0.009529344737529755,-0.15431416034698486,0.2317659854888916,-0.23547641932964325,-9.858006477355957
1745670686.1469173,0.035898592323064804,-0.0028393943794071674,-0.15241074562072754,0.445910781621933,-0.45390310883522034,-9.72573184967041
1745670686.1613617,0.005842369049787521,-0.007231363095343113,-0.15344667434692383,0.3416343927383423,-0.27793484926223755,-9.670594215393066
1745670686.1637344,0.021433712914586067,-0.000832697085570544,-0.15273155272006989,0.299288272857666,-0.4828585684299469,-9.853901863098145
1745670686.166157,0.01511287223547697,-0.00961366854608059,-0.15306569635868073,0.34268584847450256,-0.33658191561698914,-9.815152168273926
1745670686.1746986,0.008206936530768871,-0.004416259936988354,-0.15367859601974487,0.20925036072731018,-0.41658926010131836,-9.850279808044434
1745670686.2016764,0.01704343780875206,-0.006307384930551052,-0.1539982259273529,0.44262829422950745,-0.3356240689754486,-9.687411308288574
1745670686.2070818,0.0015522099565714598,-0.008045828901231289,-0.1527617871761322,0.23235461115837097,-0.37140345573425293,-9.781250953674316
1745670686.2134976,0.017555147409439087,-0.0048044705763459206,-0.15306667983531952,0.40346917510032654,-0.3888217806816101,-9.782508850097656
1745670686.2195675,0.004695237148553133,-0.008795572444796562,-0.15345421433448792,0.27193018794059753,-0.31952449679374695,-9.777127265930176
1745670686.2207327,0.02060837671160698,0.0013904208317399025,-0.15300701558589935,0.28601759672164917,-0.38448771834373474,-9.738685607910156
1745670686.2469568,-0.0011250987881794572,-0.0028585470281541348,-0.1562175452709198,0.27284207940101624,-0.3814295530319214,-9.884765625
1745670686.2495918,0.021554872393608093,-0.005854218266904354,-0.15278612077236176,0.30123570561408997,-0.2883060872554779,-9.913690567016602
1745670686.2526898,0.006356620229780674,-0.008782271295785904,-0.15385878086090088,0.3954416811466217,-0.43402647972106934,-9.71156120300293
1745670686.2573686,0.02231661230325699,-0.0012527414364740252,-0.1538456678390503,0.24819417297840118,-0.18805862963199615,-9.737364768981934
1745670686.2910137,0.010261015966534615,-0.011628303676843643,-0.1528332233428955,0.4281807541847229,-0.44481125473976135,-9.788995742797852
1745670686.2951524,0.023595627397298813,-0.006001139525324106,-0.15449555218219757,0.21823811531066895,-0.26159319281578064,-9.786660194396973
1745670686.2984507,0.00810792576521635,-0.0011977028334513307,-0.15187668800354004,0.40632447600364685,-0.4890366196632385,-9.723115921020508
1745670686.3023808,0.017646867781877518,-0.0086803138256073,-0.15434882044792175,0.24267522990703583,-0.38608691096305847,-9.792023658752441
1745670686.3449864,0.012890303507447243,-0.00445890286937356,-0.15092751383781433,0.37366801500320435,-0.3525160849094391,-9.799120903015137
1745670686.3451145,-0.0019017629092559218,-0.012225890532135963,-0.1539115458726883,0.3468743860721588,-0.5116150975227356,-9.889405250549316
1745670686.3451698,0.020636577159166336,-0.003614485263824463,-0.15355321764945984,0.2923184931278229,-0.2398419827222824,-9.673067092895508
1745670686.3452206,-0.0042988574132323265,-0.006565711461007595,-0.15255796909332275,0.42380768060684204,-0.49755382537841797,-9.696207046508789
1745670686.3730946,0.00829161237925291,-0.008893527090549469,-0.1544501632452011,0.24290922284126282,-0.248591810464859,-9.83141040802002
1745670686.377524,0.00894317775964737,-0.005040552467107773,-0.15235844254493713,0.5196508169174194,-0.4855276048183441,-9.81928825378418
1745670686.3800657,-0.005518416408449411,-0.004877948202192783,-0.15046028792858124,0.3847651481628418,-0.4351775050163269,-9.926854133605957
1745670686.3839858,0.010279675014317036,-0.002966867992654443,-0.1508617401123047,0.23630638420581818,-0.12611621618270874,-9.737157821655273
1745670686.4170687,0.0021032760851085186,-0.007553915027529001,-0.15072304010391235,0.4691641926765442,-0.47201281785964966,-9.698667526245117
1745670686.42078,0.01417232770472765,-0.008376793004572392,-0.15057159960269928,0.1604810506105423,-0.2263355702161789,-9.825108528137207
1745670686.423728,0.012173933908343315,-0.0047919959761202335,-0.14919623732566833,0.33794015645980835,-0.5130879282951355,-9.743075370788574
1745670686.432694,0.009985980577766895,0.0002368902787566185,-0.144541397690773,0.2738967537879944,-0.3893715739250183,-9.618557929992676
1745670686.4366617,-0.0014715464785695076,-0.0071207694709300995,-0.14246296882629395,0.24946293234825134,-0.46101927757263184,-9.814692497253418
1745670686.4630022,-0.0006834414089098573,-0.009164358489215374,-0.14129522442817688,0.23907418549060822,-0.5110496282577515,-9.964414596557617
1745670686.4649858,0.005008121952414513,0.0026417369954288006,-0.13905443251132965,0.2648271918296814,-0.1819033920764923,-9.653796195983887
1745670686.4697065,-0.01189693994820118,-0.011947041377425194,-0.13856354355812073,0.38908708095550537,-0.5118487477302551,-9.704842567443848
1745670686.4721532,-0.0005825420957989991,-0.016709905117750168,-0.13833549618721008,0.2311352789402008,-0.1573668271303177,-9.95202922821045
1745670686.5044868,-0.010782698169350624,-0.0012967940419912338,-0.13423936069011688,0.42622995376586914,-0.5319558382034302,-9.939617156982422
1745670686.5079868,-0.006694924086332321,-0.005536139011383057,-0.13299398124217987,0.17405080795288086,-0.34348803758621216,-9.591760635375977
1745670686.5124016,-0.00044094305485486984,-0.013627007603645325,-0.12719441950321198,0.36213427782058716,-0.36636272072792053,-9.553472518920898
1745670686.5154724,-0.012316015549004078,-0.013732301071286201,-0.1266290843486786,0.3343254625797272,-0.37290018796920776,-10.02066707611084
1745670686.5180895,0.003936504479497671,-0.0021136091090738773,-0.12385863065719604,0.18627794086933136,-0.17539946734905243,-10.04671859741211
1745670686.5479624,-0.003754283534362912,-0.013967354781925678,-0.12424881756305695,0.4728794991970062,-0.3730091154575348,-9.537271499633789
1745670686.5510368,0.01154047716408968,-0.014865194447338581,-0.12724414467811584,0.21732699871063232,-0.1004355326294899,-9.637019157409668
1745670686.554442,8.257846639025956e-05,-0.011018732562661171,-0.1282639503479004,0.4040428698062897,-0.390958309173584,-10.007478713989258
1745670686.5579748,0.010309208184480667,-0.01210534293204546,-0.1268816888332367,0.244191974401474,-0.4250359535217285,-9.839689254760742
1745670686.5886497,0.00604206183925271,-0.001907932572066784,-0.12474069744348526,0.42579418420791626,-0.388493150472641,-9.463592529296875
1745670686.5931866,-0.012459484860301018,-0.017060020938515663,-0.12534897029399872,0.2894641160964966,-0.6810240149497986,-9.791362762451172
1745670686.6029222,0.004885927774012089,-0.004148448351770639,-0.12217102944850922,0.32652440667152405,-0.2970786988735199,-9.876701354980469
1745670686.6029742,-0.02703288570046425,-0.007601306773722172,-0.1289091408252716,0.21199452877044678,-0.39086589217185974,-9.923274993896484
1745670686.6030118,-0.008291544392704964,-0.001576802460476756,-0.1266007274389267,0.42618298530578613,-0.4001079499721527,-9.817197799682617
1745670686.6373103,-0.023927586153149605,-0.009476592764258385,-0.12834636867046356,0.28563395142555237,-0.27622610330581665,-9.711275100708008
1745670686.6388187,-0.008244303055107594,-0.001699446002021432,-0.12470875680446625,0.27675795555114746,-0.3532737195491791,-9.78370475769043
1745670686.6441236,-0.016011254861950874,-0.010369169525802135,-0.12522265315055847,0.44058337807655334,-0.18800827860832214,-9.838351249694824
1745670686.6457226,-0.0015228886622935534,-0.008684949949383736,-0.126434788107872,0.2734999656677246,-0.20427671074867249,-9.92044734954834
1745670686.6787205,0.0008753982256166637,-0.008498845621943474,-0.12627412378787994,0.40123528242111206,-0.3061278164386749,-9.77137565612793
1745670686.6803634,0.0005290090339258313,-0.010011954233050346,-0.1260249763727188,0.1834593117237091,-0.23377537727355957,-9.683757781982422
1745670686.6833694,0.010743534192442894,-0.006318575236946344,-0.1280124932527542,0.3118135333061218,-0.39008742570877075,-9.725597381591797
1745670686.6853046,-0.01068628765642643,-0.012838686816394329,-0.12548434734344482,0.2527886629104614,-0.3969113826751709,-9.796804428100586
1745670686.7202413,0.009118849411606789,6.705550185870379e-05,-0.12890353798866272,0.2905586361885071,-0.39621344208717346,-9.751872062683105
1745670686.721772,-0.015122303739190102,-0.014123328030109406,-0.12498418986797333,0.37358444929122925,-0.4811556339263916,-9.758746147155762
1745670686.7235196,-0.005080327857285738,-0.00639762869104743,-0.1271122395992279,0.28011488914489746,-0.3306084871292114,-9.856973648071289
1745670686.7271497,0.0006752650951966643,0.000975367147475481,-0.12491144984960556,0.30593639612197876,-0.4653986394405365,-9.858258247375488
1745670686.7633057,-0.009562212973833084,-0.008514270186424255,-0.12297830730676651,0.35234078764915466,-0.3168905973434448,-9.608201026916504
1745670686.764408,-0.005517230369150639,-0.004028389696031809,-0.12406325340270996,0.29500412940979004,-0.3435513973236084,-9.807167053222656
1745670686.7703884,-0.008430499583482742,-0.008592282421886921,-0.12445521354675293,0.42320728302001953,-0.38575008511543274,-9.91722297668457
1745670686.774533,-0.005584984552115202,-0.002087565138936043,-0.12168137729167938,0.18852457404136658,-0.14719095826148987,-9.808387756347656
1745670686.7782128,-0.005136908497661352,-0.004513978026807308,-0.12235059589147568,0.4169899821281433,-0.33518892526626587,-9.592353820800781
1745670686.8062508,-0.004364775028079748,-0.008021106012165546,-0.12258084118366241,0.22674687206745148,-0.20587828755378723,-9.769370079040527
1745670686.8077369,0.016096025705337524,-0.002586978254839778,-0.1249474436044693,0.34698736667633057,-0.15245668590068817,-9.854439735412598
1745670686.8091612,-0.0035949288867413998,-0.0028148472774773836,-0.12451223284006119,0.29676002264022827,-0.37209105491638184,-9.78805160522461
1745670686.811826,0.019975394010543823,0.0009051380911841989,-0.12361184507608414,0.2522850036621094,-0.10400988906621933,-9.54694938659668
1745670686.8503664,-0.0006872615776956081,-0.007878393866121769,-0.12372639030218124,0.43904367089271545,-0.4838416576385498,-9.78966999053955
1745670686.854576,0.015289542265236378,-0.001482149469666183,-0.12288656085729599,0.20249009132385254,-0.27988430857658386,-10.040972709655762
1745670686.8576806,0.0014095631195232272,-0.0007043107179924846,-0.12460820376873016,0.3669678568840027,-0.43650540709495544,-9.814825057983398
1745670686.8669095,0.005608922801911831,-0.005757156293839216,-0.12175305932760239,0.25650832056999207,-0.3582169711589813,-9.543651580810547
1745670686.867249,-0.0029183081351220608,-0.0037872157990932465,-0.12179739773273468,0.3763095736503601,-0.35962456464767456,-9.721693992614746
1745670686.8946576,-0.0028328178450465202,-0.005817623343318701,-0.12118222564458847,0.31126683950424194,-0.44793206453323364,-10.036813735961914
1745670686.8964036,-0.002031566109508276,0.0009780372492969036,-0.1203649491071701,0.2121601104736328,-0.2633964419364929,-9.799196243286133
1745670686.9020195,-0.014042027294635773,-0.005592286121100187,-0.12001403421163559,0.225296288728714,-0.5618930459022522,-9.575361251831055
1745670686.9021213,-0.00223058694973588,0.0009177250904031098,-0.11301776021718979,0.31266719102859497,-0.4196597635746002,-9.5930757522583
1745670686.9392252,-0.031164640560746193,-0.011520368047058582,-0.10907699912786484,0.3255672752857208,-0.5152440071105957,-10.126153945922852
1745670686.9392715,-0.01669802889227867,-0.001641593175008893,-0.10628493875265121,0.1662311851978302,-0.28922897577285767,-10.004781723022461
1745670686.9437184,-0.013957420364022255,0.006840995047241449,-0.10518183559179306,0.4301754832267761,-0.17806275188922882,-9.322524070739746
1745670686.9495673,0.0006303415866568685,-0.015835536643862724,-0.09099967777729034,0.49564480781555176,-0.1978338211774826,-9.318624496459961
1745670686.9826286,-0.005404139403253794,-0.005230175331234932,-0.08749227225780487,0.21541240811347961,-0.10124640166759491,-10.290903091430664
1745670686.9833934,0.02332235686480999,-0.002782876370474696,-0.08318276703357697,0.35146579146385193,-0.2659819722175598,-10.112238883972168
1745670686.9884503,0.010748078115284443,-0.002098408993333578,-0.0824442207813263,0.20131047070026398,-0.10954070091247559,-9.304356575012207
1745670686.9886138,0.019885987043380737,-0.011078033596277237,-0.08192212879657745,0.3135698735713959,-0.3465113937854767,-9.498407363891602
1745670687.0238256,0.01015810202807188,-0.013253375887870789,-0.08157549798488617,0.3063310980796814,-0.5571237206459045,-10.220538139343262
1745670687.0240333,0.003021263051778078,0.0039024739526212215,-0.0797802060842514,0.21087484061717987,-0.3635621964931488,-9.968658447265625
1745670687.0241275,-0.009757712483406067,-0.0024763760156929493,-0.0750906839966774,0.3501681685447693,-0.7459280490875244,-9.315632820129395
1745670687.0242734,-0.031098758801817894,-0.010400190018117428,-0.0737016499042511,0.21624121069908142,-0.46940499544143677,-9.541933059692383
1745670687.0274453,-0.02725699543952942,-0.0057025691494345665,-0.0702928900718689,0.46045637130737305,-0.5493904948234558,-10.129007339477539
1745670687.067145,-0.05367724969983101,-0.002361035905778408,-0.07048337161540985,0.13596169650554657,-0.30810537934303284,-10.11997127532959
1745670687.0673082,-0.029443617910146713,-0.0016234656795859337,-0.06634614616632462,0.23716381192207336,-0.38526231050491333,-9.428567886352539
1745670687.0721123,-0.04951216280460358,-0.005300689488649368,-0.06486602127552032,0.4474954605102539,-0.240160271525383,-9.324631690979004
1745670687.078791,-0.04747090861201286,-0.006609405390918255,-0.05767327547073364,0.16822001338005066,-0.3678508400917053,-10.243390083312988
1745670687.1120956,-0.0719437226653099,0.0005381567170843482,0.011629365384578705,0.3552101254463196,-0.20368090271949768,-9.886153221130371
1745670687.114277,-0.07601255923509598,0.00035370560362935066,0.012609913945198059,0.12771674990653992,-0.0920972228050232,-9.728121757507324
1745670687.1162384,-0.062125466763973236,0.0024016418028622866,0.014205549843609333,0.4245930314064026,-0.18126270174980164,-9.545797348022461
1745670687.1171854,-0.0689280778169632,-0.0030940689612179995,0.016865773126482964,0.23982039093971252,-0.09293138235807419,-9.811734199523926
1745670687.1205866,-0.053734324872493744,0.009108454920351505,0.01894596591591835,0.261220246553421,-0.10178208351135254,-9.940306663513184
1745670687.1505752,-0.06444769352674484,-0.00031175403273664415,0.019630664959549904,0.37083524465560913,-0.13979250192642212,-9.723978042602539
1745670687.152113,-0.057489294558763504,0.005388106685131788,0.022861527279019356,0.3724077641963959,-0.11134181916713715,-9.622381210327148
1745670687.1527781,-0.06387695670127869,0.0008246448123827577,0.02093568630516529,0.43324798345565796,-0.17197610437870026,-9.88385009765625
1745670687.152833,-0.0643082782626152,0.0023081875406205654,0.02356461063027382,0.18808983266353607,-0.1610112339258194,-10.00366497039795
1745670687.1942978,-0.06267040222883224,0.006182531826198101,0.023613838478922844,0.45060619711875916,-0.2747229039669037,-9.589302062988281
1745670687.1981094,-0.07578416168689728,-0.002403533086180687,0.027224978432059288,0.26509979367256165,-0.15306898951530457,-9.627373695373535
1745670687.202171,-0.06580521911382675,-5.990779027342796e-05,0.02984963357448578,0.33476778864860535,-0.15995970368385315,-9.982528686523438
1745670687.2055008,-0.06972405314445496,0.0005057994858361781,0.03077048435807228,0.3124430179595947,-0.1072126030921936,-9.986978530883789
1745670687.2361498,-0.06270267069339752,0.010224434547126293,0.03086049295961857,0.22828486561775208,-0.02610093355178833,-9.626978874206543
1745670687.240246,-0.0673237219452858,-0.007843860425055027,0.03343905881047249,0.39934778213500977,-0.2181820124387741,-9.523283004760742
1745670687.244533,-0.06139206886291504,0.0010094975586980581,0.03667391464114189,0.24387316405773163,-0.035920217633247375,-9.921449661254883
1745670687.2451713,-0.06215699762105942,0.005728664807975292,0.03775668889284134,0.40338125824928284,-0.25808262825012207,-10.035073280334473
1745670687.2479827,-0.06915110349655151,-0.0008093781652860343,0.0397021546959877,0.27516573667526245,-0.06446854770183563,-9.68638801574707
1745670687.2791963,-0.065770722925663,0.0005948290345259011,0.04012753814458847,0.4384603500366211,-0.17293326556682587,-9.569682121276855
1745670687.2827675,-0.07630293071269989,-0.002444470301270485,0.04013516753911972,0.2957550883293152,-0.08066663146018982,-9.886366844177246
1745670687.28679,-0.06302448362112045,0.007804309483617544,0.04227263852953911,0.2726866602897644,-0.057504426687955856,-9.905967712402344
1745670687.2875226,-0.07866044342517853,-0.0006149145192466676,0.043416254222393036,0.40169939398765564,-0.1458016335964203,-9.593693733215332
1745670687.321708,-0.06239251047372818,0.006360827479511499,0.05294004827737808,0.269740492105484,-0.12362360954284668,-9.99353313446045
1745670687.323732,-0.06675146520137787,-0.0034456520806998014,0.052092842757701874,0.40559229254722595,-0.12915121018886566,-9.877866744995117
1745670687.3278978,-0.06339990347623825,0.004259162582457066,0.05505859851837158,0.23621563613414764,0.01799653097987175,-9.676430702209473
1745670687.3280084,-0.07443557679653168,-0.0003972381236962974,0.05458591505885124,0.3966338038444519,-0.21480992436408997,-9.743547439575195
1745670687.365254,-0.07382425665855408,-0.0050665345042943954,0.05605118349194527,0.2104298621416092,-0.005324722733348608,-9.790068626403809
1745670687.37485,-0.07162134349346161,0.00676717096939683,0.05938984081149101,0.42091816663742065,-0.104448102414608,-9.742364883422852
1745670687.3786728,-0.08044083416461945,-0.003649150487035513,0.0586516447365284,0.28534016013145447,0.007211414165794849,-9.779529571533203
1745670687.382375,-0.06671205908060074,-0.0029646025504916906,0.06111606955528259,0.3582002520561218,0.025974523276090622,-9.880287170410156
1745670687.3855803,-0.0724218562245369,-0.003636846784502268,0.06163126975297928,0.3520166277885437,-0.053989313542842865,-9.879343032836914
1745670687.4089055,-0.06479450315237045,0.004967563319951296,0.06442241370677948,0.17303086817264557,0.08556216955184937,-9.683923721313477
1745670687.4120576,-0.057854246348142624,-0.003392844693735242,0.06490349769592285,0.38972973823547363,-0.11820409446954727,-9.543413162231445
1745670687.422506,-0.06965477764606476,-0.0031586606055498123,0.06747521460056305,0.1692289561033249,0.1334364265203476,-9.82365894317627
1745670687.4264822,-0.05723880976438522,-0.00022839164012111723,0.06895564496517181,0.395529568195343,-0.1771027147769928,-9.967893600463867
1745670687.4507148,-0.06305880099534988,0.0018546134233474731,0.06937555223703384,0.2596229910850525,0.1287406086921692,-9.696683883666992
1745670687.4552064,-0.033463507890701294,-5.443208010547096e-06,0.10200758278369904,0.3131239712238312,0.1383616030216217,-9.765893936157227
1745670687.459222,-0.05197177082300186,-0.005770942661911249,0.10211948305368423,0.3687753677368164,-0.02455144189298153,-9.869993209838867
1745670687.4621472,-0.03514993190765381,0.002459409413859248,0.10601577907800674,0.24250054359436035,0.1506320685148239,-9.770009994506836
1745670687.4673026,-0.04602838680148125,-0.00039420858956873417,0.10250983387231827,0.43618375062942505,0.062022097408771515,-9.700605392456055
1745670687.4940836,-0.04523308202624321,-0.006169551983475685,0.10505104064941406,0.19242151081562042,0.10782110691070557,-9.87424087524414
1745670687.4962947,-0.032300326973199844,0.0015762010589241982,0.10720871388912201,0.3776329457759857,0.13036108016967773,-9.749324798583984
1745670687.5019028,-0.05404676869511604,-0.0018964490154758096,0.10646156966686249,0.21836546063423157,0.08541455119848251,-9.74009895324707
1745670687.5055273,-0.030128661543130875,0.0019313072552904487,0.1074158102273941,0.24167045950889587,0.14150303602218628,-9.736908912658691
1745670687.5378113,-0.04982605576515198,-0.0027427312452346087,0.10682451725006104,0.3961344063282013,0.12840458750724792,-9.730533599853516
1745670687.5403748,-0.032701872289180756,0.0038291397504508495,0.10803325474262238,0.241599440574646,0.19622226059436798,-9.894318580627441
1745670687.5433238,-0.04122349992394447,-0.005469347350299358,0.10833434760570526,0.321821391582489,0.05934958532452583,-9.867895126342773
1745670687.5443878,-0.03270652890205383,0.0001669708581175655,0.10939814895391464,0.3118690848350525,0.1653817892074585,-9.646438598632812
1745670687.5825768,-0.03791451081633568,0.002615575445815921,0.1126558780670166,0.3185446262359619,0.13157770037651062,-9.785463333129883
1745670687.586761,-0.03955250233411789,-0.0068547786213457584,0.11285467445850372,0.23984655737876892,0.039280012249946594,-9.834599494934082
1745670687.5889363,-0.032221339643001556,0.0017298553138971329,0.1111350879073143,0.4385925829410553,0.23618102073669434,-9.812993049621582
1745670687.5906858,-0.049634791910648346,-0.006802992429584265,0.11115175485610962,0.3698251247406006,0.0825745016336441,-9.887977600097656
1745670687.5931072,-0.019808199256658554,0.0007630393956787884,0.11136196553707123,0.2838776707649231,0.2663004696369171,-9.785257339477539
1745670687.6273081,-0.04490501806139946,-0.007397169712930918,0.11204233020544052,0.37889614701271057,0.16730697453022003,-9.696124076843262
1745670687.6274061,-0.017822515219449997,0.0006046981434337795,0.11332812160253525,0.28973597288131714,0.09998837113380432,-9.767008781433105
1745670687.6276414,-0.02589968405663967,-0.005650539882481098,0.11522559076547623,0.4528331756591797,0.17224018275737762,-9.780400276184082
1745670687.6289608,-0.030160527676343918,-0.00025604982511140406,0.11491751670837402,0.1875150501728058,0.15214888751506805,-9.951905250549316
1745670687.6676557,-0.009816613048315048,0.0025285494048148394,0.11553968489170074,0.30936992168426514,0.24541065096855164,-9.675321578979492
1745670687.6715271,-0.02591888979077339,-0.005237862002104521,0.11537855863571167,0.22631800174713135,0.11281384527683258,-9.98743724822998
1745670687.6764615,-0.016053181141614914,0.0071258703246712685,0.1172574982047081,0.41411811113357544,0.2698952257633209,-9.714362144470215
1745670687.6811962,-0.03794895485043526,0.004471961408853531,0.11658918857574463,0.21351711452007294,0.07649532705545425,-9.806014060974121
1745670687.7143478,-0.002108650980517268,0.0010666772723197937,0.11673732101917267,0.371670663356781,0.41095057129859924,-9.579183578491211
1745670687.7145433,-0.031112253665924072,-0.005811108276247978,0.11686446517705917,0.43727821111679077,0.07134874165058136,-9.969429969787598
1745670687.7168503,0.002655418822541833,0.007356884889304638,0.11439158022403717,0.14791472256183624,0.3260587751865387,-10.043871879577637
1745670687.7212229,-0.011704294010996819,-0.0009721569949761033,0.116405189037323,0.43661507964134216,0.1091122180223465,-9.568952560424805
1745670687.752353,-0.01761029101908207,-0.003963566850870848,0.11701539903879166,0.33582836389541626,0.12771010398864746,-9.551340103149414
1745670687.755169,-0.008867533877491951,-0.0015023410087451339,0.11823640763759613,0.4148826599121094,0.06498508900403976,-9.939266204833984
1745670687.7599688,-0.0222297552973032,-0.0016734281089156866,0.11882640421390533,0.35163289308547974,0.09056003391742706,-10.034467697143555
1745670687.763272,-0.013638940639793873,0.007101529743522406,0.11789114773273468,0.32560065388679504,0.20463475584983826,-9.63398551940918
1745670687.7674904,-0.02474227175116539,-0.009871672838926315,0.11977952718734741,0.4727610945701599,0.03439757227897644,-9.585638999938965
1745670687.8000896,-0.012477738782763481,0.0026410017162561417,0.11679991334676743,0.21069876849651337,0.35752642154693604,-9.914273262023926
1745670687.804182,-0.002453108783811331,-0.003003943245857954,0.12950816750526428,0.4853571057319641,0.06811325252056122,-9.675628662109375
1745670687.8073893,-0.024414116516709328,-0.003622448770329356,0.13087782263755798,0.23567251861095428,0.15412774682044983,-9.896714210510254
1745670687.8395653,-0.0023924901615828276,-0.005711795296519995,0.13015630841255188,0.4365045428276062,0.06777589023113251,-9.819199562072754
1745670687.8427563,-0.022892501205205917,-0.004473741631954908,0.13108959794044495,0.33739030361175537,0.21041139960289001,-9.721696853637695
1745670687.8469014,-0.012129753828048706,-0.0017117200186476111,0.13158531486988068,0.22950777411460876,0.19639047980308533,-9.781496047973633
1745670687.8491352,-0.01044723391532898,-0.00877857394516468,0.1304624378681183,0.39118918776512146,0.15224434435367584,-9.68984603881836
1745670687.8509893,-0.009773996658623219,0.0034905218053609133,0.13338235020637512,0.2416900098323822,0.3791603446006775,-9.751996994018555
1745670687.882939,-0.0056596845388412476,-0.00702672079205513,0.13101623952388763,0.4133719503879547,0.1464318335056305,-9.897089958190918
1745670687.8865345,-0.002782392781227827,-0.008786552585661411,0.13017883896827698,0.18581514060497284,0.2662489712238312,-9.825918197631836
1745670687.88893,0.005479235667735338,0.008579250425100327,0.12919119000434875,0.5908375978469849,0.2900303900241852,-9.519161224365234
1745670687.8925583,-0.020870286971330643,-0.01161618810147047,0.12555813789367676,0.6251500844955444,0.2751234173774719,-9.857046127319336
1745670687.9240105,0.02831975184381008,-0.027630457654595375,0.11876294761896133,0.16841499507427216,0.7041741609573364,-10.201482772827148
1745670687.9260137,0.03601858764886856,0.017302975058555603,0.11350943893194199,0.39345642924308777,0.42221856117248535,-9.543672561645508
1745670687.9289799,0.07068219035863876,-0.005008746404200792,0.1102028340101242,-0.174603670835495,0.37250667810440063,-9.363581657409668
1745670687.930016,0.03415457531809807,-0.03533169999718666,0.10599322617053986,0.1896471232175827,-0.3152889609336853,-9.985191345214844
1745670687.9315941,0.017031574621796608,-0.008936142548918724,0.1072988361120224,-0.14019429683685303,-0.5147021412849426,-10.472902297973633
1745670687.9663227,-0.024273499846458435,0.018937010318040848,0.10366132110357285,-0.507179856300354,-0.47456732392311096,-9.61921501159668
1745670687.9706728,-0.010068686679005623,-0.011017969809472561,0.09950904548168182,0.4117920398712158,0.1313484162092209,-8.259654998779297
1745670687.9738479,-0.05108025670051575,-0.008659906685352325,0.08916094899177551,1.2038943767547607,0.32104048132896423,-9.879459381103516
1745670687.976898,-0.028678517788648605,-0.021592415869235992,0.0870245024561882,0.8713175058364868,-0.34756729006767273,-11.898977279663086
1745670688.0119865,-0.003229815512895584,0.0011161136208102107,0.08689631521701813,0.08999143540859222,0.40974241495132446,-9.973607063293457
1745670688.0131998,-0.043787382543087006,-0.0034655947238206863,0.09480597823858261,0.2561190724372864,-0.5026074647903442,-8.127593994140625
1745670688.01544,0.06549272686243057,0.010347407311201096,0.06158984452486038,0.19323603808879852,-0.9131010174751282,-9.875893592834473
1745670688.01764,0.07328490912914276,-0.0002839101362042129,0.073198601603508,0.24317331612110138,-0.12295504659414291,-7.595554351806641
1745670688.0193644,0.026495471596717834,-0.023347271606326103,0.07019215822219849,0.602497935295105,0.029212171211838722,-9.294296264648438
1745670688.0610178,0.05227481201291084,-0.015492585487663746,0.051827769726514816,0.25589078664779663,0.5974768400192261,-11.802881240844727
1745670688.0611918,0.06405311077833176,0.018386894837021828,0.03366771712899208,0.19783800840377808,0.6504083275794983,-10.502874374389648
1745670688.061267,0.04029366374015808,-0.009535277262330055,0.02488064207136631,0.33589205145835876,-0.08609401434659958,-8.19003677368164
1745670688.0760758,0.01962956413626671,-0.02871275506913662,0.023325182497501373,0.14458727836608887,-0.3232555389404297,-9.0201416015625
1745670688.1085463,-0.0037277787923812866,-0.007985063828527927,0.03292396664619446,0.3428286612033844,-0.8243125677108765,-10.941119194030762
1745670688.1086054,-0.008688789792358875,0.025642042979598045,0.037058375775814056,0.31243646144866943,-0.11017660051584244,-10.175278663635254
1745670688.1086545,-0.005489022005349398,0.0023947483859956264,0.0397007055580616,0.7949780821800232,0.10999816656112671,-8.63127613067627
1745670688.108704,0.011712024919688702,-0.027379322797060013,0.034773312509059906,0.7430210113525391,0.8207162618637085,-9.71147346496582
1745670688.1391625,0.04417626932263374,-0.0022152878809720278,0.027165357023477554,0.3280300199985504,0.846804141998291,-11.392130851745605
1745670688.1397302,0.07633054256439209,0.005393507424741983,0.017371434718370438,0.05555440112948418,0.6324224472045898,-10.050149917602539
1745670688.1446774,0.08023850619792938,0.0031714211218059063,0.014016469940543175,-0.0889030247926712,0.5908524394035339,-8.149136543273926
1745670688.1450546,0.06656162440776825,0.005750277079641819,-0.045800358057022095,0.3438175618648529,0.16776089370250702,-9.630807876586914
1745670688.1932662,0.08697344362735748,-0.0019716708920896053,-0.0455733947455883,0.5862067341804504,0.004367592744529247,-9.723443984985352
1745670688.1934476,0.08628994971513748,-0.0003274951013736427,-0.04436130449175835,0.27332234382629395,0.28025996685028076,-10.024248123168945
1745670688.1962504,0.10424314439296722,0.009892506524920464,-0.04689943045377731,0.29780054092407227,-0.03757026046514511,-9.900030136108398
1745670688.196945,0.10499867051839828,-0.0020129201002418995,-0.047392141073942184,0.4229714274406433,0.06229104846715927,-9.353325843811035
1745670688.210381,0.11152710765600204,0.004673748277127743,-0.04864947870373726,0.20046308636665344,0.111021026968956,-9.727245330810547
1745670688.226561,0.09727146476507187,-0.0013273322256281972,-0.05163781717419624,0.3272344470024109,-0.11109082400798798,-10.090291976928711
1745670688.228162,0.1097748875617981,0.006065947003662586,-0.05537594482302666,0.254437655210495,0.09731639176607132,-9.749382972717285
1745670688.2314503,0.09576457738876343,-0.0002016156940953806,-0.060041625052690506,0.5018011927604675,-0.09343670308589935,-9.514856338500977
1745670688.2350163,0.09156495332717896,-0.007718753069639206,-0.06323881447315216,0.20315027236938477,-0.24053606390953064,-10.035871505737305
1745670688.2679887,0.08723320066928864,0.0006446256884373724,-0.062104545533657074,0.35862788558006287,-0.3849121928215027,-10.007102966308594
1745670688.2724226,0.06317997723817825,0.006609635893255472,-0.05612591654062271,0.39379778504371643,-0.582669198513031,-9.4877290725708
1745670688.2772446,0.07239211350679398,-0.004441167693585157,-0.05399578809738159,0.277365505695343,-0.19160056114196777,-9.550008773803711
1745670688.2804222,0.05247470736503601,-0.005206110887229443,-0.053605593740940094,0.36383217573165894,-0.17493277788162231,-10.030523300170898
1745670688.284222,0.07396479696035385,0.013140328228473663,-0.057488612830638885,0.26877719163894653,0.19648849964141846,-9.900866508483887
1745670688.311161,0.07536488771438599,0.0007937890477478504,-0.06373574584722519,0.4365597367286682,0.1406196802854538,-9.470510482788086
1745670688.3131006,0.07315853983163834,-0.013178080320358276,-0.06872232258319855,0.2863346338272095,0.14868025481700897,-9.84689998626709
1745670688.314214,0.08434610068798065,0.005073850043118,-0.06818990409374237,0.4035249650478363,-0.12385611236095428,-10.11909294128418
1745670688.3174062,0.0726129561662674,0.005611406173557043,-0.06719158589839935,0.23005488514900208,-0.12771429121494293,-9.61761474609375
1745670688.3554966,0.09732866287231445,-0.0031302764546126127,-0.06843217462301254,0.45796480774879456,-0.029049068689346313,-9.195184707641602
1745670688.3595412,0.07149014621973038,-0.00599698768928647,-0.06793464720249176,0.4994657635688782,-0.08920147269964218,-9.962654113769531
1745670688.3628788,0.08211665600538254,0.004405718296766281,-0.07654318958520889,0.42075976729393005,-0.15889139473438263,-10.15595531463623
1745670688.3670027,0.05851835012435913,0.002662255894392729,-0.07722970098257065,0.46875491738319397,-0.2970280051231384,-10.18589973449707
1745670688.3987231,0.05704863741993904,-0.000967335538007319,-0.07907900214195251,0.21925899386405945,-0.2052057981491089,-9.565145492553711
1745670688.4037762,0.06682740151882172,-0.004333611112087965,-0.07546637207269669,0.5302234292030334,-0.20915155112743378,-9.308694839477539
1745670688.4087615,0.052227236330509186,0.000317585829179734,-0.075354665517807,0.1630105972290039,-0.108242928981781,-10.021095275878906
1745670688.4106734,0.07914693653583527,0.006643144879490137,-0.07790208607912064,0.28753209114074707,0.06343311071395874,-9.994064331054688
1745670688.4412506,0.07500161230564117,-0.005375869106501341,-0.07809634506702423,0.3998620808124542,0.04191238805651665,-9.483858108520508
1745670688.4487638,0.08878979086875916,0.002294162753969431,-0.08301856368780136,0.3287878930568695,0.08775539696216583,-9.691112518310547
1745670688.4488356,0.09838088601827621,-0.003138946369290352,-0.08476696908473969,0.4685158133506775,-0.2018207609653473,-9.987436294555664
1745670688.4499772,0.0861206203699112,0.0031714129727333784,-0.08591123670339584,0.25658759474754333,-0.1380690485239029,-9.891569137573242
1745670688.4529116,0.09450975805521011,0.0024807583540678024,-0.083095982670784,0.44201064109802246,-0.48823267221450806,-9.544561386108398
1745670688.4951491,0.07483003288507462,-0.006472834385931492,-0.08050214499235153,0.2791234850883484,-0.34521859884262085,-9.679227828979492
1745670688.4986145,0.08245167136192322,0.008370804600417614,-0.08222241699695587,0.42638111114501953,-0.2985380291938782,-9.910398483276367
1745670688.5015347,0.06112084537744522,-0.0009546854416839778,-0.08489401638507843,0.37517276406288147,-0.2222553938627243,-9.848087310791016
1745670688.507187,0.06762278825044632,0.0044753579422831535,-0.08905065059661865,0.2944062352180481,-0.21938244998455048,-9.682406425476074
1745670688.527589,0.06694543361663818,0.016353914514183998,-0.14034762978553772,0.4169323444366455,-0.14709433913230896,-9.9921293258667
1745670688.5299695,0.05548375844955444,0.013047551736235619,-0.14622369408607483,0.963133692741394,-0.2981904447078705,-9.333898544311523
1745670688.5325298,0.06276768445968628,0.008196557871997356,-0.14629557728767395,0.7305608987808228,-0.3315853476524353,-9.671857833862305
1745670688.5347931,0.053900402039289474,0.009414169006049633,-0.14906439185142517,0.8481193780899048,-0.43486109375953674,-10.187451362609863
1745670688.5416079,0.06842020153999329,0.017382929101586342,-0.15004535019397736,0.42781147360801697,-0.38533318042755127,-10.05412483215332
1745670688.5722773,0.050182174891233444,0.02333066798746586,-0.15177366137504578,0.367440402507782,-0.38174062967300415,-9.333762168884277
1745670688.575227,0.06712085753679276,0.006803043186664581,-0.1573348492383957,0.5903729200363159,-0.3706305921077728,-9.275339126586914
1745670688.58362,0.05318320915102959,0.020776355639100075,-0.16401395201683044,0.42135652899742126,0.09623491019010544,-10.01703929901123
1745670688.583705,0.053713876754045486,0.02091914974153042,-0.17079290747642517,0.7084492444992065,-0.4823542535305023,-10.253274917602539
1745670688.6134074,0.07986374944448471,0.026548605412244797,-0.17503269016742706,0.47082677483558655,-0.049831680953502655,-9.516214370727539
1745670688.6175883,0.041555650532245636,0.015831176191568375,-0.17615623772144318,0.8217542767524719,-0.7940549850463867,-9.480863571166992
1745670688.6189327,0.06571507453918457,0.012843454256653786,-0.17394745349884033,0.6601030826568604,-0.38877129554748535,-9.93005657196045
1745670688.6204562,0.04777016490697861,0.030110886320471764,-0.17406196892261505,0.5980002284049988,-0.43295708298683167,-10.028965950012207
1745670688.655643,0.05556049197912216,0.027022739872336388,-0.17405018210411072,0.6203500032424927,-0.33288049697875977,-9.527585983276367
1745670688.6590955,0.06243535876274109,0.01661556214094162,-0.17821873724460602,0.4883023202419281,0.026797983795404434,-9.499324798583984
1745670688.6640437,0.06820748746395111,0.011223480105400085,-0.18427661061286926,0.6295496225357056,-0.374203622341156,-10.1887788772583
1745670688.6691144,0.08491400629281998,0.027908574789762497,-0.18910042941570282,0.3761514723300934,0.19406002759933472,-9.983327865600586
1745670688.7026734,0.08193010836839676,0.02379465289413929,-0.19200699031352997,0.5392010807991028,-0.7150882482528687,-9.420055389404297
1745670688.702806,0.08118238300085068,0.01634392701089382,-0.19239236414432526,0.6434770822525024,-0.2597620487213135,-9.172456741333008
1745670688.7059646,0.061974383890628815,0.024029534310102463,-0.19223985075950623,0.7388021945953369,-0.8277879953384399,-10.218439102172852
1745670688.7081852,0.08118744194507599,0.018215054646134377,-0.19056567549705505,0.5459885001182556,-0.5105809569358826,-10.316940307617188
1745670688.7412112,0.06429596245288849,0.011811243370175362,-0.20782294869422913,0.6071432828903198,-0.2388698160648346,-9.716334342956543
1745670688.7439034,0.06341762840747833,0.028036991134285927,-0.2080899178981781,0.5699347257614136,-0.4653019309043884,-10.185629844665527
1745670688.7483876,0.07231412827968597,0.017595786601305008,-0.21158242225646973,0.7689110040664673,-0.30811014771461487,-9.627214431762695
1745670688.748823,0.06754620373249054,0.0178057961165905,-0.21447333693504333,0.5944816470146179,-0.35582301020622253,-9.529301643371582
1745670688.7844179,0.07675138860940933,0.011602161452174187,-0.21450865268707275,0.6304112672805786,-0.5121867060661316,-9.952394485473633
1745670688.7860656,0.06505098938941956,0.013651403598487377,-0.21754565834999084,0.3779248893260956,-0.27608105540275574,-9.972180366516113
1745670688.7901561,0.07833732664585114,0.02246953547000885,-0.21891942620277405,0.6853595972061157,-0.5737260580062866,-9.538262367248535
1745670688.7931232,0.0635569766163826,0.01085303258150816,-0.2232905924320221,0.589362621307373,-0.25189918279647827,-9.406698226928711
1745670688.7951245,0.06829426437616348,0.010127147659659386,-0.22286267578601837,0.6052716970443726,-0.4829879403114319,-9.983717918395996
