timestamp,angular_vel_x,angular_vel_y,angular_vel_z,linear_acc_x,linear_acc_y,linear_acc_z
1745651215.365957,-0.012603342533111572,0.016384461894631386,0.08016930520534515,0.29148340225219727,0.17991986870765686,-9.677836418151855
1745651215.3724773,-0.00813099555671215,0.008835852146148682,0.08325323462486267,0.38668015599250793,0.18025723099708557,-9.613885879516602
1745651215.3832653,-0.005399814806878567,-0.0003158491163048893,0.1001381054520607,0.3558351397514343,0.29052552580833435,-9.679990768432617
1745651215.3874059,-0.010772360488772392,-0.009128788486123085,0.10404878854751587,0.4407788813114166,0.07375462353229523,-9.934927940368652
1745651215.3971422,0.0034251264296472073,-0.005657866131514311,0.10248039662837982,0.38632726669311523,0.2694338858127594,-9.811197280883789
1745651215.4012003,-0.025995437055826187,-0.003859692718833685,0.1052013635635376,0.4049343466758728,0.06506160646677017,-9.74835205078125
1745651215.4038086,-0.003231976879760623,-0.008895495906472206,0.10356812179088593,0.2413104772567749,0.34295737743377686,-9.660231590270996
1745651215.4071426,-0.027401184663176537,-0.0048711057752370834,0.10491865873336792,0.4961671233177185,0.06017205864191055,-9.7887544631958
1745651215.407843,-0.007999523542821407,-0.009441548958420753,0.10642091929912567,0.30737656354904175,0.364103227853775,-9.908869743347168
1745651215.4441128,-0.022744711488485336,-0.0011074332287535071,0.10523755848407745,0.28948017954826355,0.14463621377944946,-9.793390274047852
1745651215.4462702,-0.010300307534635067,-0.008835731074213982,0.10702642053365707,0.37528079748153687,0.28023070096969604,-9.547252655029297
1745651215.4500232,-0.013440988957881927,-0.002461014548316598,0.10752984136343002,0.3535626530647278,0.30123603343963623,-9.761634826660156
1745651215.4538834,-0.020035121589899063,-0.010515710338950157,0.10787101089954376,0.43333834409713745,0.15637527406215668,-10.05335807800293
1745651215.484693,-0.0031712513882666826,-0.003887337166815996,0.10810871422290802,0.2934974431991577,0.393052875995636,-9.765458106994629
1745651215.4878006,-0.014371082186698914,0.003294457448646426,0.10994461923837662,0.4196351170539856,0.16622504591941833,-9.531394958496094
1745651215.494666,-0.011451369151473045,-0.015900876373052597,0.1095513105392456,0.37190040946006775,0.3902239203453064,-9.734346389770508
1745651215.4972465,-0.00995955802500248,-0.006383468862622976,0.11004732549190521,0.4884319305419922,0.09565039724111557,-10.149157524108887
1745651215.4972916,-0.008659501560032368,-0.006541389040648937,0.10976584255695343,0.29714980721473694,0.5127256512641907,-9.84477424621582
1745651215.527654,-0.01194465346634388,-0.002551044337451458,0.10904911905527115,0.2440379559993744,0.027835216373205185,-9.532018661499023
1745651215.5300145,-0.004110925365239382,-0.012468889355659485,0.11164293438196182,0.5516048669815063,0.3923044800758362,-9.513873100280762
1745651215.531879,-0.021830305457115173,-0.008505466394126415,0.11251046508550644,0.3128303587436676,0.20323577523231506,-10.263998031616211
1745651215.5371346,0.0022955972235649824,-0.006486109457910061,0.11231987178325653,0.3799890875816345,0.20985761284828186,-9.986669540405273
1745651215.573208,-0.011917040683329105,-0.006084566004574299,0.11242201179265976,0.2578332722187042,0.3664177358150482,-9.337516784667969
1745651215.5763893,-0.015041261911392212,-0.010781248100101948,0.1181517094373703,0.4213389754295349,0.308551162481308,-9.442001342773438
1745651215.5788903,-0.008393662981688976,-0.004351511597633362,0.11947808414697647,0.3726162910461426,0.4296703338623047,-10.237261772155762
1745651215.587613,-0.01397280115634203,-0.008977919816970825,0.11793039739131927,0.39508408308029175,0.2226519137620926,-10.151968955993652
1745651215.6138763,0.02095245197415352,0.0016776679549366236,0.11751027405261993,0.21352382004261017,0.4603685438632965,-9.378412246704102
1745651215.6163251,-0.027236556634306908,-0.008179523050785065,0.1200292557477951,0.42650002241134644,0.20909233391284943,-9.447700500488281
1745651215.6182733,0.021092699840664864,-0.013945018872618675,0.11938812583684921,0.3577703833580017,0.24436649680137634,-10.161229133605957
1745651215.6220932,-0.010453692637383938,0.0023011458106338978,0.11882934719324112,0.4533576965332031,0.27597159147262573,-10.08793830871582
1745651215.6625178,-0.002217232482507825,-0.009422609582543373,0.12302370369434357,0.2480616569519043,0.08035347610712051,-9.62704849243164
1745651215.662603,-0.00780993327498436,-0.005506989546120167,0.12176692485809326,0.36604762077331543,0.2990151345729828,-9.339439392089844
1745651215.6661012,-0.020440490916371346,-0.008625696413218975,0.12149526923894882,0.46275264024734497,0.09713654220104218,-10.05113697052002
1745651215.67003,-0.0065767294727265835,-0.003890265943482518,0.1244029775261879,0.31548601388931274,0.37534084916114807,-10.131105422973633
1745651215.6778033,-0.026355108246207237,-0.006155512295663357,0.1244562417268753,0.419506698846817,0.0613289475440979,-9.620820999145508
1745651215.6997738,-0.0027746111154556274,-0.005439508706331253,0.12450945377349854,0.2032279074192047,0.4624287188053131,-9.373723983764648
1745651215.701126,-0.028816048055887222,-0.007638292852789164,0.12568628787994385,0.40483206510543823,0.14686539769172668,-9.875483512878418
1745651215.7032964,-0.0033757612109184265,-0.009666716679930687,0.12450192868709564,0.3422125279903412,0.4028767943382263,-10.140121459960938
1745651215.7067952,-0.012389121577143669,-0.007220706902444363,0.13375712931156158,0.32393893599510193,0.22493262588977814,-9.905431747436523
1745651215.742387,-0.009869562461972237,-0.004813172854483128,0.13302290439605713,0.4437180459499359,0.35049739480018616,-10.35991096496582
1745651215.7463956,-0.011210059747099876,0.0007399117457680404,0.12981300055980682,0.2100941687822342,0.24693401157855988,-9.741572380065918
1745651215.748209,-0.0013207359006628394,0.0002634357661008835,0.13389836251735687,0.26806408166885376,0.26766595244407654,-9.11448860168457
1745651215.7556543,-0.023914046585559845,-0.011174382641911507,0.13387742638587952,0.4173685610294342,0.2702868580818176,-9.741043090820312
1745651215.7556987,0.0012038208078593016,-0.0045952824875712395,0.1323518306016922,0.32470113039016724,0.26176077127456665,-10.385924339294434
1745651215.7877305,-0.011331802234053612,0.00800049863755703,0.1339285671710968,0.3739027976989746,0.3339506983757019,-9.720499992370605
1745651215.792003,-0.006924509070813656,-0.0047097052447497845,0.13008852303028107,0.2084053009748459,0.2843385338783264,-9.24928092956543
1745651215.7972565,-0.010924287140369415,-0.005542897153645754,0.13182702660560608,0.5122717618942261,0.17043566703796387,-9.619955062866211
1745651215.8027384,-0.0030788679141551256,-0.005431921686977148,0.13172414898872375,0.3886110782623291,0.4678708612918854,-10.336328506469727
1745651215.831499,-0.015132799744606018,0.003063022857531905,0.13162600994110107,0.29813888669013977,0.1640382558107376,-10.018526077270508
1745651215.833975,0.0018186470260843635,-0.0038388550747185946,0.13142092525959015,0.32557326555252075,0.3229231536388397,-9.189472198486328
1745651215.838036,-0.017515739426016808,-0.003841207828372717,0.1292695701122284,0.31223049759864807,0.3480244278907776,-9.543478012084961
1745651215.8393242,-0.00909124594181776,-0.007534646894782782,0.13362285494804382,0.48549580574035645,0.22800414264202118,-10.353014945983887
1745651215.8775368,0.0017720103496685624,-0.0014718604506924748,0.13105988502502441,0.24723629653453827,0.43618813157081604,-10.020990371704102
1745651215.8776748,-0.00031542350188829005,0.00054918322712183,0.13045541942119598,0.3877550959587097,0.15634751319885254,-9.260843276977539
1745651215.8832088,-0.006449396256357431,-0.011416585184633732,0.1311543881893158,0.3166719973087311,0.45766371488571167,-9.504602432250977
1745651215.8884027,-0.001048099948093295,-0.0028762940783053637,0.13144049048423767,0.37576621770858765,0.058316670358181,-10.316744804382324
1745651215.9215868,0.004479858558624983,-0.0035440963692963123,0.1303979903459549,0.3731270432472229,0.5259906053543091,-9.946039199829102
1745651215.921783,-0.00906111765652895,-0.00030752908787690103,0.13164500892162323,0.2279072254896164,0.09596619755029678,-9.445926666259766
1745651215.922483,0.0036660272162407637,-0.00810378510504961,0.13039109110832214,0.40099430084228516,0.2197709083557129,-9.871122360229492
1745651215.9264748,0.005193445831537247,-0.0068177394568920135,0.13029533624649048,0.3835018277168274,0.37528926134109497,-9.934743881225586
1745651215.959134,0.008474982343614101,0.002557739382609725,0.13156402111053467,0.3586822748184204,0.16154316067695618,-9.774737358093262
1745651215.9628983,-0.0006039391155354679,-0.013117635622620583,0.13192187249660492,0.26775306463241577,0.36069050431251526,-9.589517593383789
1745651215.9668267,0.00968124158680439,-0.0041707828640937805,0.13267770409584045,0.3892936706542969,0.1336568295955658,-9.759533882141113
1745651215.969834,-0.0024512168020009995,-0.007851555943489075,0.1308584064245224,0.4395877718925476,0.4220348000526428,-9.886762619018555
1745651215.973918,0.004734809510409832,-0.0022546187974512577,0.13012003898620605,0.21581292152404785,0.14175330102443695,-9.965310096740723
1745651216.0041423,0.006028349511325359,-0.006036771927028894,0.13154296576976776,0.41664624214172363,0.3610995411872864,-9.5396089553833
1745651216.0070238,-0.004431328270584345,-0.007816335186362267,0.1301129311323166,0.29967984557151794,0.26223912835121155,-9.686546325683594
1745651216.0076106,0.0040706442669034,-0.007149101700633764,0.1311243176460266,0.4157668650150299,0.23485949635505676,-9.951692581176758
1745651216.010491,0.0045951432548463345,-0.006848108023405075,0.126792311668396,0.24526159465312958,0.5458096265792847,-9.885335922241211
1745651216.045642,0.015721675008535385,-0.0017288171220570803,0.12349358946084976,0.37327584624290466,0.3028123080730438,-9.541059494018555
1745651216.0474687,0.013289706781506538,-0.008330832235515118,0.12403657287359238,0.33396998047828674,0.4366763234138489,-9.648457527160645
1745651216.0489287,0.02343483828008175,-0.00864982046186924,0.1190800815820694,0.26143866777420044,0.2843824028968811,-10.045672416687012
1745651216.050923,0.02891361154615879,-0.003780808998271823,0.1189754456281662,0.32088738679885864,0.22991883754730225,-9.852119445800781
1745651216.10122,0.03434765711426735,-0.007668130099773407,0.07914429157972336,0.3920868933200836,0.12993235886096954,-10.030890464782715
1745651216.1030347,0.03688914328813553,-0.00870105903595686,0.077853724360466,0.40694499015808105,0.2892412841320038,-9.840041160583496
1745651216.1056144,0.028728216886520386,-0.0050276052206754684,0.07685859501361847,0.2787070870399475,0.14468999207019806,-9.641804695129395
1745651216.107007,0.031046872958540916,-0.011699255555868149,0.07503320276737213,0.4306999742984772,0.23704561591148376,-9.711984634399414
1745651216.129381,0.03133324906229973,-0.011553945951163769,0.07321101427078247,0.28655409812927246,0.3263542056083679,-9.906140327453613
1745651216.131426,0.037331607192754745,-0.00321936490945518,0.07068277150392532,0.34448209404945374,0.19039013981819153,-9.898565292358398
1745651216.134887,0.0410480722784996,-0.010799099691212177,0.06862664222717285,0.32866472005844116,0.45130079984664917,-9.543510437011719
1745651216.137887,0.04293026402592659,-0.006818060763180256,0.07128798961639404,0.2523873448371887,0.1489887535572052,-9.738977432250977
1745651216.139373,0.049375541508197784,-0.011654683388769627,0.06685543060302734,0.3639916479587555,0.4110174775123596,-9.833002090454102
1745651216.174593,0.05635921284556389,-0.0012798992684111,0.06363978236913681,0.21212133765220642,0.18659363687038422,-9.899215698242188
1745651216.179346,0.05747271329164505,-0.007937682792544365,0.06603920459747314,0.3675501048564911,0.2807871103286743,-9.588332176208496
1745651216.1836276,0.05880794674158096,-0.005442547611892223,0.06361637264490128,0.25892356038093567,0.19612696766853333,-9.736289978027344
1745651216.187285,0.05350221320986748,-0.006830464117228985,0.06210653856396675,0.3484029471874237,0.10458149760961533,-9.942695617675781
1745651216.2150097,0.05610007792711258,-0.007924806326627731,0.06355177611112595,0.3578805923461914,0.13241979479789734,-9.786757469177246
1745651216.2175446,0.046903930604457855,-0.004787568002939224,0.06286076456308365,0.3131304085254669,0.09001661092042923,-9.698468208312988
1745651216.2192872,0.03476773947477341,-0.011603474617004395,0.06175391003489494,0.3300682604312897,0.0768018439412117,-9.77769660949707
1745651216.2221742,0.05210151523351669,-0.004805902950465679,0.05984542891383171,0.33359792828559875,0.23464064300060272,-9.80436897277832
1745651216.2263463,0.023718584328889847,-0.007197177968919277,0.06089518591761589,0.3830505311489105,0.1413542926311493,-9.851896286010742
1745651216.2622256,0.05746409296989441,-0.011640791781246662,0.05989071726799011,0.23699037730693817,0.2532505989074707,-9.797551155090332
1745651216.2642736,0.03563404828310013,-0.008512507192790508,0.058319322764873505,0.390908807516098,0.2523958683013916,-9.728100776672363
1745651216.2658367,0.05415794998407364,-0.011141462251543999,0.05893854424357414,0.2422327995300293,0.27219587564468384,-9.808577537536621
1745651216.2694364,0.05404902249574661,-0.005707914941012859,0.0526074655354023,0.3089274764060974,0.17427439987659454,-9.872820854187012
1745651216.3022945,0.046819694340229034,-0.004698425531387329,0.0503898486495018,0.39629775285720825,0.07314474880695343,-9.803303718566895
1745651216.3087103,0.05978820472955704,-0.0044333431869745255,0.050413720309734344,0.2196873426437378,0.2003798484802246,-9.683115005493164
1745651216.3108988,0.047311704605817795,-0.008519541472196579,0.0514025017619133,0.4310673773288727,0.03230324387550354,-9.755261421203613
1745651216.3121617,0.06318403780460358,-0.006235935725271702,0.04776615649461746,0.27790123224258423,0.31000199913978577,-9.857437133789062
1745651216.3147116,0.04888778179883957,-0.004976595751941204,0.04671815037727356,0.3291552662849426,-0.042949799448251724,-9.892562866210938
1745651216.3451948,0.0684366300702095,-0.009380096569657326,0.04454564303159714,0.3105766475200653,0.27315303683280945,-9.627726554870605
1745651216.3476038,0.045732516795396805,-0.00179290643427521,0.04372737556695938,0.29871559143066406,0.03592062368988991,-9.774945259094238
1745651216.3506806,0.055121056735515594,-0.008849852718412876,0.044012926518917084,0.36818915605545044,0.05373167246580124,-9.867069244384766
1745651216.3548822,0.05572809651494026,-0.002665953477844596,0.04141785949468613,0.2861233651638031,0.1699945032596588,-9.801243782043457
1745651216.3908162,0.04527563974261284,-0.00529209990054369,0.038840726017951965,0.3990030586719513,-0.02400875650346279,-9.726919174194336
1745651216.3935397,0.05588061735033989,-0.007275443524122238,0.03851454332470894,0.21192698180675507,0.20137254893779755,-9.747663497924805
1745651216.3956196,0.04389110580086708,-0.0013111145235598087,0.0375082790851593,0.4183996319770813,-0.036912284791469574,-9.800986289978027
1745651216.3984785,0.051048554480075836,-0.005166084971278906,0.0366567000746727,0.24848338961601257,0.2293221652507782,-9.811005592346191
1745651216.432935,0.04656485840678215,-0.003141559660434723,0.03599552437663078,0.30775317549705505,-0.058690398931503296,-9.788169860839844
1745651216.4374325,-0.0031438334845006466,0.008065042085945606,0.058100856840610504,0.19167229533195496,-0.06980259716510773,-10.004987716674805
1745651216.4414136,0.0018822718411684036,0.013152075000107288,0.05982575938105583,0.3411563038825989,-0.17347519099712372,-9.306768417358398
1745651216.445369,-0.01431885827332735,0.0002818477514665574,0.065196193754673,0.3745620846748352,-0.002247904660180211,-9.538597106933594
1745651216.4745245,-0.003096658270806074,0.01191737037152052,0.06748901307582855,0.34581756591796875,-0.053192853927612305,-10.278980255126953
1745651216.4789736,-0.009718977846205235,0.006788000464439392,0.07271422445774078,0.401792049407959,0.10718431323766708,-9.97114086151123
1745651216.4824274,0.009570782072842121,0.014934917911887169,0.07359848916530609,0.39778804779052734,0.17207348346710205,-9.399720191955566
1745651216.4876719,-0.00592974666506052,0.0017400153446942568,0.07167777419090271,0.49841761589050293,0.22959943115711212,-9.708951950073242
1745651216.4893577,0.013094669207930565,0.0003876105765812099,0.0741051509976387,0.34582453966140747,0.1401880532503128,-10.280314445495605
1745651216.520289,0.014618204906582832,0.017544569447636604,0.0757128968834877,0.559034526348114,0.20112033188343048,-9.845561027526855
1745651216.523542,0.0006467437488026917,0.000591084361076355,0.07403109222650528,0.4362981915473938,0.14261570572853088,-9.42585277557373
1745651216.5272045,0.023297227919101715,0.005227121990174055,0.07032797485589981,0.1560244858264923,0.27640455961227417,-9.872591018676758
1745651216.5286791,0.0202376339584589,0.00458860769867897,0.06606961041688919,0.4953787922859192,0.4087153375148773,-9.792871475219727
1745651216.5618808,0.05052740499377251,0.01258728839457035,0.06196735054254532,0.2648092806339264,0.1998889297246933,-9.875401496887207
1745651216.5655828,0.03862680867314339,9.709298319648951e-05,0.060403089970350266,0.16246400773525238,0.18709580600261688,-9.709383010864258
1745651216.5707521,0.07395197451114655,0.008546016179025173,0.05953137204051018,0.10902141034603119,-0.1783684492111206,-9.600645065307617
1745651216.5752034,0.033657658845186234,0.022678354755043983,0.06010289862751961,0.17188099026679993,-0.16503478586673737,-9.653961181640625
1745651216.5802727,0.039933942258358,0.008418770506978035,0.05835435912013054,0.3334549069404602,-0.6365466117858887,-9.780996322631836
1745651216.6045892,0.029715631157159805,0.014029544778168201,0.058773886412382126,0.35630106925964355,-0.1737525463104248,-9.822294235229492
1745651216.6110976,-0.028135737404227257,0.015273991040885448,0.056112609803676605,0.3070964813232422,-0.5369429588317871,-9.957046508789062
1745651216.6147923,-0.007567110005766153,0.017244350165128708,0.05232902243733406,0.4021374583244324,-0.40946444869041443,-9.533141136169434
1745651216.647235,0.05666559934616089,0.010363823734223843,0.03277568519115448,0.21509408950805664,-0.16540510952472687,-9.908226013183594
1745651216.6497216,0.016438115388154984,0.006182651035487652,0.028100019320845604,0.44013434648513794,-0.20933088660240173,-9.327190399169922
1745651216.6533415,0.010118383914232254,-0.004327593836933374,0.028939569368958473,0.4868866801261902,-0.29394349455833435,-9.627266883850098
1745651216.6571782,-0.011145604774355888,0.0063165659084916115,0.02387138642370701,0.31198650598526,-0.18590745329856873,-10.163792610168457
1745651216.661233,-0.03090633451938629,0.006978643126785755,0.02446300908923149,0.3023374676704407,-0.31879833340644836,-9.860651969909668
1745651216.6924,-0.0190134234726429,0.0072627500630915165,0.024968676269054413,0.1423836350440979,-0.1048094853758812,-9.351641654968262
1745651216.6963732,-0.041381776332855225,0.002316903555765748,0.028031259775161743,0.31247225403785706,-0.12046666443347931,-9.639392852783203
1745651216.6991959,-0.010570376180112362,0.004734963644295931,0.027855342254042625,0.18804018199443817,0.24855509400367737,-10.14038372039795
1745651216.707448,-0.017353929579257965,0.012056521140038967,0.02609926462173462,0.35347992181777954,0.10879480838775635,-9.866568565368652
1745651216.7330625,0.0063781156204640865,0.006359995808452368,0.024117570370435715,0.31931763887405396,0.31971901655197144,-9.388666152954102
1745651216.740188,-0.005818970501422882,0.0018828738247975707,0.02241351269185543,0.37197598814964294,0.0928148403763771,-9.784114837646484
1745651216.7447102,0.006162215955555439,-0.0005086552118882537,0.019459130242466927,0.4180755615234375,0.13908489048480988,-10.20716667175293
1745651216.746087,0.005837691016495228,0.006038556341081858,0.019537102431058884,0.4030632972717285,0.13341087102890015,-9.887980461120605
1745651216.7481825,-0.00655015092343092,-0.0026016312185674906,0.019729096442461014,0.43759068846702576,-0.06543219089508057,-9.531068801879883
1745651216.7801113,0.009432194754481316,-0.006378809455782175,0.01873604580760002,0.343241810798645,0.2920297086238861,-9.712563514709473
1745651216.781292,-0.007943494245409966,-0.004007307812571526,0.014913804829120636,0.47935572266578674,-0.054038066416978836,-10.069926261901855
1745651216.7835522,-0.013415682129561901,-0.00020224219770170748,-0.004276362247765064,0.30838632583618164,-0.20376546680927277,-9.854246139526367
1745651216.7856636,-0.004007141105830669,-0.003018319373950362,-0.006936287973076105,0.3045867085456848,0.3047269880771637,-9.531327247619629
1745651216.8212755,-0.012792149558663368,-0.002662975573912263,-0.006491881795227528,0.22942610085010529,-0.08521511405706406,-9.794238090515137
1745651216.824181,0.020157236605882645,-0.002748164813965559,-0.008775653317570686,0.4673128128051758,0.26999688148498535,-9.770258903503418
1745651216.8292558,0.001821243786253035,-2.145208327419823e-06,-0.010479355230927467,0.24529559910297394,0.19270338118076324,-9.896188735961914
1745651216.8343768,0.02126733772456646,-0.0009701363742351532,-0.01165144331753254,0.36906737089157104,-0.009847075678408146,-9.741609573364258
1745651216.8623207,0.022363657131791115,-0.003991014789789915,-0.013990843668580055,0.4244956970214844,0.37648889422416687,-9.5700044631958
1745651216.874016,0.008511324413120747,-0.0014138749102130532,-0.01690155267715454,0.3770116865634918,-0.10664673894643784,-10.071093559265137
1745651216.8741066,0.024953726679086685,-0.008852033875882626,-0.016343239694833755,0.4011947214603424,0.1981835663318634,-9.921168327331543
1745651216.8748384,0.027262628078460693,-0.0011167868506163359,-0.01964004710316658,0.3993968963623047,0.039469752460718155,-9.654011726379395
1745651216.9063416,0.018491175025701523,-0.008311339654028416,-0.018885184079408646,0.3105084300041199,0.03900985047221184,-9.758626937866211
1745651216.9085212,0.03091045655310154,-0.0074386922642588615,-0.019352439790964127,0.28060662746429443,-0.0434822142124176,-9.843423843383789
1745651216.9113753,0.02660711109638214,-0.008410023525357246,-0.018215229734778404,0.45209771394729614,-0.021862877532839775,-9.789984703063965
1745651216.9122071,0.014684977009892464,-0.004426519852131605,-0.020009733736515045,0.19069871306419373,0.007406362798064947,-9.821833610534668
1745651216.913512,0.0349699892103672,-0.009720368310809135,-0.019716067239642143,0.3980521261692047,-0.1870613545179367,-9.689793586730957
1745651216.951575,0.014551786705851555,-0.0076222894713282585,-0.020037170499563217,0.27574920654296875,0.16517752408981323,-9.772358894348145
1745651216.9520624,0.017292331904172897,-0.0021575172431766987,-0.021797139197587967,0.2844011187553406,-0.3765188753604889,-9.93709659576416
1745651216.9534857,0.00974821113049984,-0.010650547221302986,-0.022436395287513733,0.4569436013698578,0.11094751209020615,-9.553079605102539
1745651216.9558108,0.003508609952405095,-0.001308840001001954,-0.024660659953951836,0.2660070061683655,-0.1858324110507965,-9.797767639160156
1745651216.9912832,0.03167424723505974,-0.009793885052204132,-0.052861034870147705,0.42423391342163086,0.045623116195201874,-10.014339447021484
1745651216.9988728,0.010977135971188545,0.004783138632774353,-0.054190535098314285,0.29989248514175415,-0.3102494776248932,-10.027748107910156
1745651216.9989908,0.0137530118227005,5.576917828875594e-05,-0.057331014424562454,0.4356854557991028,-0.13984254002571106,-9.385473251342773
1745651216.9990325,-0.0010092471493408084,-0.005771930795162916,-0.05870736390352249,0.2999963164329529,-0.0937844067811966,-9.60451602935791
1745651217.0381677,0.0056133694015443325,-0.0008143791928887367,-0.05887610465288162,0.5538535714149475,-0.16026334464550018,-10.099533081054688
1745651217.0382323,0.004152345471084118,0.0004750019870698452,-0.06056787818670273,0.27646929025650024,0.2040572166442871,-10.006814956665039
1745651217.0389779,0.025407616049051285,0.008074618875980377,-0.061435502022504807,0.3080527186393738,-0.07481495290994644,-9.4668550491333
1745651217.043267,0.029953431338071823,-0.002416226314380765,-0.06376074254512787,0.3856566846370697,0.4337736964225769,-9.369664192199707
1745651217.078695,0.03303873911499977,0.00838614534586668,-0.06720989942550659,0.3885045051574707,0.07261309027671814,-10.100522994995117
1745651217.0788717,0.056525856256484985,0.0009169172262772918,-0.07179409265518188,0.4174562394618988,0.31571754813194275,-10.038844108581543
1745651217.0820904,0.04648531973361969,0.006740508135408163,-0.07554101943969727,0.274715781211853,-0.02887357771396637,-9.57028579711914
1745651217.0845504,0.055564962327480316,0.0034378613345324993,-0.07549532502889633,0.4397369921207428,-0.04848433658480644,-9.533365249633789
1745651217.0861247,0.05159944295883179,-0.0018072851235046983,-0.07573644071817398,0.3787144124507904,0.05610287934541702,-10.00299072265625
1745651217.1223578,0.057939738035202026,0.007572165224701166,-0.07780490815639496,0.4679414629936218,-0.20760786533355713,-10.037182807922363
1745651217.1255057,0.04189193248748779,0.003536804346367717,-0.07849689573049545,0.3663181662559509,0.016007641330361366,-9.50611686706543
1745651217.129008,0.05241560935974121,0.0013684662990272045,-0.08060657232999802,0.43111521005630493,-0.23169083893299103,-9.561951637268066
1745651217.13404,0.03250608965754509,0.0012312361504882574,-0.11773054301738739,0.34696292877197266,-0.10159778594970703,-9.621057510375977
1745651217.1645844,0.052171073853969574,0.0029318430460989475,-0.11570791900157928,0.23831315338611603,-0.03770144656300545,-9.611055374145508
1745651217.1675272,0.04764633625745773,0.0006637446349486709,-0.11488403379917145,0.4943130612373352,-0.0399041548371315,-9.75370979309082
1745651217.1715932,0.05957088619470596,-0.0003179762570653111,-0.11681991815567017,0.26810911297798157,0.213555246591568,-9.924997329711914
1745651217.1741078,0.06653814762830734,0.004894847981631756,-0.11647796630859375,0.2858356833457947,-0.1059509888291359,-9.812234878540039
1745651217.2084463,0.07451865822076797,0.0010590371675789356,-0.12107419967651367,0.21602503955364227,0.1420239806175232,-9.592728614807129
1745651217.2126641,0.06498943269252777,0.0009870652575045824,-0.12226758897304535,0.2760973870754242,-0.26476553082466125,-9.789305686950684
1745651217.2148972,0.06505168974399567,-0.0015474820975214243,-0.12444672733545303,0.4040815234184265,-0.20660345256328583,-9.887884140014648
1745651217.2177918,0.058433759957551956,0.004005470313131809,-0.12363861501216888,0.2527746260166168,-0.27576500177383423,-9.796073913574219
1745651217.2222643,0.04429555684328079,0.0006295157363638282,-0.12245261669158936,0.5061383843421936,-0.42421573400497437,-9.551836013793945
1745651217.252276,0.0433834083378315,-0.004237030632793903,-0.12163770198822021,0.35488611459732056,-0.19429254531860352,-9.732179641723633
1745651217.2566035,0.03314022347331047,-0.0005995366373099387,-0.12069356441497803,0.5234726667404175,-0.38045212626457214,-10.081073760986328
1745651217.2645047,0.040644846856594086,-0.0023476697970181704,-0.12041544914245605,0.26344534754753113,0.014122935943305492,-9.838488578796387
1745651217.2745724,0.03343086689710617,0.0005980663700029254,-0.1219535619020462,0.29380038380622864,-0.3073744773864746,-9.571722030639648
1745651217.2913098,0.043095268309116364,-0.006728652864694595,-0.12432578951120377,0.3174784481525421,0.06953226029872894,-9.622961044311523
1745651217.293302,0.041887857019901276,-0.0037975956220179796,-0.12506850063800812,0.27195408940315247,-0.07517264783382416,-9.941864967346191
1745651217.295366,0.05577492713928223,0.0025335843674838543,-0.12773261964321136,0.4204736351966858,-0.06833244860172272,-9.84899616241455
1745651217.297606,0.05275924131274223,-0.005034979432821274,-0.12917479872703552,0.292503297328949,0.01209330651909113,-9.567560195922852
1745651217.2989573,0.052526067942380905,-0.0019348796922713518,-0.12963928282260895,0.5264331102371216,-0.2723751664161682,-9.714667320251465
1745651217.3353536,0.050467900931835175,-0.006696651224046946,-0.12962238490581512,0.327772319316864,-0.001267863786779344,-10.014527320861816
1745651217.337415,0.05255264788866043,-0.0006680340738967061,-0.13707123696804047,0.47848644852638245,-0.1374894380569458,-9.780022621154785
1745651217.3387835,0.0353534035384655,-0.007547749672085047,-0.1419055163860321,0.3801879286766052,0.0159725584089756,-9.496307373046875
1745651217.3408105,0.04802095890045166,0.0024277372285723686,-0.13984902203083038,0.4027334153652191,-0.3414911925792694,-9.906023025512695
1745651217.3827477,0.05146767944097519,-0.008124465122818947,-0.14197558164596558,0.5073877573013306,0.03908777981996536,-9.867627143859863
1745651217.3857849,0.06198873370885849,0.003186402376741171,-0.14160527288913727,0.4209936261177063,-0.3703857660293579,-9.907825469970703
1745651217.3910954,0.057521283626556396,-0.002674917923286557,-0.14131562411785126,0.4751780033111572,-0.06798334419727325,-9.592354774475098
1745651217.3935025,0.05496423318982124,-0.004117845091968775,-0.1410011351108551,0.3799344599246979,-0.45352858304977417,-9.757043838500977
1745651217.4219673,0.05467404052615166,0.0014801110373809934,-0.1422998607158661,0.4536736011505127,-0.1959415227174759,-9.83023452758789
1745651217.4247668,0.039701566100120544,0.0029949015006422997,-0.14488565921783447,0.27755415439605713,-0.3066670298576355,-9.815557479858398
1745651217.4311597,0.0448397621512413,0.0010926753748208284,-0.14772140979766846,0.45015063881874084,-0.3035881519317627,-9.639154434204102
1745651217.432803,0.031395651400089264,0.0015694322064518929,-0.1502782702445984,0.440692275762558,-0.21212497353553772,-9.77592658996582
1745651217.4336271,0.031285326927900314,0.006335333921015263,-0.15184402465820312,0.4447227418422699,-0.35148563981056213,-9.947548866271973
1745651217.4674425,0.015927297994494438,-0.005590088199824095,-0.1494709700345993,0.506898045539856,-0.2934662997722626,-9.792948722839355
1745651217.4708817,0.037496089935302734,0.009550059214234352,-0.15045754611492157,0.38088512420654297,-0.24934060871601105,-9.702144622802734
1745651217.4753242,0.020368235185742378,0.0010085230460390449,-0.1480734646320343,0.5284675359725952,-0.13624653220176697,-9.712039947509766
1745651217.4795074,0.04107833653688431,0.0009723665425553918,-0.14901597797870636,0.3173229694366455,-0.07477463036775589,-9.946565628051758
1745651217.5080814,0.03219788521528244,0.006456249859184027,-0.17506536841392517,0.4394117295742035,-0.47047656774520874,-9.735365867614746
1745651217.5091019,0.04307795315980911,-0.0051852865144610405,-0.1760503053665161,0.484255313873291,-0.23489916324615479,-9.628527641296387
1745651217.5107884,0.041963838040828705,0.012094155885279179,-0.17630913853645325,0.4039943218231201,-0.3287629783153534,-9.946390151977539
1745651217.5121446,0.03873512148857117,-0.0007135327905416489,-0.17749018967151642,0.4790021777153015,-0.23824676871299744,-9.785810470581055
1745651217.5523696,0.04307154566049576,0.008332395926117897,-0.17896397411823273,0.35437172651290894,-0.29309481382369995,-9.64225959777832
1745651217.5535755,0.03428785502910614,0.0025386742781847715,-0.17961232364177704,0.45858439803123474,-0.3703484535217285,-9.698987007141113
1745651217.555499,0.03781456872820854,0.006353089120239019,-0.17840096354484558,0.16025081276893616,-0.1963559091091156,-9.863561630249023
1745651217.5585282,0.026075031608343124,0.003977133426815271,-0.17708565294742584,0.4784134030342102,-0.5986188650131226,-9.742118835449219
1745651217.5608914,0.033424634486436844,0.002753363223746419,-0.17482027411460876,0.20891718566417694,-0.21498708426952362,-9.812074661254883
1745651217.5954254,0.013329625129699707,0.004065961576998234,-0.1734531819820404,0.25756800174713135,-0.440562903881073,-9.819244384765625
1745651217.5964904,0.02255403622984886,-0.003725400660187006,-0.17310082912445068,0.37983912229537964,-0.23834189772605896,-9.681281089782715
1745651217.5979846,0.022469086572527885,0.004273134283721447,-0.17334552109241486,0.31007784605026245,-0.1875014305114746,-9.809812545776367
1745651217.5999207,0.020007064566016197,-0.007582115940749645,-0.17430107295513153,0.43442416191101074,-0.2784457802772522,-9.871999740600586
1745651217.6388822,0.03244605287909508,-0.0069475360214710236,-0.17563343048095703,0.26044994592666626,-0.16920438408851624,-9.803214073181152
1745651217.6423733,0.023272087797522545,-0.0005279416218400002,-0.16951687633991241,0.4138401448726654,-0.5059420466423035,-9.759332656860352
1745651217.647239,0.03620243817567825,-0.008477220311760902,-0.16537904739379883,0.2622188627719879,-0.12052612006664276,-9.632878303527832
1745651217.6505754,0.017339903861284256,-0.007149593438953161,-0.16646146774291992,0.41233307123184204,-0.4533342719078064,-9.9163818359375
1745651217.6814275,0.039464760571718216,-0.006829263176769018,-0.16678382456302643,0.3259523808956146,-0.12976384162902832,-9.860244750976562
1745651217.6844954,0.022196725010871887,-0.006806262768805027,-0.16918154060840607,0.25100237131118774,-0.34066343307495117,-9.677225112915039
1745651217.6890452,0.00041163471178151667,-0.011102673597633839,-0.1554708480834961,0.4170263409614563,-0.3914893567562103,-10.009305000305176
1745651217.6979096,0.004313610959798098,-0.02077912725508213,-0.15430045127868652,0.3485315442085266,-0.16272948682308197,-9.738908767700195
1745651217.7218945,0.01126894261687994,-0.020157482475042343,-0.15471580624580383,0.26531362533569336,-0.42680272459983826,-9.639532089233398
1745651217.7262082,0.0025693769566714764,-0.016428330913186073,-0.1512312889099121,0.4718605577945709,-0.21674290299415588,-9.644119262695312
1745651217.729671,0.005531695671379566,-0.017530513927340508,-0.15044373273849487,0.0974719375371933,-0.2107706367969513,-10.018261909484863
1745651217.7320476,0.016068454831838608,-0.019298655912280083,-0.1490909606218338,0.4197046160697937,-0.3155098557472229,-9.721996307373047
1745651217.7344658,0.009696858003735542,-0.018652360886335373,-0.1485563963651657,0.3047208786010742,-0.1428336203098297,-9.63448715209961
1745651217.7694411,0.018771231174468994,-0.014652344398200512,-0.1488521695137024,0.3161599040031433,-0.4454996585845947,-9.914341926574707
1745651217.7695258,0.01693790778517723,-0.025800492614507675,-0.1483863890171051,0.36741626262664795,-0.19415882229804993,-9.759413719177246
1745651217.772805,0.007599389646202326,-0.012445434927940369,-0.1468283087015152,0.27096736431121826,-0.5244668126106262,-9.746333122253418
1745651217.7750003,-0.003812303300946951,-0.017723923549056053,-0.14441390335559845,0.39842045307159424,-0.4401121735572815,-9.63212776184082
1745651217.808008,0.004044421948492527,-0.02309834025800228,-0.1432306170463562,0.2713448703289032,-0.3822932839393616,-9.78779411315918
1745651217.810062,-0.019261559471488,-0.013850254938006401,-0.1427929699420929,0.4146949350833893,-0.3211251199245453,-9.920884132385254
1745651217.8132942,-0.005957801826298237,-0.01683998480439186,-0.1461023986339569,0.34115731716156006,-0.263833224773407,-9.856911659240723
1745651217.8155122,-0.007323761936277151,-0.021594498306512833,-0.14656047523021698,0.5310567617416382,-0.2208748757839203,-9.608415603637695
1745651217.8191967,-0.013707378879189491,-0.014537992887198925,-0.1477350890636444,0.2798883020877838,-0.09274967014789581,-9.932831764221191
1745651217.8537962,0.011670127511024475,-0.015713879838585854,-0.1503671109676361,0.5217730402946472,-0.23910865187644958,-9.730579376220703
1745651217.8628764,0.024215083569288254,-0.0014066031435504556,-0.17644061148166656,0.3606104850769043,-0.16827981173992157,-10.097929000854492
1745651217.862944,0.03387296199798584,0.002620659302920103,-0.17708739638328552,0.29570576548576355,-0.35912424325942993,-9.740640640258789
1745651217.8667626,0.01758529245853424,0.007188066840171814,-0.17771458625793457,0.31811609864234924,-0.23070330917835236,-9.380349159240723
1745651217.897964,0.027591824531555176,0.0020069952588528395,-0.17786625027656555,0.27597638964653015,-0.49467936158180237,-9.835293769836426
1745651217.9013815,0.03031177446246147,0.0014643454924225807,-0.18061120808124542,0.5146834254264832,-0.20080557465553284,-10.030282974243164
1745651217.90534,0.01870296336710453,0.008552280254662037,-0.18368744850158691,0.3370325565338135,-0.36953702569007874,-9.920361518859863
1745651217.9127896,0.026908600702881813,0.008620469830930233,-0.1835176646709442,0.4577843248844147,-0.5372790098190308,-9.470905303955078
1745651217.938297,0.011684581637382507,0.0014184206956997514,-0.18245093524456024,0.44429492950439453,-0.30641672015190125,-9.580167770385742
1745651217.9407775,0.008149136789143085,0.005091453902423382,-0.18478330969810486,0.544937014579773,-0.5078555941581726,-10.148072242736816
1745651217.9432375,0.003727417439222336,0.01167661976069212,-0.18439117074012756,0.4329688549041748,-0.3745434284210205,-9.946183204650879
1745651217.9454935,0.022936049848794937,0.008691557683050632,-0.18611618876457214,0.2642512321472168,-0.1645273119211197,-9.469386100769043
1745651217.9505935,-0.001988803967833519,0.0030074757523834705,-0.18814142048358917,0.5013898015022278,-0.22361727058887482,-9.519865036010742
1745651217.9817584,0.028537902981042862,0.008736629970371723,-0.19193026423454285,0.3360609710216522,-0.05462838336825371,-10.123967170715332
1745651217.9838889,0.022044697776436806,0.012197609059512615,-0.19400563836097717,0.4736008644104004,-0.17837633192539215,-9.967252731323242
1745651217.9863281,0.036215975880622864,0.005545211024582386,-0.1971362978219986,0.3225538432598114,-0.23312059044837952,-9.536478996276855
1745651217.9879951,0.036508724093437195,0.007446649484336376,-0.19529104232788086,0.42972487211227417,-0.3665021061897278,-9.585027694702148
1745651218.0277522,0.03947536647319794,0.0043159048072993755,-0.19306960701942444,0.4772246479988098,-0.3406226634979248,-10.016620635986328
1745651218.02784,0.043935827910900116,0.011561085470020771,-0.19407714903354645,0.38141775131225586,-0.2813183665275574,-9.981889724731445
1745651218.0278893,0.02901611104607582,0.004701181314885616,-0.19441913068294525,0.5221737623214722,-0.493318647146225,-9.55699634552002
1745651218.0316167,0.019588684663176537,-0.006661819759756327,-0.186375230550766,0.2897613048553467,-0.44985851645469666,-9.756322860717773
1745651218.070425,0.01651688851416111,-0.006714011542499065,-0.1824788749217987,0.39078840613365173,-0.3525911867618561,-9.889862060546875
1745651218.0712254,0.02341422066092491,-0.008419455960392952,-0.18044431507587433,0.114631786942482,-0.16985084116458893,-9.832682609558105
1745651218.073391,0.02550710365176201,-0.0036007456947118044,-0.18405842781066895,0.2984393239021301,-0.36822831630706787,-9.561843872070312
1745651218.078395,0.02347683534026146,-0.011496318504214287,-0.18392682075500488,0.2629942297935486,-0.1446603536605835,-9.61815357208252
1745651218.0785677,0.011885317042469978,-0.006309136748313904,-0.1855638027191162,0.2945118546485901,-0.5679386258125305,-10.044171333312988
1745651218.111986,0.015801463276147842,-0.008654551580548286,-0.18347260355949402,0.3037133812904358,-0.4850544035434723,-9.852231979370117
1745651218.1159902,0.0062792496755719185,-0.007697171065956354,-0.17966192960739136,0.2499074935913086,-0.55828458070755,-9.514602661132812
1745651218.1193306,-0.005853845737874508,-0.00959052611142397,-0.17882828414440155,0.46038180589675903,-0.5138645172119141,-9.601213455200195
1745651218.1231647,-0.006363631691783667,-0.01286504976451397,-0.1771503984928131,0.3090877830982208,-0.28245872259140015,-9.964812278747559
1745651218.1540103,-0.009128076024353504,-0.007515225559473038,-0.17538735270500183,0.39130401611328125,-0.4128960072994232,-9.926684379577637
1745651218.1579657,-0.005715833976864815,-0.011610088869929314,-0.17792539298534393,0.23577013611793518,-0.09133831411600113,-9.557302474975586
1745651218.160399,0.0034498958848416805,-0.010644419118762016,-0.17788979411125183,0.23551014065742493,-0.4112010896205902,-9.734448432922363
1745651218.164837,0.004300216678529978,-0.016922200098633766,-0.17457535862922668,0.24827054142951965,-0.03247557953000069,-9.927480697631836
1745651218.1669366,0.010093342512845993,-0.008359307423233986,-0.17714087665081024,0.21675828099250793,-0.3882102370262146,-9.895942687988281
1745651218.1994443,0.010627216659486294,-0.014618259854614735,-0.17318370938301086,0.3995966613292694,-0.29642730951309204,-9.523666381835938
1745651218.2034905,0.008127371780574322,-0.018659593537449837,-0.17524592578411102,0.2811447083950043,-0.2832030653953552,-9.715677261352539
1745651218.2049475,0.010496916249394417,-0.028802817687392235,-0.1405676007270813,0.5787299871444702,-0.42383918166160583,-10.106610298156738
1745651218.2061741,0.012051518075168133,-0.01705784723162651,-0.1389060765504837,0.12969252467155457,-0.29512935876846313,-10.473904609680176
1745651218.241507,0.0019295027013868093,-0.016858413815498352,-0.13602490723133087,0.20860612392425537,-0.5065746903419495,-9.348386764526367
1745651218.2455194,-0.007024513091892004,-0.024007780477404594,-0.13919153809547424,0.18890728056430817,-0.1124095469713211,-9.06094741821289
1745651218.2517943,-0.016003862023353577,-0.01856059953570366,-0.1417437195777893,0.3769896328449249,-0.5309828519821167,-10.159985542297363
1745651218.2518377,-0.008253694511950016,-0.021197225898504257,-0.1438368409872055,0.38530904054641724,-0.20048129558563232,-10.35045051574707
1745651218.2812812,-0.024244990199804306,-0.009210108779370785,-0.1420569270849228,0.3066781759262085,-0.5627683997154236,-9.559679985046387
1745651218.283619,-0.033195190131664276,-0.021341631188988686,-0.13633783161640167,0.3475998044013977,-0.5396040081977844,-9.25016975402832
1745651218.2867482,-0.03249996155500412,-0.02029704861342907,-0.12802985310554504,0.2648821473121643,-0.4163281321525574,-10.018516540527344
1745651218.2897918,-0.03243711590766907,-0.012555276043713093,-0.12653890252113342,0.4292635917663574,-0.3947616219520569,-10.2991304397583
1745651218.2914977,-0.012462658807635307,-0.012773370370268822,-0.12682852149009705,0.16569159924983978,0.08785256743431091,-9.637458801269531
1745651218.326723,-0.010882665403187275,-0.012000716291368008,-0.12719976902008057,0.2517887055873871,-0.09350387006998062,-9.381965637207031
1745651218.3301718,-0.00962393544614315,-0.02353913150727749,-0.12945041060447693,0.2831172049045563,0.011972561478614807,-9.842676162719727
1745651218.3314378,0.004045552108436823,-0.008103780448436737,-0.13084176182746887,0.2531871497631073,-0.3239448666572571,-10.196063041687012
1745651218.3351674,-0.006969650741666555,-0.014674397185444832,-0.12866324186325073,0.2885704040527344,-0.27318432927131653,-9.749147415161133
1745651218.3689263,0.0015591904520988464,-0.014594224281609058,-0.12667891383171082,0.2344483882188797,-0.45634397864341736,-9.561406135559082
1745651218.3736606,-0.015001103281974792,-0.01700006052851677,-0.12217370420694351,0.4553726315498352,-0.35621315240859985,-9.759381294250488
1745651218.3783073,-0.011935792863368988,-0.017830433323979378,-0.12185068428516388,0.37953829765319824,-0.39074990153312683,-10.07641315460205
1745651218.3807962,-0.005578293465077877,-0.012081814929842949,-0.1191306859254837,0.38206207752227783,-0.28480392694473267,-9.874181747436523
1745651218.413516,-0.015418360941112041,-0.009304867126047611,-0.12263617664575577,0.2427442967891693,-0.2657124996185303,-9.855318069458008
1745651218.4170616,0.00204525631852448,0.0009495705598965287,-0.12129594385623932,0.3830485939979553,-0.5351521968841553,-10.1736421585083
1745651218.41849,-0.017959026619791985,-0.004343970213085413,-0.12134142965078354,0.33450713753700256,-0.3157057464122772,-9.62396240234375
1745651218.4208963,-0.023705918341875076,-0.001763941952958703,-0.11928057670593262,0.27636703848838806,-0.5908244848251343,-9.614889144897461
1745651218.4291961,-0.027089064940810204,-0.013001209124922752,-0.11916488409042358,0.45880818367004395,-0.2608945965766907,-9.8077392578125
1745651218.4566174,-0.029190074652433395,-0.0018274240428581834,-0.12023810297250748,0.16189424693584442,-0.2895564138889313,-10.114559173583984
1745651218.4591303,-0.03350378945469856,0.0016647998709231615,-0.12263188511133194,0.30877336859703064,-0.2724584639072418,-9.651986122131348
1745651218.4619477,-0.02778426744043827,-0.00768037885427475,-0.12492306530475616,0.20408721268177032,-0.10300283133983612,-9.441353797912598
1745651218.4653475,-0.03006342053413391,2.8218282750458457e-05,-0.12393240630626678,0.288178950548172,-0.23613011837005615,-9.889936447143555
1745651218.4977674,-0.023657014593482018,-0.002098668832331896,-0.12482485920190811,0.30119994282722473,-0.14798621833324432,-10.044903755187988
1745651218.502893,-0.0020543825812637806,0.006304449401795864,-0.12432856857776642,0.27714070677757263,-0.13470594584941864,-9.678736686706543
1745651218.5039585,-0.029338840395212173,-0.0006700906669721007,-0.1237378939986229,0.40350428223609924,-0.14353124797344208,-9.485391616821289
1745651218.5070481,0.009044897742569447,-0.0005087837926112115,-0.12426964193582535,0.3941009044647217,-0.21892300248146057,-9.957624435424805
1745651218.511384,-0.009029969573020935,0.003029620973393321,-0.12674087285995483,0.3972427248954773,-0.021529149264097214,-10.04341983795166
1745651218.5412655,0.01535178255289793,0.008069069124758244,-0.1295081377029419,0.37526166439056396,-0.20264668762683868,-9.666117668151855
1745651218.5449953,0.007114729378372431,0.0018964509945362806,-0.13022978603839874,0.46552005410194397,-0.1475677788257599,-9.489995002746582
1745651218.5485384,0.0012759221717715263,-0.0014602892333641648,-0.13027016818523407,0.27633339166641235,-0.3079353868961334,-9.980712890625
1745651218.5522103,-0.01719735935330391,0.011196913197636604,-0.120614193379879,0.2664468288421631,-0.4949214458465576,-9.594487190246582
1745651218.5868816,-0.011223082430660725,-0.002639607759192586,-0.1131569892168045,0.4563197195529938,0.08727596700191498,-9.38734245300293
1745651218.5876238,-0.011119404807686806,0.001966241979971528,-0.11386418342590332,0.1843302696943283,-0.17914728820323944,-10.197014808654785
1745651218.5899425,0.018196526914834976,0.004023819696158171,-0.11320312321186066,0.4168366491794586,0.08568564057350159,-9.928489685058594
1745651218.591464,0.009292399510741234,0.006003962364047766,-0.11388377845287323,0.10564593970775604,-0.025346215814352036,-9.429170608520508
1745651218.6274302,0.0245291106402874,-0.0006450560176745057,-0.11459976434707642,0.38057419657707214,-0.30350494384765625,-9.534772872924805
1745651218.6297297,0.014332438819110394,9.604413207853213e-05,-0.11245562136173248,0.33784207701683044,-0.0580853633582592,-9.956345558166504
1745651218.6319022,0.007402392569929361,0.008585558272898197,-0.11153741180896759,0.25323569774627686,-0.5838054418563843,-10.117913246154785
1745651218.6332467,0.010800888761878014,0.003573574824258685,-0.10850082337856293,0.43219536542892456,-0.23504658043384552,-9.379037857055664
1745651218.6353045,-0.011455608531832695,-0.0006879980792291462,-0.10522066056728363,0.29906174540519714,-0.5065999627113342,-9.636885643005371
1745651218.6714027,-0.003008441301062703,0.0009241284569725394,-0.10488158464431763,0.45682963728904724,-0.31856900453567505,-10.103322982788086
1745651218.675183,-0.013829599134624004,0.002014500554651022,-0.10372629016637802,0.20616137981414795,-0.20300988852977753,-9.942509651184082
1745651218.6836855,-0.017187872901558876,0.0009177913889288902,-0.10124220699071884,0.33693909645080566,-0.48295941948890686,-9.424551010131836
1745651218.6857955,-0.015236364677548409,-0.00016021495684981346,-0.099546417593956,0.21835967898368835,-0.033611588180065155,-9.532660484313965
1745651218.713145,-0.01681414619088173,-0.004117024131119251,-0.09828665107488632,0.27666932344436646,-0.4511958062648773,-10.16600227355957
1745651218.7161746,-0.003756784601137042,0.0021794100757688284,-0.09670610725879669,0.2730180323123932,0.04623490944504738,-9.87733268737793
1745651218.7238472,-0.015034737065434456,0.0016290381317958236,-0.09763899445533752,0.236703559756279,-0.31891098618507385,-9.570363998413086
1745651218.7239099,-0.002336229430511594,-0.010093252174556255,-0.09560329467058182,0.4764540195465088,-0.1257944107055664,-9.53921127319336
1745651218.7254891,-0.00712280860170722,-0.003002455923706293,-0.09474392235279083,0.33054542541503906,-0.14419467747211456,-10.101767539978027
1745651218.7641127,-0.012418568134307861,-0.003049273509532213,-0.09078516066074371,0.42132967710494995,-0.4086304306983948,-9.9927339553833
1745651218.7686837,-0.013802604749798775,-0.012944042682647705,-0.08418507128953934,0.39316526055336,-0.05999293923377991,-9.884077072143555
1745651218.7727983,-0.025484949350357056,-0.0012645962415263057,-0.08406467735767365,0.2275417298078537,-0.3163127899169922,-9.74610710144043
1745651218.7750146,-0.026010746136307716,-0.011176645755767822,-0.08276999741792679,0.3322746157646179,-0.20257849991321564,-9.588711738586426
1745651218.7989635,-0.021107856184244156,-0.004859237466007471,-0.0811324343085289,0.25724416971206665,-0.14198264479637146,-9.769048690795898
1745651218.8022294,-0.02717643603682518,-0.008271617814898491,-0.07841940969228745,0.2992575764656067,-0.25436174869537354,-9.923376083374023
1745651218.8054478,-0.01759960874915123,-0.006213580258190632,-0.07602348923683167,0.11332009732723236,-0.22422464191913605,-9.809541702270508
1745651218.814489,-0.017387647181749344,-0.002151641296222806,-0.06844224035739899,0.469000905752182,-0.451415479183197,-9.526192665100098
1745651218.841416,-0.03410758823156357,-0.01321148406714201,-0.06397151201963425,0.3229059875011444,-0.2395780086517334,-9.977182388305664
1745651218.8432698,-0.028800079599022865,-0.0008106378954835236,-0.05854295939207077,0.3062748312950134,-0.4908667206764221,-9.972131729125977
1745651218.8449624,-0.0483047291636467,-0.0025271351914852858,-0.053241051733493805,0.578999936580658,-0.26446306705474854,-9.486513137817383
1745651218.847174,-0.05938190221786499,-0.00694555277004838,-0.05043504759669304,0.4865776598453522,-0.17368583381175995,-9.742766380310059
1745651218.8485348,-0.05303800106048584,-0.015733616426587105,-0.04944738745689392,0.666774570941925,-0.2096165418624878,-10.160615921020508
1745651218.8863115,-0.06240149587392807,-0.004754343070089817,-0.045559946447610855,0.24828287959098816,0.06101313978433609,-10.013984680175781
1745651218.8909442,-0.04927917569875717,-0.00016499310731887817,-0.043673694133758545,0.31329581141471863,-0.23567815124988556,-9.419065475463867
1745651218.8951647,-0.044440507888793945,-0.016257716342806816,-0.0379636324942112,0.3771805167198181,0.2967410683631897,-9.354371070861816
1745651218.9000056,-0.032929398119449615,-0.004615160636603832,-0.03229554742574692,0.2902486324310303,-0.029390249401330948,-10.278390884399414
1745651218.9307904,-0.09241920709609985,0.015589304268360138,0.060897283256053925,0.20638123154640198,-0.1988331377506256,-9.5620698928833
1745651218.932998,-0.10829192399978638,0.01226872019469738,0.06163674592971802,0.40227675437927246,-0.33806076645851135,-9.890624046325684
1745651218.9359655,-0.11258833110332489,0.011821961030364037,0.06616338342428207,0.5273674726486206,-0.08118856698274612,-9.916790962219238
1745651218.9384985,-0.10764820873737335,0.014840920455753803,0.06537754088640213,0.5425606966018677,0.004675239324569702,-9.848302841186523
1745651218.9699905,-0.12882819771766663,-0.0010762211168184876,0.06334316730499268,0.23948459327220917,0.10642166435718536,-9.933084487915039
1745651218.979482,-0.08949848264455795,0.00679251691326499,0.06456540524959564,0.14297479391098022,0.16221505403518677,-9.671089172363281
1745651218.9795737,-0.10477421432733536,0.010491270571947098,0.0646270364522934,0.2753863036632538,0.3561546206474304,-9.588303565979004
1745651218.9796607,-0.06773921847343445,-0.0001937828928930685,0.0631222054362297,-0.005843008402734995,0.2951074540615082,-10.003209114074707
1745651218.9799192,-0.04775380343198776,0.004662662744522095,0.062281571328639984,0.18598857522010803,0.19205741584300995,-9.836567878723145
1745651219.0151649,-0.04567215219140053,0.00826552975922823,0.06300809234380722,0.06772013008594513,0.19132383167743683,-9.589149475097656
1745651219.020043,-0.03823390603065491,0.005125966388732195,0.06545494496822357,0.18436673283576965,-0.30122843384742737,-9.705480575561523
1745651219.02018,-0.04167596623301506,-0.0020136709790676832,0.06657344847917557,0.3581083416938782,-0.21831826865673065,-9.890240669250488
1745651219.0229943,-0.06690002977848053,0.007743450812995434,0.06827710568904877,0.2209901362657547,-0.5032976865768433,-10.063349723815918
1745651219.0575736,-0.09006394445896149,0.0013649942120537162,0.07111898809671402,0.37758737802505493,-0.5331760048866272,-9.56374740600586
1745651219.0609164,-0.10854312032461166,-0.005802182015031576,0.0717620775103569,0.28629645705223083,-0.33458662033081055,-9.429435729980469
1745651219.0619273,-0.14742238819599152,0.00016918961773626506,0.07008032500743866,0.3751527667045593,-0.3586343228816986,-10.060739517211914
1745651219.0645187,-0.14124390482902527,-0.004641104955226183,0.07006670534610748,0.19419634342193604,-0.0023141042329370975,-10.019396781921387
1745651219.0987248,-0.14753277599811554,0.002731333253905177,0.06976479291915894,0.2655186355113983,-0.02951214089989662,-9.500055313110352
1745651219.1019554,-0.13819360733032227,-0.00818945374339819,0.07096678763628006,0.29649001359939575,0.40904611349105835,-9.537153244018555
1745651219.1042602,-0.11673355102539062,-0.006223917473107576,0.0713624432682991,0.19495423138141632,0.24872207641601562,-10.124269485473633
1745651219.1089783,-0.08775169402360916,-0.004192753694951534,0.07559367269277573,0.30714118480682373,0.4884086549282074,-9.889284133911133
1745651219.1117387,-0.10331006348133087,-0.014689293690025806,0.0817728117108345,0.1629023402929306,0.04775753244757652,-9.527427673339844
1745651219.144983,-0.10109033435583115,-0.013034457340836525,0.08458618074655533,0.3198409080505371,-0.013753131031990051,-10.021970748901367
1745651219.1471045,-0.08873949199914932,-0.01548460591584444,0.08801545202732086,0.18817587196826935,0.2204790562391281,-9.964945793151855
1745651219.1493685,-0.08348968625068665,-0.005350043531507254,0.08813448995351791,0.18806985020637512,0.13151489198207855,-9.552410125732422
1745651219.1531923,-0.08663846552371979,-0.016352014616131783,0.08926478028297424,0.23451006412506104,0.2828342020511627,-9.504716873168945
1745651219.1851742,-0.07738936692476273,-0.013341041281819344,0.08641206473112106,0.24535584449768066,0.13209250569343567,-9.927885055541992
1745651219.1893945,-0.07976823300123215,-0.013402784243226051,0.08892549574375153,0.429600328207016,0.18846599757671356,-9.99815559387207
1745651219.1924512,-0.08076874166727066,-0.011600112542510033,0.08704434335231781,0.1910359412431717,0.276794970035553,-9.770807266235352
1745651219.1974852,-0.08292032778263092,-0.014892339706420898,0.08743409067392349,0.4432510435581207,-0.017436886206269264,-9.564120292663574
1745651219.197587,-0.0905868262052536,-0.02058364637196064,0.08691753447055817,0.3169388175010681,0.3086933493614197,-9.838136672973633
1745651219.2311163,-0.08371470123529434,-0.010000470094382763,0.08655108511447906,0.37020236253738403,0.1046542078256607,-10.070157051086426
1745651219.233712,-0.07727520167827606,-0.02102729305624962,0.08783159404993057,0.3317466080188751,0.3878614902496338,-9.663690567016602
1745651219.2348597,-0.060321878641843796,-0.017515232786536217,0.09083578735589981,0.2512155771255493,0.18680836260318756,-9.614152908325195
1745651219.2375376,-0.05987439304590225,-0.013573093339800835,0.09229147434234619,0.3064165711402893,0.35670146346092224,-9.816527366638184
1745651219.2734272,-0.04415101930499077,-0.019541868939995766,0.09540816396474838,0.27800434827804565,0.08301649242639542,-9.888633728027344
1745651219.2867723,-0.011077022179961205,0.017035700380802155,0.12900516390800476,0.3801693618297577,0.2709161639213562,-9.920982360839844
1745651219.291567,-0.038624029606580734,0.0010521538788452744,0.13007497787475586,0.29503050446510315,0.022826630622148514,-9.409136772155762
1745651219.2957811,-0.02327365055680275,-0.00020633339590858668,0.13208982348442078,0.46531447768211365,0.03432527184486389,-9.513712882995605
1745651219.3162415,-0.06245552375912666,0.007372662425041199,0.1332244575023651,0.5577353239059448,0.1820702999830246,-10.173905372619629
1745651219.3213384,-0.05023811385035515,0.006813625805079937,0.13138267397880554,0.2555214762687683,0.10635028034448624,-10.126374244689941
1745651219.3253448,-0.05745788663625717,0.00017905328422784805,0.13320502638816833,0.4511992335319519,0.2953370213508606,-9.323314666748047
1745651219.3276653,-0.054896969348192215,0.0006022193701937795,0.13103091716766357,0.1308770775794983,0.4978446066379547,-9.648805618286133
1745651219.357117,-0.045735914260149,0.0019980566576123238,0.12844592332839966,0.3198077082633972,0.32157179713249207,-10.092204093933105
1745651219.3614101,-0.024379856884479523,0.0010842448100447655,0.12999984622001648,0.17804066836833954,0.5808871984481812,-9.907574653625488
1745651219.363528,-0.016306448727846146,0.005499029997736216,0.13114310801029205,0.011405976489186287,0.21259644627571106,-9.590261459350586
1745651219.3659415,-0.004395521245896816,0.005052979104220867,0.13063940405845642,0.15544156730175018,0.3433377742767334,-9.389410018920898
1745651219.3685365,-0.015159395523369312,0.005835231859236956,0.13046829402446747,0.17517784237861633,0.1894831359386444,-9.862078666687012
1745651219.4014428,-0.012712366878986359,0.005272067617624998,0.13023552298545837,0.4545491337776184,0.02102678082883358,-10.06092357635498
1745651219.4047532,-0.019891072064638138,0.004996665753424168,0.1279544085264206,0.3137088716030121,0.2927980124950409,-9.776432991027832
1745651219.4061162,-0.04722922295331955,0.001956415129825473,0.12481512874364853,0.35803520679473877,-0.2582842707633972,-9.646157264709473
1745651219.4073703,-0.044824160635471344,-0.0027572838589549065,0.12620382010936737,0.3425136208534241,0.1771923154592514,-9.666849136352539
1745651219.445157,-0.08142594993114471,0.005272515118122101,0.12471626698970795,0.35618653893470764,-0.01654580794274807,-9.977578163146973
1745651219.448468,-0.058258868753910065,-3.940481838071719e-05,0.12524108588695526,0.3278419077396393,0.3416476249694824,-9.815149307250977
1745651219.4509666,-0.06900201737880707,0.003914801403880119,0.12551967799663544,0.16604359447956085,0.49753350019454956,-9.635612487792969
1745651219.453171,-0.0496106818318367,-0.0040917955338954926,0.1248878687620163,0.30608952045440674,0.43038803339004517,-9.71591854095459
1745651219.4904678,-0.027319010347127914,-0.004202215000987053,0.12304917722940445,0.2255934476852417,0.42807093262672424,-9.60247802734375
1745651219.4939384,-0.010043486021459103,0.0004072696028742939,0.1221136823296547,0.2880430519580841,0.36660557985305786,-9.697178840637207
1745651219.4964356,-0.015800291672348976,-0.0002805640397127718,0.12322914600372314,0.28452301025390625,0.47278428077697754,-9.951047897338867
1745651219.499739,0.004519189707934856,0.0013687454629689455,0.12226501852273941,0.18320012092590332,0.4418732225894928,-9.904211044311523
1745651219.5307229,0.00042882832349278033,0.0003837578115053475,0.11920328438282013,0.411399781703949,0.2929185926914215,-9.560333251953125
1745651219.5326798,0.004512258805334568,-0.0010539648355916142,0.12105938047170639,0.17875349521636963,0.4268740117549896,-9.730649948120117
1745651219.5355375,-0.010152531787753105,0.002022638451308012,0.11979444324970245,0.4106527268886566,0.12327513843774796,-9.959875106811523
1745651219.536773,0.0031017859000712633,-0.006043052766472101,0.11882179975509644,0.36545640230178833,0.41978272795677185,-9.783244132995605
1745651219.5382016,-0.013252797536551952,0.0037292365450412035,0.11674819141626358,0.30705684423446655,0.24778583645820618,-9.732831954956055
1745651219.5759602,-0.0067619807086884975,-0.007297760806977749,0.11915072053670883,0.3664535880088806,0.3116094172000885,-9.754921913146973
1745651219.5785384,0.0032827698159962893,-0.0022054356522858143,0.11706330627202988,0.21318793296813965,0.34729713201522827,-9.880165100097656
1745651219.5806522,-0.0029649478383362293,0.0011634791735559702,0.11965161561965942,0.31243664026260376,0.2522178292274475,-9.795733451843262
1745651219.5829275,0.014269867911934853,-0.003119163913652301,0.11801777780056,0.13378795981407166,0.45908695459365845,-9.665736198425293
1745651219.61641,0.01326009351760149,-0.003779714461416006,0.11812528222799301,0.30871906876564026,0.20825600624084473,-9.718877792358398
1745651219.619664,0.019386205822229385,-5.920557214267319e-06,0.1183900460600853,0.2719571590423584,0.5275713205337524,-9.857343673706055
1745651219.6242356,0.014069895260035992,-0.0023926652502268553,0.11457445472478867,0.22440151870250702,0.18015632033348083,-9.917912483215332
1745651219.626968,0.033772338181734085,0.0005591291119344532,0.0837043970823288,0.19296212494373322,0.0660693496465683,-9.640205383300781
1745651219.629375,0.02610761485993862,-0.009770279750227928,0.08261644840240479,0.4193350672721863,0.26030391454696655,-9.51734733581543
1745651219.66127,0.01820579543709755,-0.006479516625404358,0.07950253784656525,0.23887419700622559,0.20103159546852112,-10.03962516784668
1745651219.6622512,0.02491551823914051,-0.005878084804862738,0.07992596924304962,0.4173528254032135,0.12123902887105942,-9.966836929321289
1745651219.6646035,0.01687927171587944,-0.004229622893035412,0.07751074433326721,0.2479131519794464,0.3227147161960602,-9.600950241088867
1745651219.6662395,0.01693262718617916,-0.005524276755750179,0.07854555547237396,0.29135066270828247,0.08527489751577377,-9.710912704467773
1745651219.701528,0.0215793214738369,-0.016415419057011604,0.07804931700229645,0.4022778570652008,0.3482646942138672,-9.831721305847168
1745651219.7042797,0.02739572897553444,0.0002278100437251851,0.07817869633436203,0.20790782570838928,0.2724984288215637,-10.035892486572266
1745651219.7059624,0.02189033292233944,-0.008487208746373653,0.0760330930352211,0.3285110592842102,0.3194893002510071,-9.663158416748047
1745651219.7087054,0.045801639556884766,-0.008765803650021553,0.07274390757083893,0.19924429059028625,0.4001009464263916,-9.558488845825195
1745651219.711243,0.024847809225320816,-0.008309418335556984,0.07186256349086761,0.4220217168331146,0.26741501688957214,-9.909256935119629
1745651219.7465456,0.04676036909222603,-0.005865034181624651,0.07001306116580963,0.2695971131324768,0.28264519572257996,-10.027433395385742
1745651219.7488968,0.033871013671159744,-0.008539510890841484,0.06890713423490524,0.3444940745830536,0.19216687977313995,-9.634568214416504
1745651219.7540379,0.03640739247202873,-0.009345272555947304,0.0683668702840805,0.33454006910324097,0.19901901483535767,-9.60107707977295
1745651219.7573855,0.03399505466222763,-0.009406532160937786,0.06720760464668274,0.3320908546447754,0.22924306988716125,-9.930747032165527
1745651219.791768,0.03624478727579117,-0.010421264916658401,0.06598134338855743,0.3753368854522705,0.2037249058485031,-9.96333122253418
1745651219.79573,0.04659653455018997,-0.0013455735752359033,0.06126124784350395,0.2503126859664917,0.40283623337745667,-9.617179870605469
1745651219.804551,0.03271590918302536,-0.012157166376709938,0.06135748699307442,0.3516046106815338,0.12662065029144287,-9.613702774047852
1745651219.8046236,0.0507383830845356,-0.010085202753543854,0.060450367629528046,0.13771378993988037,0.3894370198249817,-9.928000450134277
1745651219.831201,0.03954615071415901,-0.0039843288250267506,0.05810420587658882,0.3215949833393097,0.07269497215747833,-9.932731628417969
1745651219.8343801,0.0422346405684948,-0.007254770956933498,0.042875926941633224,0.3504289388656616,0.09704570472240448,-9.935525894165039
1745651219.8372655,0.06851260364055634,-0.00765207689255476,0.04148359224200249,0.1989048421382904,0.29543736577033997,-9.591415405273438
1745651219.8393435,0.045518167316913605,-0.006528015248477459,0.04194612056016922,0.35612019896507263,0.07409895211458206,-9.651273727416992
1745651219.843272,0.06191561371088028,-0.010149211622774601,0.04088784009218216,0.25089749693870544,0.2451007068157196,-9.91625690460205
1745651219.879343,0.05200169235467911,-0.0022768336348235607,0.035857655107975006,0.36072593927383423,0.0995798334479332,-9.877340316772461
1745651219.8806107,0.047548603266477585,-0.006860529072582722,0.03564291447401047,0.26754674315452576,0.22492286562919617,-9.706257820129395
1745651219.8826323,0.04623081162571907,-0.007380856666713953,0.03382605314254761,0.3493897020816803,0.04891899973154068,-9.667014122009277
1745651219.9180775,0.04849487170577049,-0.004854624625295401,0.032064877450466156,0.46112021803855896,0.16669990122318268,-9.807437896728516
1745651219.9226358,0.04294077306985855,-0.005408586468547583,0.030567869544029236,0.1885886937379837,0.25246167182922363,-9.978826522827148
1745651219.9257085,0.05366630479693413,-0.005364573560655117,0.027697283774614334,0.4967263638973236,0.048748187720775604,-9.5596284866333
1745651219.929187,0.0538455955684185,-0.0038865525275468826,0.02648218907415867,0.2638484537601471,0.45917901396751404,-9.651296615600586
1745651219.9326327,0.05327155441045761,-0.002217106055468321,0.022232230752706528,0.32116371393203735,-0.021607976406812668,-10.103663444519043
1745651219.9618623,0.07877840101718903,-0.004745827056467533,0.022763121873140335,0.25917088985443115,0.34348973631858826,-9.801567077636719
1745651219.967529,0.059977732598781586,0.00464752409607172,0.019176581874489784,0.25390711426734924,0.04039611667394638,-9.599662780761719
1745651219.9675581,0.07155250012874603,-0.007539457641541958,0.018265822902321815,0.3814524710178375,0.17931170761585236,-9.64716911315918
1745651219.9702797,0.06721843779087067,-0.0006387188332155347,0.0015380238182842731,0.31692901253700256,-0.09558235108852386,-9.530803680419922
1745651220.0051649,0.08209747821092606,-0.004031396005302668,0.000651564565487206,0.28621888160705566,0.09197699278593063,-9.569561004638672
1745651220.006843,0.05636267736554146,0.002527755917981267,0.0017706187209114432,0.3594907522201538,-0.20351263880729675,-10.043828010559082
1745651220.0091128,0.06322962790727615,-0.0020763271022588015,0.0027316026389598846,0.2341432124376297,-0.0546160452067852,-9.864328384399414
1745651220.0105455,0.047254204750061035,0.0041471016593277454,0.002905885223299265,0.2518160343170166,-0.17141839861869812,-9.543561935424805
1745651220.048486,0.040039755403995514,-0.00659612100571394,0.005227969493716955,0.4787589907646179,-0.045875515788793564,-9.614679336547852
1745651220.0528083,0.04393889755010605,0.0003135802107863128,0.0035583567805588245,0.2254568636417389,0.017075149342417717,-10.112314224243164
1745651220.0561225,0.037129584699869156,0.002205533441156149,0.003377878572791815,0.39872947335243225,-0.00042166709317825735,-9.849589347839355
1745651220.0607018,0.04814089462161064,-0.0016532618319615722,0.0034222707618027925,0.18233424425125122,0.14408311247825623,-9.491865158081055
1745651220.0907357,0.037718266248703,-0.0024513115640729666,0.005476497579365969,0.34205228090286255,-0.06045661121606827,-9.69144344329834
1745651220.095115,0.06295336037874222,0.0012225124519318342,0.003970626275986433,0.29362088441848755,0.21915368735790253,-9.962369918823242
1745651220.097078,0.04653081297874451,0.004295515362173319,0.003925551660358906,0.23108501732349396,0.0795816108584404,-9.937843322753906
1745651220.1007934,0.061748750507831573,-0.004819606430828571,0.0008294902509078383,0.36899256706237793,0.026024919003248215,-9.538041114807129
1745651220.1059096,0.05889168381690979,0.0022215391509234905,0.0013038825709372759,0.2760159373283386,0.2007068693637848,-9.690900802612305
1745651220.134469,0.044195253401994705,-0.003008621046319604,-0.002340443665161729,0.3968675434589386,-0.2533103823661804,-10.1001558303833
1745651220.1392605,0.07446233928203583,-0.0010355317499488592,-0.000913182448130101,0.3217940032482147,0.08015382289886475,-9.747337341308594
1745651220.1428533,0.03295134752988815,0.002492025261744857,0.0007869709515944123,0.3360259532928467,-0.20457009971141815,-9.637856483459473
1745651220.145557,0.05265718698501587,-0.007481211330741644,0.0005951180355623364,0.23055818676948547,-0.024859029799699783,-9.708930969238281
1745651220.1759663,0.03895492106676102,0.0025534345768392086,-0.00041755527490749955,0.32014545798301697,-0.05015776306390762,-9.850975036621094
1745651220.1805491,0.041720859706401825,-0.0023257422726601362,-0.0005245495121926069,0.3141196370124817,-0.029164860025048256,-9.88047981262207
1745651220.1852152,0.043507058173418045,-0.0013600860256701708,-0.011625422164797783,0.3409426212310791,-0.18031582236289978,-9.9183988571167
1745651220.1912556,0.054168350994586945,-0.0005308646941557527,-0.011791093274950981,0.2696243226528168,0.09257970750331879,-9.73211669921875
1745651220.1952643,0.04562251269817352,0.0005584660684689879,-0.014166641049087048,0.2880989909172058,-0.23982937633991241,-9.67180347442627
1745651220.2223551,0.04498428851366043,-0.0007079888600856066,-0.012775558046996593,0.40867701172828674,-0.12208740413188934,-9.740503311157227
1745651220.2241101,0.036728113889694214,-0.003096048254519701,-0.012289601378142834,0.2321201115846634,-0.041198842227458954,-9.954493522644043
1745651220.2255623,0.029503315687179565,5.953218715148978e-05,-0.017737314105033875,0.4064059257507324,-0.3043777048587799,-9.857691764831543
1745651220.230605,0.036269888281822205,0.0038717221468687057,-0.015389660373330116,0.21093504130840302,0.05579305440187454,-9.618111610412598
1745651220.2636554,0.008155410178005695,-0.0022319997660815716,-0.018355537205934525,0.3645833134651184,-0.33065885305404663,-9.792205810546875
1745651220.270432,0.0359344556927681,-0.007087721489369869,-0.019485926255583763,0.306665301322937,0.10197000205516815,-9.891955375671387
1745651220.2728992,0.005987545941025019,0.006187491584569216,-0.019327234476804733,0.2731132209300995,-0.17997586727142334,-9.825533866882324
1745651220.2765656,0.028935298323631287,0.00042591086821630597,-0.019412415102124214,0.321322500705719,0.01601136289536953,-9.606768608093262
1745651220.2798162,0.020846614614129066,-0.0016945796087384224,-0.020571669563651085,0.23665781319141388,0.07163958251476288,-9.70685863494873
1745651220.3086057,0.02747160755097866,0.0009255048935301602,-0.020047364756464958,0.3817524313926697,-0.0747300311923027,-10.023366928100586
1745651220.313278,0.03729741647839546,-0.0006621115026064217,-0.021358365193009377,0.20270010828971863,0.16999347507953644,-9.886282920837402
1745651220.31611,0.03700512275099754,0.0021156922448426485,-0.022670065984129906,0.40498465299606323,-0.210806205868721,-9.567249298095703
1745651220.319044,0.03703064098954201,-0.0025372698437422514,-0.02322961762547493,0.24578127264976501,0.16452893614768982,-9.674330711364746
1745651220.3499367,0.025686610490083694,0.0031170109286904335,-0.04101265221834183,0.29382896423339844,-0.28112953901290894,-9.849878311157227
1745651220.353769,0.002152062952518463,0.000681356352288276,-0.03991803154349327,0.3780883252620697,-0.08340205252170563,-9.695487022399902
1745651220.359259,0.009352050721645355,0.005199841223657131,-0.04000268504023552,0.30862927436828613,-0.24721379578113556,-9.87464714050293
1745651220.3611813,0.009741965681314468,-0.002142522018402815,-0.038342177867889404,0.4015170931816101,-0.0568992979824543,-9.803102493286133
1745651220.3936465,0.009155794978141785,-0.0006598983891308308,-0.03913450986146927,0.17248931527137756,-0.016308601945638657,-9.809369087219238
1745651220.3967757,0.015373977832496166,0.00793528277426958,-0.03865452855825424,0.34172171354293823,-0.04009779542684555,-9.664551734924316
1745651220.4010818,0.0193491131067276,-0.0013332731323316693,-0.03939904272556305,0.2882007956504822,0.09962861984968185,-9.670808792114258
1745651220.4043503,0.02784099616110325,0.0036494042724370956,-0.03737134858965874,0.31266671419143677,-0.06317927688360214,-9.961575508117676
1745651220.4342594,0.028567790985107422,-0.001303338329307735,-0.04065999016165733,0.30287712812423706,0.08630093187093735,-9.900964736938477
1745651220.43723,0.04280531033873558,0.0060631949454545975,-0.03800053521990776,0.218451589345932,-0.10753843933343887,-9.643631935119629
1745651220.439141,0.03022521175444126,-0.0014098556712269783,-0.038486555218696594,0.40537184476852417,-0.10388700664043427,-9.625740051269531
1745651220.4423106,0.035847268998622894,0.0017727504018694162,-0.03828306123614311,0.26647552847862244,-0.1617615520954132,-9.964875221252441
1745651220.4455,0.02405363693833351,0.0036570727825164795,-0.03761517256498337,0.3799503445625305,-0.19726651906967163,-9.824828147888184
1745651220.478461,0.019169215112924576,0.0016351521480828524,-0.035521458834409714,0.25597405433654785,-0.17050425708293915,-9.642390251159668
1745651220.4813569,0.01652059331536293,0.005212075542658567,-0.039460353553295135,0.36444735527038574,-0.2627505660057068,-9.746000289916992
1745651220.4857347,0.005823495797812939,-0.006257850676774979,-0.03766424208879471,0.30988818407058716,-0.13373741507530212,-9.94236946105957
1745651220.4896882,0.017554527148604393,0.007121329661458731,-0.037690553814172745,0.2335258424282074,-0.25450587272644043,-9.90794849395752
1745651220.520482,0.0001464560627937317,0.0002311001589987427,-0.036085568368434906,0.3156270384788513,-0.09641172736883163,-9.570964813232422
1745651220.5226011,0.016976524144411087,0.0001167255686596036,-0.03562832251191139,0.22876115143299103,-0.18779833614826202,-9.689291000366211
1745651220.5248823,0.027091914787888527,0.0006949458038434386,-0.028607439249753952,0.26615458726882935,-0.15032443404197693,-9.827058792114258
1745651220.5250463,-0.0007484254310838878,0.0012434630189090967,-0.029040705412626266,0.4133731424808502,-0.3342326283454895,-9.711352348327637
1745651220.5663397,0.015840206295251846,-0.0035726011265069246,-0.027955468744039536,0.188202366232872,-0.14730530977249146,-9.78092098236084
1745651220.5700707,-0.004493557382375002,-0.00020186565234325826,-0.029219329357147217,0.4559605121612549,-0.2515668272972107,-9.799142837524414
1745651220.5716333,-0.0035176463425159454,-0.0005735085578635335,-0.02992044761776924,0.3059788644313812,-0.06867291033267975,-9.834943771362305
1745651220.5770178,-0.009854493662714958,-0.005860613659024239,-0.029584035277366638,0.474968820810318,-0.18241800367832184,-9.75908088684082
1745651220.6052299,-0.002660278230905533,-0.003789191599935293,-0.034011952579021454,0.2978523373603821,0.1007240042090416,-9.877737045288086
1745651220.6099267,0.003845229744911194,0.003958127927035093,-0.035797119140625,0.3243686556816101,0.027007803320884705,-9.714110374450684
1745651220.6122673,0.01734311506152153,-0.0056135160848498344,-0.03890379145741463,0.48361140489578247,-0.0169654693454504,-9.688692092895508
1745651220.6165433,0.024185245856642723,-0.0018966220086440444,-0.039155103266239166,0.2687649130821228,0.14602166414260864,-9.871931076049805
1745651220.6208177,0.03044174239039421,0.006493573077023029,-0.042883992195129395,0.3697195053100586,-0.2540569305419922,-9.90770435333252
1745651220.6524377,0.03570672869682312,-0.00021712761372327805,-0.04261002317070961,0.22365513443946838,-0.0014943734277039766,-9.544191360473633
1745651220.6538208,0.021413154900074005,0.004229860845953226,-0.04418027028441429,0.42537617683410645,-0.3958737850189209,-9.670820236206055
1745651220.6578612,0.019626028835773468,-0.00285179540514946,-0.04614975303411484,0.3959351181983948,-0.031110163778066635,-10.017801284790039
1745651220.662864,0.01818961277604103,0.007511442061513662,-0.04841873049736023,0.2398100644350052,-0.37523943185806274,-9.944188117980957
1745651220.69281,0.006856231950223446,0.004371235612779856,-0.054957468062639236,0.501728355884552,-0.1924000084400177,-9.365262031555176
1745651220.7013276,-0.010221702978014946,0.002533040475100279,-0.0544876754283905,0.284099817276001,-0.2709384262561798,-9.686903953552246
1745651220.7013657,0.02495269477367401,0.007854081690311432,-0.09169773012399673,0.5102519989013672,-0.1278049796819687,-9.983551025390625
1745651220.7014,0.026750538498163223,0.005440527573227882,-0.09362979233264923,0.3289775252342224,-0.14826364815235138,-9.423382759094238
1745651220.7014337,0.016705678775906563,0.0049026221968233585,-0.09309887886047363,0.477771133184433,-0.2430134266614914,-9.5828275680542
1745651220.7373016,0.018958577886223793,0.0019604749977588654,-0.09382539987564087,0.3231344223022461,-0.0621429868042469,-10.11319637298584
1745651220.7402427,0.02659710682928562,0.009527628310024738,-0.09605088829994202,0.3898092806339264,-0.24346935749053955,-9.995396614074707
1745651220.7414985,0.026692945510149002,0.004520977381616831,-0.09497364610433578,0.37362053990364075,-0.033918969333171844,-9.464539527893066
1745651220.7432337,0.031100351363420486,0.0048941923305392265,-0.09769099205732346,0.27643877267837524,-0.16536226868629456,-9.678348541259766
1745651220.7777228,0.04206730052828789,0.0037104436196386814,-0.09888122975826263,0.41496190428733826,-0.04763443022966385,-9.969748497009277
1745651220.781221,0.04317008703947067,0.007973852567374706,-0.10083653032779694,0.2699233591556549,-0.008853216655552387,-9.855551719665527
1745651220.7854803,0.036894019693136215,0.010848723351955414,-0.1021077036857605,0.4795669615268707,-0.3117952048778534,-9.562363624572754
1745651220.7891822,0.040079083293676376,0.00046197400661185384,-0.10247635841369629,0.24359333515167236,-0.12426650524139404,-9.666523933410645
1745651220.7926269,0.0329778790473938,0.006467857398092747,-0.10241644084453583,0.4057219922542572,-0.3507615625858307,-10.001144409179688
1745651220.8224082,0.025827085599303246,0.005513547454029322,-0.10383989661931992,0.32978931069374084,-0.1908492147922516,-9.878151893615723
1745651220.8233447,0.028891831636428833,0.004632151685655117,-0.10467217862606049,0.1825888305902481,-0.2912611663341522,-9.673479080200195
1745651220.8255439,0.012325527146458626,0.0009297635406255722,-0.10373692214488983,0.34829944372177124,-0.09938152879476547,-9.512933731079102
1745651220.8281574,0.021237347275018692,0.0008718078024685383,-0.1053752675652504,0.17847028374671936,-0.14607898890972137,-9.916537284851074
1745651220.8658738,0.0194333977997303,0.004541863687336445,-0.1066550761461258,0.3989223837852478,-0.2053815871477127,-9.906793594360352
1745651220.8685749,0.02846243418753147,-0.0016298303380608559,-0.10549215227365494,0.2128034085035324,0.02324739284813404,-9.71422004699707
1745651220.8701878,0.022383634001016617,0.0020397964399307966,-0.10587481409311295,0.2882207930088043,-0.29371845722198486,-9.758787155151367
1745651220.8727555,0.031828559935092926,-0.007342287804931402,-0.11995818465948105,0.36765575408935547,-0.11954794079065323,-9.845253944396973
1745651220.9097426,0.03062167391180992,-0.0015795038780197501,-0.11931707710027695,0.3801919221878052,-0.4923644959926605,-9.877933502197266
1745651220.91815,0.02304079383611679,-0.0071679591201245785,-0.12240080535411835,0.42990079522132874,-0.18944630026817322,-9.607504844665527
1745651220.9232564,0.01571076735854149,-0.0032488852739334106,-0.1188955083489418,0.357464462518692,-0.4385329782962799,-9.798966407775879
1745651220.9232984,0.016153449192643166,-0.009682833217084408,-0.11869244277477264,0.48137226700782776,-0.16638776659965515,-9.85230827331543
1745651220.9504085,0.018252423033118248,-0.006155700888484716,-0.12142405658960342,0.3059315085411072,-0.20040202140808105,-9.912155151367188
1745651220.9545035,0.026221061125397682,-0.004445731174200773,-0.12330405414104462,0.3637808859348297,-0.10362508147954941,-9.640975952148438
1745651220.9606395,0.017941772937774658,-0.009662918746471405,-0.125107079744339,0.2802349925041199,-0.0009628951665945351,-9.68902587890625
1745651220.9641483,0.03668990358710289,-0.0029482003301382065,-0.1255376636981964,0.3558294475078583,-0.24922020733356476,-9.88635540008545
1745651220.9696605,0.03043069876730442,-0.012464786879718304,-0.12710806727409363,0.27369600534439087,-0.06069761514663696,-9.795952796936035
1745651220.9956474,0.04776925966143608,-0.00018390249169897288,-0.12637309730052948,0.2122586965560913,-0.2907188832759857,-9.723798751831055
1745651221.0010276,0.032078009098768234,-0.011315321549773216,-0.12472522258758545,0.41475725173950195,-0.2608775198459625,-9.57205867767334
1745651221.0053816,0.03156936541199684,-0.008827474899590015,-0.12254734337329865,0.15985825657844543,-0.36699092388153076,-9.973104476928711
1745651221.011182,0.01485542394220829,-0.004472213797271252,-0.12021247297525406,0.2926056981086731,-0.3646593689918518,-9.848980903625488
1745651221.0410137,0.018099181354045868,-0.011293592862784863,-0.1222197562456131,0.11690236628055573,-0.29377421736717224,-9.684820175170898
1745651221.042473,0.008600483648478985,-0.009626906365156174,-0.12256424129009247,0.2945317327976227,-0.25820255279541016,-9.688592910766602
1745651221.0457368,0.0045307353138923645,-0.0174077358096838,-0.12232781946659088,0.3036676049232483,-0.22202268242835999,-9.948857307434082
1745651221.0494313,0.0043471986427903175,-0.016655808314681053,-0.09828229248523712,0.40419793128967285,-0.45496273040771484,-9.471351623535156
1745651221.0522883,-0.012788224034011364,-0.020012453198432922,-0.09489011019468307,0.40234097838401794,-0.0665879100561142,-10.035158157348633
1745651221.0834203,0.0008114170050248504,-0.009543652646243572,-0.09150578081607819,0.21228435635566711,-0.3906378149986267,-10.172216415405273
1745651221.086504,-0.0014726829249411821,-0.009798833169043064,-0.08953460305929184,0.25345176458358765,-0.04504714161157608,-9.343862533569336
1745651221.0884328,0.004135166294872761,-0.012704153545200825,-0.08792764693498611,0.23007850348949432,-0.21047966182231903,-9.440044403076172
1745651221.0942464,0.009669817984104156,-0.013278569094836712,-0.08717323839664459,0.4545420706272125,-0.11066768318414688,-10.107314109802246
1745651221.1241395,0.015668164938688278,-0.011219759471714497,-0.08716781437397003,0.2891618609428406,-0.1294412910938263,-10.186300277709961
1745651221.1275163,0.02167777344584465,-0.0011847016867250204,-0.08748920261859894,0.37387165427207947,-0.27044156193733215,-9.499781608581543
1745651221.1320062,-0.003608090104535222,-0.017647679895162582,-0.08603645861148834,0.27905693650245667,-0.25948992371559143,-9.458735466003418
1745651221.1358902,0.010576887056231499,-0.008932259865105152,-0.08141080290079117,0.38740289211273193,-0.49120110273361206,-10.059126853942871
1745651221.1417015,-0.005747701041400433,-0.005509677808731794,-0.08367923647165298,0.39761799573898315,-0.1888163983821869,-10.004975318908691
1745651221.1672957,-0.004897910635918379,-0.0029706251807510853,-0.08451145887374878,0.287077397108078,-0.29008081555366516,-9.68836784362793
1745651221.169726,-0.014309665188193321,-0.014875533990561962,-0.08529022336006165,0.6578588485717773,-0.04247376322746277,-9.400029182434082
1745651221.1718976,-0.00946368370205164,-0.0094124935567379,-0.09030454605817795,0.25068578124046326,0.0008165717008523643,-10.259974479675293
1745651221.174625,0.014011779800057411,-0.001620209077373147,-0.09193994849920273,0.5376467108726501,-0.14098182320594788,-10.03782844543457
1745651221.2113457,0.019426021724939346,-0.009101399220526218,-0.09324534982442856,0.36753925681114197,0.013996966183185577,-9.49306869506836
1745651221.2136438,0.028150778263807297,-0.007109989412128925,-0.0921851247549057,0.28275251388549805,-0.2716749310493469,-9.68337345123291
1745651221.218191,0.03314981609582901,-0.004342201165854931,-0.09120908379554749,0.3306911587715149,-0.24026945233345032,-9.866613388061523
1745651221.2207036,0.031916018575429916,0.00527536403387785,-0.09242959320545197,0.2663661241531372,-0.3027781546115875,-9.758413314819336
1745651221.2560487,0.019591838121414185,0.008019546046853065,-0.117864690721035,0.5074158906936646,-0.24468889832496643,-9.929614067077637
1745651221.2581043,0.020732570439577103,0.009350170381367207,-0.12081678211688995,0.29600685834884644,-0.4204384684562683,-9.81907844543457
1745651221.2688615,0.009111654944717884,0.005933613516390324,-0.12029211223125458,0.4470229744911194,-0.3083053231239319,-9.625642776489258
1745651221.2694528,0.0009575820295140147,0.0008373224991373718,-0.12443449348211288,0.2790798246860504,-0.3048257529735565,-9.816615104675293
1745651221.2956965,0.01034868136048317,0.0133189233019948,-0.12299730628728867,0.30190509557724,-0.3594338893890381,-9.880331993103027
1745651221.2977784,-0.005652467720210552,0.006583900656551123,-0.12341699749231339,0.2270088493824005,-0.18532425165176392,-9.585917472839355
1745651221.2994826,0.011709279380738735,0.010083509609103203,-0.1225760355591774,0.28200533986091614,-0.32622164487838745,-9.614574432373047
1745651221.3006308,0.004704407416284084,0.01024714671075344,-0.12213200330734253,0.4233269691467285,-0.061201609671115875,-9.840982437133789
1745651221.3017218,0.010935669764876366,0.00944769661873579,-0.1275002658367157,0.3411158323287964,-0.24447496235370636,-10.042603492736816
1745651221.339448,0.018201511353254318,0.008729624561965466,-0.12692806124687195,0.4687232971191406,-0.25184106826782227,-9.707021713256836
1745651221.341189,0.009925509802997112,0.009999866597354412,-0.12781450152397156,0.35493403673171997,-0.11889753490686417,-9.608648300170898
1745651221.3429422,0.0026465123519301414,0.011360343545675278,-0.13020049035549164,0.5409598350524902,-0.35278937220573425,-9.827751159667969
1745651221.3463418,0.007810940500348806,0.006594538688659668,-0.1309332549571991,0.3964220881462097,-0.0215567909181118,-9.883081436157227
1745651221.3832266,0.010959349572658539,0.01501760445535183,-0.13660873472690582,0.6021406054496765,-0.1794717162847519,-9.74122428894043
1745651221.3854425,0.014034244231879711,0.007251171860843897,-0.13774649798870087,0.4234916567802429,0.042028672993183136,-9.796302795410156
1745651221.3865154,0.038683973252773285,0.007619878742843866,-0.1406823843717575,0.3792142868041992,-0.11563940346240997,-9.774797439575195
1745651221.389001,0.03125886246562004,0.013298136182129383,-0.14079183340072632,0.5131347179412842,-0.08953427523374557,-9.67683219909668
1745651221.3915806,-0.012409992516040802,0.0028282958082854748,-0.10085403919219971,0.17763002216815948,-0.30926260352134705,-10.016603469848633
1745651221.426757,-0.032492659986019135,-0.0014185782056301832,-0.09680593013763428,0.29285675287246704,-0.23721396923065186,-9.484259605407715
1745651221.4316218,-0.010178864002227783,-0.007338277064263821,-0.09783594310283661,0.14384354650974274,-0.07747361809015274,-9.547815322875977
1745651221.4364173,-0.013256756588816643,-0.001677615917287767,-0.09938882291316986,0.27667999267578125,-0.10421613603830338,-9.993370056152344
1745651221.4399624,-0.0015832226490601897,-0.004464585334062576,-0.09777612239122391,0.28207772970199585,-0.0732884556055069,-9.988770484924316
1745651221.4685209,0.011748124845325947,0.001811876893043518,-0.09704701602458954,0.27011385560035706,-0.08288870751857758,-9.571372985839844
1745651221.4724133,-0.005167232360690832,-0.011032862588763237,-0.09451240301132202,0.48560047149658203,-0.24122114479541779,-9.574149131774902
1745651221.4749804,0.018322061747312546,-0.006844529416412115,-0.09451919794082642,0.3839629292488098,-0.18706686794757843,-10.080453872680664
1745651221.4771094,-0.0012214465532451868,-0.006711782421916723,-0.09165634959936142,0.4976177215576172,-0.2841559052467346,-10.006743431091309
1745651221.4771779,0.020777050405740738,-0.011054840870201588,-0.09334997832775116,0.31479576230049133,-0.16075077652931213,-9.520593643188477
1745651221.5123208,-0.007920562289655209,-0.010382762178778648,-0.09098523110151291,0.3019573986530304,-0.26766717433929443,-9.60998249053955
1745651221.5163295,0.009559813886880875,-0.01393869798630476,-0.09346137940883636,0.2968456447124481,-0.16917534172534943,-9.925347328186035
1745651221.5196276,0.0035520512610673904,-0.006391291506588459,-0.09427601844072342,0.18900159001350403,-0.21097365021705627,-9.968173027038574
1745651221.5238426,0.003967273514717817,-0.012144804000854492,-0.09079989045858383,0.32081422209739685,-0.2696632444858551,-9.65400218963623
1745651221.5552957,0.01927676796913147,-0.010346158407628536,-0.09239380806684494,0.16658788919448853,-0.19878119230270386,-9.593080520629883
1745651221.5578701,-0.0057969652116298676,-0.012003177776932716,-0.08909565955400467,0.377408504486084,-0.47382205724716187,-9.81995677947998
1745651221.5635612,0.011643264442682266,-0.0076281181536614895,-0.08518238365650177,0.3232247233390808,-0.31873422861099243,-9.844279289245605
1745651221.5666816,-0.008928632363677025,-0.007735162042081356,-0.08350201696157455,0.4025382101535797,-0.4907924234867096,-9.71247673034668
1745651221.5957665,-0.0027538840658962727,-0.011985113844275475,-0.08067571371793747,0.2755262851715088,-0.2258944809436798,-9.721391677856445
1745651221.6002922,-0.012924471870064735,-0.011120143346488476,-0.06232214719057083,0.29261869192123413,-0.42739468812942505,-9.708763122558594
1745651221.6040514,-0.028168682008981705,-0.016075102612376213,-0.059499967843294144,0.3410070240497589,-0.14373739063739777,-9.548057556152344
1745651221.6069422,-0.025114113464951515,-0.006596601102501154,-0.056371428072452545,0.2834792733192444,-0.5463296175003052,-10.013067245483398
1745651221.607577,-0.02313379757106304,-0.013745429925620556,-0.05029250308871269,0.3168874680995941,-0.14501485228538513,-9.823927879333496
1745651221.6395166,-0.02494966611266136,-0.003931840881705284,-0.052973441779613495,0.2211637794971466,-0.30520832538604736,-9.701080322265625
1745651221.6405122,-0.033007167279720306,-0.01303376816213131,-0.05103323608636856,0.31563636660575867,-0.2663261890411377,-9.616153717041016
1745651221.6417763,-0.03044716641306877,-0.009499012492597103,-0.04947566241025925,0.22806629538536072,-0.12986603379249573,-9.912542343139648
1745651221.642255,-0.03086113929748535,-0.0054610660299658775,-0.05045517534017563,0.3984186053276062,-0.2533189058303833,-9.855907440185547
1745651221.6863568,-0.037298381328582764,-0.007430411875247955,-0.048405665904283524,0.18162259459495544,-0.18737956881523132,-9.850336074829102
1745651221.688282,-0.030580595135688782,-0.007151727564632893,-0.04600372910499573,0.39818334579467773,-0.27697813510894775,-9.61956787109375
1745651221.69156,-0.050965286791324615,-0.013632985763251781,-0.04115927591919899,0.4180854260921478,-0.341139018535614,-9.862578392028809
1745651221.6941075,-0.03141622245311737,-0.005305591970682144,-0.041466571390628815,0.2523621916770935,-0.1902759075164795,-10.004602432250977
1745651221.7258828,-0.05060829967260361,-0.010698093101382256,-0.03752097487449646,0.4358915388584137,-0.20517022907733917,-9.67882251739502
1745651221.7277634,-0.032831281423568726,-0.013333122245967388,-0.03651709482073784,0.25363242626190186,-0.031516872346401215,-9.689413070678711
1745651221.7305005,-0.04262923076748848,-0.009230251424014568,-0.03480609506368637,0.4030136168003082,-0.2023618519306183,-9.944149017333984
1745651221.7320986,-0.027975285425782204,-0.01440939586609602,-0.035647112876176834,0.24387283623218536,-0.04638369753956795,-9.893507957458496
1745651221.734316,-0.036952655762434006,-0.0037540060002356768,-0.03182615339756012,0.2019548863172531,-0.23945379257202148,-9.710101127624512
1745651221.7712128,-0.04982504993677139,-0.005001878831535578,-0.0033677369356155396,0.35524457693099976,-0.3112111985683441,-9.75143051147461
1745651221.7736843,-0.05737070366740227,-0.006253392901271582,-0.0016814989503473043,0.26566070318222046,0.015620413236320019,-9.750298500061035
1745651221.7794306,-0.0536348894238472,0.003301213728263974,-0.0010291686048731208,0.35394033789634705,-0.1917361617088318,-9.858122825622559
1745651221.7842343,-0.055982232093811035,-0.0089057432487607,-6.546004442498088e-06,0.38797444105148315,0.062149547040462494,-9.736347198486328
1745651221.8184059,-0.04703907296061516,-0.0010186228901147842,-0.003086223965510726,0.12721559405326843,-0.028983822092413902,-9.84327507019043
1745651221.818491,-0.05182565003633499,0.0012618552427738905,-0.0026141717098653316,0.42607277631759644,-0.08957508206367493,-9.613781929016113
1745651221.8207972,-0.0428529717028141,-3.9820744859753177e-05,-0.003416009247303009,0.18463143706321716,0.06350848078727722,-9.780733108520508
1745651221.8256981,-0.046470291912555695,-0.0018887966871261597,-0.003984401002526283,0.34165817499160767,-0.151152566075325,-9.91217041015625
1745651221.8563492,-0.03651687502861023,-0.0012275862973183393,-0.0044482056982815266,0.26575231552124023,0.04155467450618744,-9.767602920532227
1745651221.8594584,-0.04047141969203949,0.006662752479314804,-0.0033363972324877977,0.22031959891319275,-0.1953531950712204,-9.727315902709961
1745651221.8625314,-0.03834778442978859,-0.004525082651525736,-0.003040061332285404,0.4192485213279724,-0.11406490951776505,-9.642180442810059
1745651221.865562,-0.041003644466400146,-0.0037342491559684277,-0.0032945640850812197,0.2694934904575348,-0.12748810648918152,-9.991572380065918
1745651221.869585,-0.05222830921411514,0.0025462687481194735,-0.004639028571546078,0.4193669259548187,-0.2437758445739746,-9.889776229858398
1745651221.898578,-0.03972555696964264,-0.0007734511164017022,-0.00259022181853652,0.1734873354434967,-0.06206668168306351,-9.627494812011719
1745651221.90224,-0.07172872126102448,-0.004748831503093243,-0.004245519172400236,0.41182881593704224,-0.2654891908168793,-9.667179107666016
1745651221.9039724,-0.049241237342357635,-0.006001158617436886,-0.005060798488557339,0.29425671696662903,0.006956365890800953,-9.975454330444336
1745651221.912308,-0.06526651978492737,0.004550302866846323,-0.004873872268944979,0.3445243239402771,-0.06436531245708466,-9.871784210205078
1745651221.9434764,-0.06165255978703499,-0.0042893667705357075,-0.007816240191459656,0.25046202540397644,-0.006340433843433857,-9.598777770996094
1745651221.9475796,-0.02980741858482361,0.000437949231127277,-0.0060288431122899055,0.2719116806983948,-0.05151525139808655,-9.723395347595215
1745651221.9502265,-0.030498996376991272,0.0001500026264693588,-0.005284660961478949,0.39360469579696655,0.061112601310014725,-9.952167510986328
1745651221.9520042,-0.03092913329601288,-0.0029878895729780197,-0.006788419093936682,0.27122655510902405,0.1093025654554367,-9.864557266235352
1745651221.985087,-0.018860116600990295,0.004872961435467005,-0.00807259138673544,0.4818066954612732,-0.04800361394882202,-9.587494850158691
1745651221.9896266,-0.03176519647240639,-0.006003774702548981,-0.006566578056663275,0.23028628528118134,0.21691811084747314,-9.734476089477539
1745651221.9907036,-0.012999847531318665,0.0052566989324986935,-0.007854264229536057,0.31130513548851013,-0.1753963679075241,-9.96699333190918
1745651221.994028,-0.013685216195881367,-0.0038262822199612856,-0.009362122043967247,0.3387317955493927,0.26887747645378113,-9.632635116577148
1745651222.0300093,-0.023682396858930588,0.006222081836313009,-0.008915459737181664,0.18787503242492676,-0.20564651489257812,-9.74022388458252
1745651222.0326366,-0.007240003440529108,-0.002837746636942029,-0.007880161516368389,0.3648619055747986,0.13419413566589355,-9.663643836975098
1745651222.0354784,-0.022623825818300247,0.0009026140905916691,-0.010383451357483864,0.2436106652021408,-0.05826575681567192,-9.879979133605957
1745651222.038565,-0.0007516436162404716,0.00972716324031353,-0.010447809472680092,0.4067607522010803,-0.044138967990875244,-9.791788101196289
1745651222.077679,-0.02951808273792267,-0.003608792321756482,-0.012194011360406876,0.26374632120132446,0.04347216337919235,-9.696413040161133
1745651222.0778086,-0.007524651940912008,0.0038812074344605207,-0.01168481819331646,0.3463582396507263,-0.22745804488658905,-9.812875747680664
1745651222.0778737,-0.03295205160975456,0.001967382151633501,-0.01000971905887127,0.35383662581443787,0.1383635699748993,-9.817963600158691
1745651222.0822084,-0.017455071210861206,0.005820484831929207,-0.01211253460496664,0.21156451106071472,-0.20698228478431702,-9.918635368347168
1745651222.0877407,-0.01639029011130333,-0.0023825890384614468,-0.012581082992255688,0.44439664483070374,0.22782476246356964,-9.558036804199219
1745651222.1147037,-0.02746717631816864,0.0024617407470941544,-0.01051967404782772,0.2342650443315506,-0.02936975099146366,-9.87603759765625
1745651222.1192887,0.008783966302871704,-0.0023903511464595795,-0.03211432322859764,0.2740497589111328,0.10430905967950821,-9.908069610595703
1745651222.12079,0.015294520184397697,0.0006412159418687224,-0.032212547957897186,0.43244385719299316,0.02833700180053711,-9.904248237609863
1745651222.1221066,0.027287527918815613,0.006767541170120239,-0.03303392603993416,0.21037760376930237,0.21177157759666443,-9.643610954284668
1745651222.1560173,0.011609869077801704,-0.0033132322132587433,-0.03236738219857216,0.31645411252975464,-0.20735785365104675,-9.626873970031738
1745651222.15988,0.031053826212882996,0.0029602788854390383,-0.03181781619787216,0.19133178889751434,0.11681046336889267,-9.79001235961914
1745651222.1652474,0.010119449347257614,0.00791801419109106,-0.029469739645719528,0.40427231788635254,-0.2655150294303894,-9.835769653320312
1745651222.1678593,0.020047301426529884,-0.004333283752202988,-0.02739018201828003,0.25243014097213745,-0.048854973167181015,-9.92261791229248
1745651222.202225,0.005785939283668995,0.0070321946404874325,-0.025601688772439957,0.23059582710266113,-0.08740182220935822,-9.761260986328125
1745651222.2050028,0.004384768195450306,0.002247374504804611,-0.025019127875566483,0.48437076807022095,-0.19902370870113373,-9.606389045715332
1745651222.209161,-0.005778355058282614,0.0003995114821009338,-0.023626964539289474,0.2612832188606262,0.15548332035541534,-9.841959953308105
1745651222.2123895,-0.004110816866159439,-0.002342390827834606,-0.02314741164445877,0.5269210338592529,-0.22142136096954346,-9.93553638458252
1745651222.2156587,-0.005634970031678677,0.0019299869891256094,-0.019502829760313034,0.17490410804748535,0.33751797676086426,-9.784345626831055
1745651222.2432764,-0.006024335976690054,0.004457905888557434,-0.01854061894118786,0.34382614493370056,-0.24913951754570007,-9.688855171203613
1745651222.2473872,0.012239520438015461,-0.007054776884615421,-0.0169838760048151,0.41186919808387756,0.46508151292800903,-9.562904357910156
1745651222.250926,0.005182759836316109,0.0016311078798025846,-0.016760511323809624,0.28801703453063965,0.02078610099852085,-10.163436889648438
1745651222.254255,0.037225544452667236,-0.0016881395131349564,-0.013704171404242516,0.3700219988822937,0.3178110718727112,-9.846101760864258
1745651222.2875788,0.02942713536322117,0.002842876361683011,-0.01486295461654663,0.18453074991703033,0.1275111883878708,-9.53089714050293
1745651222.292261,0.04210797697305679,-0.0011807357659563422,-0.0124886529520154,0.41779738664627075,-0.02377496287226677,-9.605713844299316
1745651222.2979405,0.012948599644005299,-0.006185390520840883,0.0030842937994748354,0.24565806984901428,0.07641419768333435,-10.004768371582031
1745651222.3015258,0.011987622827291489,-0.000568269519135356,0.0028731273487210274,0.3671211004257202,-0.08240607380867004,-9.907690048217773
1745651222.3292313,0.008569667115807533,-0.004487589932978153,0.002751065418124199,0.3836917281150818,0.07266391813755035,-9.60673713684082
1745651222.331247,0.014819711446762085,-0.0041711339727044106,0.0038272757083177567,0.18841946125030518,-0.12731654942035675,-9.761983871459961
1745651222.3335314,0.006296511739492416,-0.006536504719406366,0.006731571163982153,0.3716367185115814,-0.06652462482452393,-9.791526794433594
1745651222.3364108,0.011813277378678322,-0.00396552262827754,0.006765616126358509,0.23891513049602509,-0.06580625474452972,-9.807321548461914
1745651222.3717961,0.0006580059416592121,-0.00015963548503350466,0.008757561445236206,0.3256770968437195,-0.1588333547115326,-9.738009452819824
1745651222.3741376,0.013409984298050404,-0.0070309629663825035,0.008540904149413109,0.28441503643989563,0.07189469039440155,-9.662009239196777
1745651222.3790593,-0.007996397092938423,-0.002588639734312892,0.008238798938691616,0.31787651777267456,-0.10465333610773087,-9.89827823638916
1745651222.3831627,0.007241882383823395,-0.003392460523173213,0.008706479333341122,0.37574008107185364,-0.01837858557701111,-9.814044952392578
1745651222.3883095,-0.00443722540512681,-0.0024122975300997496,0.008684670552611351,0.272355854511261,-0.03389269486069679,-9.733485221862793
1745651222.4154577,-0.006431981921195984,-0.004566728137433529,0.007525960449129343,0.3874923586845398,-0.18509837985038757,-9.709333419799805
1745651222.4194815,-0.003228064626455307,-0.002679749159142375,0.012205444276332855,0.28727859258651733,0.08758433908224106,-9.78105354309082
1745651222.423264,-0.015584424138069153,-0.0029131758492439985,0.013003778643906116,0.37460318207740784,-0.2054719179868698,-9.866181373596191
1745651222.424459,0.004782200325280428,-0.002908760216087103,0.011911110952496529,0.27984997630119324,0.25725966691970825,-9.719472885131836
1745651222.4612415,-0.008456268347799778,-0.004743804689496756,0.01479501836001873,0.3598901033401489,-0.10650694370269775,-9.818504333496094
1745651222.464372,0.0111955925822258,-0.009093426167964935,0.014579549431800842,0.31504935026168823,0.23220738768577576,-9.780637741088867
1745651222.4664228,0.0021360679529607296,0.002109989058226347,0.013172383420169353,0.2731872498989105,-0.10863282531499863,-9.872700691223145
1745651222.4676204,-0.011464339680969715,0.0003483056207187474,0.0339222252368927,0.3089556097984314,-0.12596459686756134,-9.740591049194336
1745651222.4997077,-0.01854124292731285,-0.007524176500737667,0.03861149400472641,0.24858924746513367,0.07919849455356598,-9.63382339477539
1745651222.5018766,-0.013548719696700573,-0.0002607177884783596,0.03800110146403313,0.28015193343162537,-0.09971550852060318,-9.843644142150879
1745651222.5029378,-0.01177801564335823,-0.004852482117712498,0.03956332802772522,0.3645663857460022,0.10278117656707764,-9.833174705505371
1745651222.5054216,-0.011615782044827938,0.0008300740155391395,0.03981798142194748,0.23743891716003418,0.09655005484819412,-9.777689933776855
1745651222.506541,-0.013564650900661945,-0.0034162006340920925,0.04051368683576584,0.4313216209411621,-0.1165129691362381,-9.738365173339844
1745651222.5442517,-0.007632865570485592,-0.002141542499884963,0.04232955351471901,0.24049603939056396,0.08112730830907822,-9.762975692749023
1745651222.5495899,-0.021112198010087013,0.0011687541846185923,0.043884288519620895,0.3549848794937134,-0.22202801704406738,-9.832964897155762
1745651222.5528364,-0.019858617335557938,-0.003693981794640422,0.04463042691349983,0.29291146993637085,0.058630578219890594,-9.710357666015625
1745651222.5562642,-0.020378172397613525,0.001968263415619731,0.046174339950084686,0.34935393929481506,-0.16897115111351013,-9.810678482055664
1745651222.589012,-0.026507040485739708,-0.001715504564344883,0.046417541801929474,0.3620148003101349,0.16154615581035614,-9.775931358337402
1745651222.5921926,-0.020534882321953773,0.0015580762410536408,0.047438520938158035,0.22963544726371765,0.004909083247184753,-9.88284969329834
1745651222.59736,-0.019717421382665634,-0.003731050994247198,0.04495540261268616,0.5012367963790894,0.08802756667137146,-9.635229110717773
1745651222.602586,-0.0222362969070673,6.163008220028132e-05,0.04810643196105957,0.14471569657325745,0.0675361379981041,-9.884289741516113
1745651222.6091866,-0.015275527723133564,3.555771036189981e-05,0.04684977978467941,0.33011844754219055,-0.09168431162834167,-9.823829650878906
1745651222.630714,-0.01341966725885868,-0.0035900298971682787,0.04917901009321213,0.3033313751220703,0.12374291568994522,-9.626051902770996
1745651222.6335475,-0.016831260174512863,0.0031424532644450665,0.04967925697565079,0.22672927379608154,-0.02998417057096958,-9.872897148132324
1745651222.6427538,-0.009576301090419292,-0.004617868922650814,0.04919809848070145,0.3635480999946594,0.1279960572719574,-9.780320167541504
1745651222.6428356,-0.012904442846775055,9.170826524496078e-05,0.04875830188393593,0.2810932993888855,0.0011598996352404356,-9.765317916870117
1745651222.6781867,-0.007249036338180304,-0.003898301627486944,0.05566214770078659,0.41574984788894653,0.03947226330637932,-9.70977783203125
1745651222.6802738,-0.0304744690656662,0.004984653554856777,0.0543525405228138,0.1852361261844635,-0.05211624503135681,-9.764749526977539
1745651222.6846347,-0.02483857050538063,-0.006139042787253857,0.05646113306283951,0.4176556169986725,-0.17210546135902405,-9.735769271850586
1745651222.6883476,-0.029008161276578903,0.000629143207333982,0.06049163267016411,0.24810977280139923,0.20350749790668488,-9.786142349243164
1745651222.7153401,-0.037131257355213165,0.003758328501135111,0.058118075132369995,0.4223800599575043,-0.10622147470712662,-9.887584686279297
1745651222.7175431,-0.023226987570524216,-0.006489419844001532,0.05953730270266533,0.26185494661331177,0.2522086501121521,-9.722684860229492
1745651222.7194,-0.03127409145236015,0.006294470280408859,0.05737970396876335,0.2659594714641571,-0.04736276715993881,-9.75731086730957
1745651222.7209353,-0.026139020919799805,-0.0017731547122821212,0.060220979154109955,0.3666803240776062,0.11739416420459747,-9.70025634765625
1745651222.7231436,-0.020056182518601418,0.0017105909064412117,0.059058211743831635,0.20515385270118713,0.09517708420753479,-9.792363166809082
1745651222.7604053,-0.026210317388176918,0.0005886998260393739,0.06347493827342987,0.4604954123497009,0.0854591578245163,-9.780374526977539
1745651222.7617383,-0.011902953498065472,0.0015498766442760825,0.06328890472650528,0.24430589377880096,0.21584263443946838,-9.809025764465332
1745651222.7632546,-0.023795420303940773,0.005175321362912655,0.06010018661618233,0.3427073359489441,0.03672083839774132,-9.803041458129883
1745651222.7666864,-0.012950016185641289,-0.0034348126500844955,0.06269705295562744,0.3699154257774353,0.12898755073547363,-9.706582069396973
1745651222.8083255,-0.015425017103552818,0.005676965229213238,0.06227312609553337,0.32756534218788147,-0.03092181123793125,-9.821348190307617
1745651222.808376,-0.01855418086051941,-0.001453515375033021,0.06411150842905045,0.3810984194278717,0.12222232669591904,-9.796358108520508
1745651222.8093214,-0.015102289617061615,0.0010670814663171768,0.06507344543933868,0.18991002440452576,-0.06739102303981781,-9.83870792388916
1745651222.8127627,-0.014916841872036457,0.00485108932480216,0.06413524597883224,0.4471608102321625,0.10266586393117905,-9.626741409301758
1745651222.8173647,-0.019869867712259293,0.002667052671313286,0.08764463663101196,0.3184879720211029,0.13997617363929749,-9.533302307128906
1745651222.848525,-0.05448509380221367,0.004210154991596937,0.09400901198387146,0.44718044996261597,-0.01384203415364027,-9.931689262390137
1745651222.8502526,-0.029093390330672264,0.0034711461048573256,0.09489399194717407,0.2887149453163147,0.14393481612205505,-10.030107498168945
1745651222.8528988,-0.03437618166208267,0.00937291607260704,0.09770164638757706,0.4100354313850403,0.15274831652641296,-9.563962936401367
1745651222.8554049,-0.03982377424836159,0.002909134142100811,0.09912575781345367,0.4545716643333435,0.22645926475524902,-9.560961723327637
1745651222.8878427,-0.02210717834532261,0.002074457472190261,0.0997890904545784,0.4521670341491699,0.24331772327423096,-9.959122657775879
1745651222.8913717,-0.036034151911735535,0.001885190955363214,0.09906622022390366,0.429445743560791,0.24361471831798553,-10.085168838500977
1745651222.9017637,-0.01780206523835659,0.009123258292675018,0.09937862306833267,0.23468747735023499,0.18756434321403503,-9.621744155883789
1745651222.9018176,-0.02232556790113449,0.007447782903909683,0.10402500629425049,0.42239171266555786,0.19311168789863586,-9.398710250854492
1745651222.9308708,-0.022760804742574692,-0.0033941075671464205,0.10383790731430054,0.352844774723053,0.3158607482910156,-9.950309753417969
1745651222.9347894,-0.005231015384197235,0.00658488180488348,0.1043369323015213,0.4474829137325287,0.05645131319761276,-10.152056694030762
1745651222.93908,-0.010082555003464222,0.006963858846575022,0.10686264932155609,0.22730398178100586,0.4160453677177429,-9.614416122436523
1745651222.9444332,-0.013177956454455853,0.004185724072158337,0.10828948020935059,0.23517528176307678,-0.1967202126979828,-9.477327346801758
1745651222.9487445,-0.0046853236854076385,-0.001812234171666205,0.10981681197881699,0.5133851766586304,0.10851774364709854,-9.71240234375
1745651222.9731858,-0.02748953364789486,0.010578595101833344,0.112640880048275,0.24886953830718994,-0.10946502536535263,-10.275053024291992
1745651222.9753656,-0.02330193668603897,0.002785939024761319,0.11556122452020645,0.3980587422847748,-0.1832050085067749,-9.755544662475586
1745651222.9775536,-0.04140330106019974,0.004707121290266514,0.11634087562561035,0.2458842545747757,0.09768562018871307,-9.303702354431152
1745651222.9806836,-0.05474500730633736,0.00469972612336278,0.11600083112716675,0.48174458742141724,-0.2350284606218338,-9.826167106628418
1745651223.0176585,-0.05566854402422905,0.001426777569577098,0.11535576730966568,0.380595326423645,0.28657495975494385,-10.148136138916016
1745651223.0214503,-0.06271815299987793,0.00855858065187931,0.11776977777481079,0.3667486906051636,-0.13130292296409607,-9.910140037536621
1745651223.0242932,-0.046336494386196136,-0.000409337313612923,0.11580292135477066,0.32597270607948303,-0.309697687625885,-9.99734115600586
1745651223.0259404,-0.03791046142578125,-0.0062685697339475155,0.11387816816568375,0.12975119054317474,-0.13326556980609894,-9.658357620239258
1745651223.0602617,-0.0695386677980423,-0.0063583822920918465,0.11611151695251465,0.2765846848487854,-0.2348392754793167,-9.54612922668457
1745651223.062904,-0.07131892442703247,-0.012035531923174858,0.11515963077545166,0.26212045550346375,-0.03363720700144768,-9.910764694213867
1745651223.063935,-0.08214034140110016,-0.004519968759268522,0.11293800920248032,0.11388341337442398,0.13497109711170197,-10.034167289733887
1745651223.0690787,-0.08642029762268066,-0.010316568426787853,0.11301553249359131,0.22266149520874023,0.17557236552238464,-9.610849380493164
1745651223.0702822,-0.06394658982753754,-0.007614520378410816,0.11009254306554794,0.13682150840759277,0.5490633249282837,-9.465897560119629
1745651223.1041214,-0.07662687450647354,-0.014246058650314808,0.1094769611954689,0.3716582655906677,0.327046662569046,-9.933191299438477
1745651223.1058564,-0.03639709949493408,-0.01409638486802578,0.10813881456851959,0.2617378234863281,0.5586317777633667,-10.126337051391602
1745651223.1080513,-0.027739986777305603,-0.005503031425178051,0.10738860070705414,0.3060062825679779,0.382974773645401,-9.70317268371582
1745651223.1112635,-0.022059349343180656,-0.015939343720674515,0.11083296686410904,0.16090553998947144,0.4536066949367523,-9.485736846923828
1745651223.1478102,-0.0005901323747821152,-0.01822466216981411,0.10887551307678223,0.2715904116630554,0.2187766134738922,-9.801530838012695
1745651223.1520762,-0.003549219574779272,-0.014561188407242298,0.1094372496008873,0.3324359357357025,0.36880114674568176,-10.010194778442383
1745651223.1580412,0.006012655328959227,-0.011232292279601097,0.10762356221675873,0.09161952883005142,0.2093757688999176,-9.893403053283691
1745651223.1623144,-0.009579839184880257,-0.019669469445943832,0.10477051883935928,0.3030056059360504,0.11948733031749725,-9.517786979675293
1745651223.1650372,-0.004806235432624817,-0.019441885873675346,0.10431269556283951,0.17690186202526093,0.03378688171505928,-9.73515510559082
1745651223.194856,0.025322873145341873,-0.006234336644411087,0.078953817486763,0.11935373395681381,0.6067342758178711,-9.732531547546387
1745651223.1964586,0.019673485308885574,-0.0068076178431510925,0.07354521006345749,0.22278419137001038,0.4262901842594147,-9.004465103149414
1745651223.19787,0.014766809530556202,-0.012247035279870033,0.07577098906040192,0.4865497052669525,-0.03720974549651146,-9.900461196899414
1745651223.1991386,0.026719653978943825,-0.010581573471426964,0.07850173860788345,0.4532516598701477,0.19096501171588898,-10.501277923583984
1745651223.2338846,0.02263331413269043,0.0005223524058237672,0.08187709748744965,0.5788792967796326,-0.06953040510416031,-9.734597206115723
1745651223.2359347,0.01569732278585434,-0.010200733318924904,0.08187024295330048,0.31653961539268494,0.3068898916244507,-9.159029006958008
1745651223.2383523,0.017174893990159035,-0.014824189245700836,0.07975972443819046,0.46624499559402466,0.13272221386432648,-9.832731246948242
1745651223.239921,0.023889759555459023,-0.007667356636375189,0.07607262581586838,0.28253883123397827,0.4897736608982086,-10.396231651306152
1745651223.2772467,0.021644730120897293,0.0017822582740336657,0.07105840742588043,0.0005020350217819214,0.12980863451957703,-9.792187690734863
1745651223.2785697,0.019205715507268906,-0.0023993016220629215,0.07232538610696793,0.1042395830154419,0.2268066704273224,-9.049212455749512
1745651223.2819474,0.013126546517014503,-0.010491671971976757,0.06760291755199432,0.12926672399044037,0.17708130180835724,-9.65216064453125
1745651223.2841365,0.023244595155119896,0.004372742027044296,0.07010290771722794,0.4105171263217926,0.05782822519540787,-10.350202560424805
1745651223.3196452,0.015071125701069832,0.0006813745712861419,0.0688985139131546,0.37597212195396423,0.18828904628753662,-9.881489753723145
1745651223.3213787,0.026919281110167503,0.005503989290446043,0.06965212523937225,0.4780661463737488,-0.03413770720362663,-9.341123580932617
1745651223.324188,0.010561255738139153,-0.00807369314134121,0.07153023034334183,0.45943373441696167,0.2662379741668701,-9.727387428283691
1745651223.324359,0.012702482752501965,0.0017839480424299836,0.07301510870456696,0.28675398230552673,-0.09519368410110474,-10.355600357055664
1745651223.3253593,0.02246776781976223,0.002436617389321327,0.07167788594961166,0.32441431283950806,0.3901194930076599,-9.733116149902344
1745651223.3662126,0.002499364083632827,0.005744868889451027,0.06764569133520126,0.056589819490909576,0.29287081956863403,-9.420639038085938
1745651223.373526,0.032906271517276764,-0.0021072502713650465,0.06396419554948807,0.29882800579071045,0.4471869468688965,-9.622220039367676
1745651223.3798482,0.015971075743436813,0.00014970269694458693,0.05749303847551346,0.28787684440612793,0.5272983312606812,-10.102665901184082
1745651223.3843682,0.05312103033065796,0.010772040113806725,0.05743278190493584,0.37799468636512756,0.18610863387584686,-9.997127532958984
1745651223.4052923,0.018986107781529427,0.009419068694114685,0.043334078043699265,0.395610511302948,0.24100026488304138,-9.604951858520508
1745651223.409456,0.03385590761899948,0.016722839325666428,0.040029074996709824,0.307062566280365,-0.23197242617607117,-10.071541786193848
1745651223.413095,0.03376198932528496,0.012406817637383938,0.0382445752620697,0.4853808879852295,0.3705838620662689,-9.674524307250977
1745651223.417468,0.029288629069924355,0.01295672170817852,0.038632430136203766,0.2856757342815399,0.027909403666853905,-9.742033958435059
1745651223.4187856,0.049599479883909225,0.014517824165523052,0.035527437925338745,0.36516886949539185,0.312101811170578,-9.801592826843262
1745651223.4503934,0.03494392707943916,0.01143830455839634,0.031380634754896164,0.17472276091575623,0.2674342095851898,-9.87356185913086
1745651223.4537349,0.06014830619096756,0.018898550420999527,0.029031578451395035,0.2783239781856537,0.24618887901306152,-9.658502578735352
1745651223.4569829,0.04122607409954071,0.011296587064862251,0.027430245652794838,0.3033235967159271,0.3588011860847473,-9.701116561889648
1745651223.4608264,0.06859768182039261,0.012308371253311634,0.0219626035541296,0.26442891359329224,0.21156267821788788,-9.91586685180664
1745651223.4891977,0.05744490772485733,0.014305373653769493,0.020098382607102394,0.4770281910896301,0.2526160478591919,-9.79938793182373
1745651223.4915836,0.07272758334875107,0.014054128900170326,0.017801566049456596,0.35559651255607605,0.08987557888031006,-9.780659675598145
1745651223.4945815,0.06663060188293457,0.009866565465927124,0.01741386577486992,0.446247398853302,0.13532419502735138,-9.739969253540039
1745651223.4974842,0.06286714971065521,0.010185180231928825,0.01880565658211708,0.35740309953689575,0.06497174501419067,-9.813928604125977
1745651223.4975529,0.07136204838752747,0.017833497375249863,0.014824273996055126,0.28896790742874146,0.07216189056634903,-9.76905632019043
1745651223.5344179,0.06373583525419235,0.01389443688094616,0.011347733438014984,0.26563555002212524,0.207800954580307,-9.644296646118164
1745651223.5375993,0.06756547838449478,0.012600439600646496,-0.04087286442518234,0.47417163848876953,-0.003402647329494357,-9.629884719848633
1745651223.5408618,0.07515658438205719,0.008477875962853432,-0.04398617893457413,0.28634142875671387,0.19453150033950806,-9.633211135864258
1745651223.5438328,0.07135404646396637,0.004419808275997639,-0.0453556627035141,0.5030195713043213,-0.059197086840867996,-9.900298118591309
1745651223.5804646,0.0783640444278717,0.01028921827673912,-0.04828732833266258,0.40908360481262207,0.06482063978910446,-9.946473121643066
1745651223.5836136,0.07548020035028458,0.010802699252963066,-0.04967992752790451,0.3230140507221222,-0.10123519599437714,-9.690828323364258
1745651223.5861046,0.0676346868276596,0.00010376556019764394,-0.05040533095598221,0.4477730691432953,-0.08708874136209488,-9.549077033996582
1745651223.595265,0.07419055700302124,0.005093323532491922,-0.0503537580370903,0.33351221680641174,-0.011719854548573494,-9.912412643432617
1745651223.6206489,0.06726409494876862,0.006220356561243534,-0.05133678764104843,0.4627053141593933,-0.15773382782936096,-10.00452995300293
1745651223.622995,0.08317999541759491,0.0018414516234770417,-0.05318105220794678,0.2073761522769928,0.15692844986915588,-9.706620216369629
1745651223.6252613,0.06400960683822632,0.002130643231794238,-0.05708683282136917,0.453957736492157,-0.221842959523201,-9.574438095092773
1745651223.627245,0.0811283066868782,-0.0021244422532618046,-0.05594605952501297,0.40063315629959106,0.04390610381960869,-9.825510025024414
1745651223.6647315,0.06485739350318909,0.007257027085870504,-0.060001958161592484,0.35949602723121643,-0.16994617879390717,-9.990034103393555
1745651223.666993,0.06807617843151093,-0.0018185187363997102,-0.06073649972677231,0.39250999689102173,-0.06748171150684357,-9.678792953491211
1745651223.6692786,0.07200223952531815,0.00665568420663476,-0.06428991258144379,0.4402647614479065,-0.021353116258978844,-9.48716926574707
1745651223.6714764,0.0647374838590622,0.0018183753127232194,-0.06566592305898666,0.6216438412666321,-0.13626199960708618,-9.846597671508789
1745651223.6727433,0.07221213728189468,-0.0015482772141695023,-0.07026904821395874,0.3644295334815979,0.156010702252388,-10.091205596923828
1745651223.7049887,0.07212676852941513,0.009041288867592812,-0.07162795215845108,0.4969255328178406,-0.27408644556999207,-9.755332946777344
1745651223.7083557,0.07497672736644745,0.004573175683617592,-0.07315610349178314,0.28593719005584717,0.13877595961093903,-9.395692825317383
1745651223.7098732,0.07296973466873169,0.00459402147680521,-0.07445935904979706,0.45192646980285645,-0.2664116621017456,-9.792241096496582
1745651223.7109435,0.08183089643716812,0.003836438525468111,-0.0786108523607254,0.46259838342666626,0.1458551585674286,-10.04444408416748
1745651223.7484844,0.07846827805042267,0.011210093274712563,-0.08174119144678116,0.30308783054351807,-0.10905883461236954,-9.855180740356445
1745651223.7524664,0.07308850437402725,-0.001330084167420864,-0.100164033472538,0.5085784792900085,-0.24578721821308136,-9.64919662475586
1745651223.7571952,0.05578550696372986,-0.00034271273761987686,-0.09993064403533936,0.36241286993026733,-0.019011717289686203,-9.962905883789062
1745651223.7603014,0.06824098527431488,0.010127468034625053,-0.10267294943332672,0.4221116006374359,-0.3468625545501709,-9.850814819335938
1745651223.764211,0.06202446296811104,-0.002080203965306282,-0.10223650932312012,0.4030705392360687,0.09148845076560974,-9.452264785766602
