timestamp,angular_vel_x,angular_vel_y,angular_vel_z,linear_acc_x,linear_acc_y,linear_acc_z
1745650483.275365,0.006017213221639395,0.0017517873784527183,0.0011682352051138878,-0.361076682806015,0.39120012521743774,-9.764195442199707
1745650483.275416,0.00138267339207232,-1.765083652571775e-05,0.002131750574335456,-0.3721460700035095,0.39754563570022583,-9.741744995117188
1745650483.2754495,0.006142749451100826,0.0014342780923470855,0.003821447491645813,-0.413591206073761,0.4217913746833801,-9.770517349243164
1745650483.275892,0.0033390645403414965,0.0015581201296299696,0.0011462291004136205,-0.32075706124305725,0.3777715563774109,-9.789896011352539
1745650483.2779007,0.005593025591224432,0.002019795821979642,0.004688182845711708,-0.45452427864074707,0.4397207200527191,-9.760210990905762
1745650483.3173516,0.0029479169752448797,0.0031477059237658978,0.0017365822568535805,-0.3116794526576996,0.35479971766471863,-9.737892150878906
1745650483.3209014,0.004642107058316469,-0.002062580781057477,0.00332011585123837,-0.4375630021095276,0.447388231754303,-9.774491310119629
1745650483.3230178,0.005085090175271034,0.0035368718672543764,0.0017170833889394999,-0.3382515609264374,0.3770335912704468,-9.773187637329102
1745650483.326361,0.0025201370008289814,-0.001274587120860815,0.004001268185675144,-0.36892828345298767,0.41770634055137634,-9.749898910522461
1745650483.3542776,0.0051045529544353485,0.003734771627932787,0.0019656699150800705,-0.38529443740844727,0.4173373281955719,-9.779203414916992
1745650483.356557,0.0009415668318979442,0.0003579198382794857,0.0020357766188681126,-0.31183212995529175,0.3834812343120575,-9.781121253967285
1745650483.364144,0.005723966751247644,0.0015612600836902857,0.0008864831179380417,-0.43059539794921875,0.4431186616420746,-9.782209396362305
1745650483.3641937,0.0035583865828812122,0.0014214070979505777,0.002263291273266077,-0.28702986240386963,0.35568976402282715,-9.747965812683105
1745650483.3642352,0.0025446750223636627,-0.0006801366107538342,0.0003325424622744322,-0.3077182173728943,0.3528481125831604,-9.771434783935547
1745650483.3975854,0.0013756419066339731,-0.00015058853023219854,0.0019216863438487053,-0.43693581223487854,0.4519162178039551,-9.756518363952637
1745650483.4014273,0.004133693873882294,1.0470114830241073e-05,0.002137977397069335,-0.3067548871040344,0.35351595282554626,-9.762201309204102
1745650483.4056923,-0.0011099831899628043,-0.0007844530045986176,-0.001010996988043189,-0.4095436930656433,0.42690810561180115,-9.789445877075195
1745650483.4070761,0.005518901161849499,0.0027773603796958923,0.0013127063866704702,-0.37802034616470337,0.4059186577796936,-9.763960838317871
1745650483.4406166,-0.0010674968361854553,-0.0022633059415966272,0.00013407410006038845,-0.35135847330093384,0.38761866092681885,-9.780322074890137
1745650483.4418786,0.005445567891001701,0.0005508207832463086,5.563007289310917e-05,-0.44146528840065,0.42057934403419495,-9.765584945678711
1745650483.4442258,0.0015057993587106466,-0.0008124896558001637,0.001717593870125711,-0.30431801080703735,0.3690488338470459,-9.764261245727539
1745650483.4471934,0.0022386086639016867,-0.0008900072425603867,-0.0021358407102525234,-0.4697171747684479,0.45077624917030334,-9.785022735595703
1745650483.482526,0.002122146775946021,0.0015193510334938765,0.0008198218420147896,-0.3109498620033264,0.35502907633781433,-9.768145561218262
1745650483.486694,0.0008724640938453376,-0.0028521791100502014,-0.0005759480409324169,-0.41931667923927307,0.4273274540901184,-9.770362854003906
1745650483.488877,0.003141640219837427,0.002177430782467127,0.000874114572070539,-0.3388710916042328,0.3995012640953064,-9.759210586547852
1745650483.4923537,-0.0010976976482197642,-0.0026019634678959846,-0.000980099430307746,-0.33949774503707886,0.39205819368362427,-9.775717735290527
1745650483.4940605,0.0035079431254416704,0.002034112811088562,-0.00046355387894436717,-0.42698782682418823,0.42942386865615845,-9.77833366394043
1745650483.5293517,2.2880547476233914e-05,-0.002997136441990733,0.0010015073930844665,-0.33141976594924927,0.42975154519081116,-9.756698608398438
1745650483.5297105,0.0017763178329914808,-0.00027153216069564223,-0.0006042589666321874,-0.43650269508361816,0.41532427072525024,-9.783879280090332
1745650483.531584,0.0011415129993110895,-0.0015828193863853812,0.0008937668171711266,-0.3002554774284363,0.38838115334510803,-9.764596939086914
1745650483.5375917,0.0022776308469474316,-0.0016567669808864594,-0.0010740074794739485,-0.4474934935569763,0.4619070589542389,-9.771956443786621
1745650483.5732398,0.0010425797663629055,0.0010944557143375278,0.0011059374082833529,-0.3180406093597412,0.3412085473537445,-9.768739700317383
1745650483.5732818,-0.000707062310539186,-0.0035507516004145145,-0.001158340834081173,-0.40752196311950684,0.47338205575942993,-9.763898849487305
1745650483.5765586,0.001886110519990325,0.004339507780969143,0.001812246977351606,-0.3702112138271332,0.365400493144989,-9.784296035766602
1745650483.5805056,-0.0014501267578452826,-0.00328933191485703,0.002486275974661112,-0.3379018008708954,0.44892916083335876,-9.758744239807129
1745650483.6108634,0.0029905338305979967,0.0007728566997684538,0.0007154678460210562,-0.43214845657348633,0.41642817854881287,-9.771791458129883
1745650483.6151369,-0.0026116478256881237,-0.002247708151116967,0.00012673278979491442,-0.2869870066642761,0.39490795135498047,-9.76735782623291
1745650483.6207356,0.004418323747813702,0.0002712036366574466,0.0013827872462570667,-0.4519464075565338,0.47138673067092896,-9.80974292755127
1745650483.6223395,-0.0006204361561685801,0.0007349788211286068,0.0018810328328981996,-0.29204797744750977,0.3652622103691101,-9.748406410217285
1745650483.6260157,0.0017400927608832717,-0.0019900661427527666,0.00047005395754240453,-0.4190574586391449,0.495948851108551,-9.763445854187012
1745650483.6561782,0.0024654155131429434,0.0002760315255727619,0.0016957831103354692,-0.38632816076278687,0.36197301745414734,-9.78032112121582
1745650483.66015,-0.0010271597420796752,-0.002808770164847374,0.0010458506876602769,-0.3530746400356293,0.4786394238471985,-9.760835647583008
1745650483.66142,0.0056529780849814415,0.002636489924043417,0.0011337858159095049,-0.4231782555580139,0.3968375325202942,-9.790202140808105
1745650483.6633728,-0.0027357141952961683,-0.0012934518745169044,0.0026394068263471127,-0.2978651523590088,0.4073478579521179,-9.74660587310791
1745650483.7000842,0.00573522737249732,-0.0007973895408213139,-0.0017870258307084441,-0.4529547095298767,0.47580018639564514,-9.783679962158203
1745650483.7029967,0.00024204356304835528,0.0018331019673496485,0.002970480127260089,-0.29358619451522827,0.3517894744873047,-9.791757583618164
1745650483.7042649,0.0035355263389647007,-0.0036930423229932785,0.0005863234982825816,-0.4171999394893646,0.4968997836112976,-9.771720886230469
1745650483.707197,0.0014849730068817735,0.002444481011480093,0.0003788648173213005,-0.35971176624298096,0.3663950562477112,-9.739904403686523
1745650483.7414422,0.005536408629268408,0.0011076497612521052,0.0011175383115187287,-0.42240819334983826,0.40779250860214233,-9.80182933807373
1745650483.7459176,6.842306174803525e-05,-0.0014440594241023064,0.0012319645611569285,-0.29856085777282715,0.40782156586647034,-9.764030456542969
1745650483.7494452,0.006968560628592968,0.001480319770053029,0.00025966245448216796,-0.4329540729522705,0.445122629404068,-9.769800186157227
1745650483.7542603,-0.000312121759634465,-0.0010221389820799232,0.0016032485291361809,-0.2828002870082855,0.37904617190361023,-9.751727104187012
1745650483.7894871,0.0037610470317304134,-0.0018580121686682105,0.0004426834639161825,-0.43764352798461914,0.46598300337791443,-9.803117752075195
1745650483.7910378,0.003966544289141893,0.0024955221451818943,0.0005821085069328547,-0.3390527367591858,0.3855804204940796,-9.788835525512695
1745650483.792376,0.00481750164180994,-0.0035428390838205814,0.002372746355831623,-0.356773316860199,0.4449869692325592,-9.743934631347656
1745650483.7950835,0.0026792362332344055,0.0009892515372484922,0.0010880071204155684,-0.4107905924320221,0.3885960578918457,-9.789402961730957
1745650483.7962148,0.0016928308177739382,-0.0011205949122086167,0.0021245768293738365,-0.2983715832233429,0.41326791048049927,-9.778289794921875
1745650483.8281753,0.0036783977411687374,0.0012658260529860854,0.0009430106729269028,-0.43693333864212036,0.44660240411758423,-9.793245315551758
1745650483.831813,0.0019333328818902373,-3.730793105205521e-05,0.0024379268288612366,-0.29081934690475464,0.36338645219802856,-9.731832504272461
1745650483.836166,0.00486054178327322,-0.0006711605237796903,0.0013377720024436712,-0.43493708968162537,0.4572993218898773,-9.77881908416748
1745650483.8399503,0.00386481243185699,0.0012231869623064995,0.0015930973459035158,-0.3412160873413086,0.3707156777381897,-9.794970512390137
1745650483.8716478,0.0026730019599199295,-0.00413016602396965,0.0011879747034981847,-0.3607124090194702,0.438478946685791,-9.77490234375
1745650483.873219,0.004274699836969376,0.002475739922374487,0.0015301958192139864,-0.3990326523780823,0.4151449203491211,-9.756144523620605
1745650483.8766963,0.00475085387006402,0.001689269905909896,0.0016167465364560485,-0.374595046043396,0.4052739143371582,-9.770055770874023
1745650483.8800962,0.0014224570477381349,-0.0033569964580237865,0.0016271170461550355,-0.3576350510120392,0.4061610698699951,-9.786581039428711
1745650483.882037,0.0035574075300246477,0.002105340361595154,0.0019339900463819504,-0.4466524124145508,0.4407960772514343,-9.77566146850586
1745650483.9148414,0.002359620528295636,-0.0026454024482518435,0.0008059574174694717,-0.3153077960014343,0.3696521520614624,-9.73892879486084
1745650483.918771,0.004600375425070524,0.001259038457646966,0.0009612442809157073,-0.45639389753341675,0.43771544098854065,-9.783563613891602
1745650483.9196897,0.0022295317612588406,0.0009822152787819505,0.003026932943612337,-0.32016605138778687,0.3807761073112488,-9.747893333435059
1745650483.9221847,0.0018711958546191454,-0.0011518860701471567,0.000304843473713845,-0.43765145540237427,0.4417267441749573,-9.76953411102295
1745650483.9593582,0.0032379801850765944,0.0034484327770769596,0.001496771932579577,-0.3772647976875305,0.3786294460296631,-9.752120971679688
1745650483.9626687,0.0014537818497046828,-0.002477033529430628,0.002047394635155797,-0.3639999032020569,0.3958207964897156,-9.747993469238281
1745650483.9665952,0.0010798353468999267,0.0030586556531488895,0.001714850077405572,-0.4341072142124176,0.448108047246933,-9.75908374786377
1745650483.9691734,0.0025426456704735756,-0.002517854096367955,0.001060599577613175,-0.3080544173717499,0.35697829723358154,-9.762639045715332
1745650483.9988344,0.0006092773983255029,0.0008984885062091053,0.0001058499765349552,-0.45959025621414185,0.4653998017311096,-9.782148361206055
1745650484.0003622,0.0037418189458549023,0.0007055519381538033,0.003156947437673807,-0.308724582195282,0.38641437888145447,-9.753186225891113
1745650484.0014625,-3.099814057350159e-05,-0.001986551797017455,0.0026866241823881865,-0.41012781858444214,0.42330342531204224,-9.769216537475586
1745650484.0031044,0.002629815833643079,0.002143498510122299,0.0003903241013176739,-0.3595626950263977,0.3964754045009613,-9.786144256591797
1745650484.004513,0.00025063782231882215,-0.0021904166787862778,0.0013950122520327568,-0.3530500829219818,0.4217427372932434,-9.763235092163086
1745650484.041721,0.003650221275165677,0.0026812341529875994,0.0006421278230845928,-0.4055584967136383,0.4281701147556305,-9.747514724731445
1745650484.0453672,0.0010977877536788583,-0.0016619069501757622,0.002397547010332346,-0.28799399733543396,0.3759668171405792,-9.739568710327148
1745650484.047141,0.0015394353540614247,0.0010900036431849003,0.00026020576478913426,-0.43066900968551636,0.4615582525730133,-9.789856910705566
1745650484.0497358,0.0037021804600954056,0.0006207908736541867,0.0019645073916763067,-0.28084129095077515,0.3609221577644348,-9.769072532653809
1745650484.0861971,-0.0006634511519223452,0.00039079971611499786,0.0021680903155356646,-0.42227703332901,0.43301230669021606,-9.776442527770996
1745650484.0964122,-0.000502333918120712,-0.002249358221888542,0.0007138760993257165,-0.3732827305793762,0.4243735373020172,-9.787450790405273
1745650484.09658,0.005235667340457439,0.002426487859338522,0.0018893398810178041,-0.3943164050579071,0.4302908480167389,-9.763753890991211
1745650484.0971262,-6.686212873319164e-05,-0.0017518637469038367,-0.0007934613386169076,-0.32737091183662415,0.36755046248435974,-9.761930465698242
1745650484.1281087,0.0025171362794935703,-0.0013724849559366703,0.002300799824297428,-0.4577164649963379,0.47220873832702637,-9.800256729125977
1745650484.1300924,0.002667403779923916,-0.0004326266353018582,0.00017171911895275116,-0.2951200604438782,0.34710219502449036,-9.755828857421875
1745650484.1331847,0.0017016768688336015,-0.001409269287250936,0.00022207872825674713,-0.4316672682762146,0.44270458817481995,-9.759185791015625
1745650484.137209,0.003852037712931633,-9.863591003522743e-06,0.0013816982973366976,-0.31672608852386475,0.38759344816207886,-9.766514778137207
1745650484.1415856,-0.0006614789017476141,-0.002784186275675893,-0.0002981116122100502,-0.3820626437664032,0.41400057077407837,-9.791158676147461
1745650484.172005,0.002113733207806945,-0.00023474800400435925,0.00023430302098859102,-0.3846372067928314,0.41954946517944336,-9.7644624710083
1745650484.1740518,0.0002595110272523016,-0.003362497314810753,0.0012123504420742393,-0.31756460666656494,0.38604456186294556,-9.760397911071777
1745650484.1781898,0.0020363195799291134,-0.000806062133051455,-0.00033647328382357955,-0.4305960536003113,0.44923704862594604,-9.784330368041992
1745650484.1897368,0.0031792842783033848,-0.0017950361361727118,-0.000933552160859108,-0.30134496092796326,0.3576433062553406,-9.771186828613281
1745650484.2158344,-0.0002196363202529028,6.110880349297076e-05,0.001648646779358387,-0.44231343269348145,0.4556809365749359,-9.787093162536621
1745650484.2180293,0.002012851182371378,-0.0006676202174276114,-0.0013917896430939436,-0.30907759070396423,0.3784050941467285,-9.756070137023926
1745650484.2196722,-0.0017849666764959693,-0.004292527213692665,-0.00011660808377200738,-0.39739328622817993,0.4420085549354553,-9.769021034240723
1745650484.2235873,-0.00014841083611827344,-0.004755456931889057,0.0013920665951445699,-0.4158775210380554,0.4524722099304199,-9.793203353881836
1745650484.22699,0.0031387198250740767,-0.00199043657630682,0.00027575361309573054,-0.3207893371582031,0.3781229853630066,-9.77889633178711
1745650484.2620943,0.0003499015583656728,-0.004589441232383251,0.0004927971167489886,-0.37599602341651917,0.44772934913635254,-9.764365196228027
1745650484.2621515,0.0024886871688067913,-0.0011672439286485314,0.0019652550108730793,-0.38974934816360474,0.43647900223731995,-9.777113914489746
1745650484.2678607,0.0005398251814767718,-0.005319403950124979,0.0005289503606036305,-0.3148546814918518,0.38920947909355164,-9.771364212036133
1745650484.2680967,0.0024800715036690235,-0.0010941115906462073,0.0011586180189624429,-0.43775367736816406,0.4662708640098572,-9.799158096313477
1745650484.3029335,0.0004780195595230907,-0.004386520013213158,0.001104832044802606,-0.29436567425727844,0.38243207335472107,-9.754611015319824
1745650484.3042018,0.004418186843395233,-0.004132554400712252,0.0007915719179436564,-0.4259461462497711,0.46033769845962524,-9.781147956848145
1745650484.3083007,0.00404144823551178,-0.0015276598278433084,0.0013334315735846758,-0.3127163052558899,0.38822340965270996,-9.771443367004395
1745650484.3107712,0.00019947430700995028,-0.003186299931257963,0.0012698707869276404,-0.39618587493896484,0.42129582166671753,-9.766490936279297
1745650484.346048,0.00711904326453805,-0.0004086919652763754,0.0008576855179853737,-0.384137362241745,0.39417344331741333,-9.768492698669434
1745650484.3548815,0.00029739862657152116,-0.005365260876715183,0.00048118550330400467,-0.3300431966781616,0.40213966369628906,-9.755614280700684
1745650484.355035,0.00277942162938416,-0.002122398465871811,0.0008130891364999115,-0.4473615288734436,0.43684229254722595,-9.798049926757812
1745650484.3551624,0.002635964658111334,-0.003702836576849222,0.0009480463340878487,-0.30324724316596985,0.3747498095035553,-9.755781173706055
1745650484.3552732,0.0013660459080711007,-0.003324659075587988,0.0012150980764999986,-0.4629632532596588,0.4558817744255066,-9.785171508789062
1745650484.389152,0.0022369883954524994,-0.0007838261080905795,0.003103722585365176,-0.3330036997795105,0.3631120026111603,-9.77113151550293
1745650484.3937469,0.00010550166189204901,-0.006233680993318558,0.0004334659897722304,-0.41491103172302246,0.43964189291000366,-9.772249221801758
1745650484.399575,0.004894652403891087,-0.0003323235141579062,0.0021696151234209538,-0.38768166303634644,0.40336480736732483,-9.785059928894043
1745650484.4045706,0.0003772346826735884,-0.0050765275955200195,0.0016905583906918764,-0.34034615755081177,0.3916587829589844,-9.736936569213867
1745650484.4304993,0.0021046330220997334,-0.003329054219648242,0.0008836793713271618,-0.4567302167415619,0.44500598311424255,-9.778449058532715
1745650484.433573,0.00014152452058624476,-0.0031468651723116636,0.0005072529893368483,-0.30609840154647827,0.3846208453178406,-9.791863441467285
1745650484.434651,0.004447066690772772,-0.002122140023857355,0.002228813711553812,-0.3013926148414612,0.3844746947288513,-9.755470275878906
1745650484.4370956,0.0004270165227353573,-0.002875927835702896,0.0007442784262821078,-0.42247891426086426,0.42777037620544434,-9.782392501831055
1745650484.4710543,0.003802235471084714,0.0006566492957063019,0.001606644713319838,-0.3533022999763489,0.4188992381095886,-9.776018142700195
1745650484.4759774,-7.518642814829946e-05,-0.004760449752211571,0.001187971094623208,-0.35122594237327576,0.40121588110923767,-9.753671646118164
1745650484.4789886,0.0025418936274945736,-0.0012818460818380117,0.0011412199819460511,-0.43414393067359924,0.42801323533058167,-9.776721000671387
1745650484.4835758,0.0013467001263052225,-0.005800510291010141,0.0014164929743856192,-0.31397706270217896,0.384833961725235,-9.761269569396973
1745650484.4872594,0.0026706147473305464,-0.0011439707595854998,-0.0013718365225940943,-0.44239145517349243,0.45198574662208557,-9.77247142791748
1745650484.5150964,0.002561840694397688,-0.0007582494290545583,0.001130219199694693,-0.30984681844711304,0.3631579875946045,-9.740007400512695
1745650484.51752,0.0014911716571077704,-0.003090483834967017,6.267447315622121e-05,-0.43790459632873535,0.45654430985450745,-9.764801025390625
1745650484.519003,0.005502861924469471,0.00041661705472506583,-4.433330468600616e-05,-0.352030873298645,0.38380175828933716,-9.772263526916504
1745650484.521543,-0.00010996386117767543,-0.0024833879433572292,0.0011468295706436038,-0.3699275553226471,0.4123702645301819,-9.765087127685547
1745650484.5585754,0.004559719003736973,-0.0010504520032554865,-0.0007886701496317983,-0.4361918568611145,0.43363896012306213,-9.763032913208008
1745650484.5624077,0.001312559237703681,-0.0023765016812831163,-0.0010560619411990047,-0.3269678056240082,0.3768688440322876,-9.77105712890625
1745650484.566132,0.003656527493149042,-0.00025040440959855914,0.0002930700429715216,-0.470973402261734,0.4477115571498871,-9.77644157409668
1745650484.56991,0.0016792912501841784,-0.0013225929578766227,7.990485755726695e-05,-0.30449461936950684,0.3658536970615387,-9.751479148864746
1745650484.5743957,0.004265167750418186,0.0030457181856036186,1.1070561413362157e-05,-0.4414371848106384,0.4353857934474945,-9.775123596191406
1745650484.6043859,-2.640867569425609e-05,7.10295862518251e-05,0.0004931998555548489,-0.30664515495300293,0.3898929953575134,-9.751134872436523
1745650484.6075258,0.0020206235349178314,-0.0008478296804241836,0.0018699176143854856,-0.4562162458896637,0.47201743721961975,-9.784156799316406
1745650484.6092966,0.002922679064795375,0.0014356651809066534,0.0017586357425898314,-0.3247242867946625,0.38336271047592163,-9.758402824401855
1745650484.6110318,0.00116166309453547,-0.0017582608852535486,0.00022148941934574395,-0.4252798557281494,0.4551904797554016,-9.767261505126953
1745650484.6489491,0.003469550283625722,0.0029150480404496193,0.0027774632908403873,-0.37749043107032776,0.40356677770614624,-9.795916557312012
1745650484.6511402,-0.0001335780107183382,-0.002704487880691886,0.00247512711212039,-0.364351749420166,0.4273923337459564,-9.76979923248291
1745650484.6543314,0.003088864963501692,0.0013426218647509813,0.0010522546945139766,-0.42344197630882263,0.4326047897338867,-9.769607543945312
1745650484.6616154,0.0009240391664206982,-0.0032930392771959305,0.0026803729124367237,-0.29664307832717896,0.35847145318984985,-9.772296905517578
1745650484.6867025,0.0008759641787037253,0.0004802706534974277,0.0015039186691865325,-0.45440492033958435,0.4196757376194,-9.789376258850098
1745650484.6896055,0.0008246583165600896,-0.0010541260708123446,0.004397430922836065,-0.3102172017097473,0.3281024396419525,-9.74693775177002
1745650484.6917446,-0.0027182854246348143,-0.003248095978051424,0.003914432134479284,-0.4238506257534027,0.40814703702926636,-9.79834270477295
1745650484.6939845,0.0014807878760620952,-0.0016427276423200965,0.005801770370453596,-0.34787455201148987,0.3641805052757263,-9.795334815979004
1745650484.6988435,-0.005210731644183397,-0.005294063128530979,0.0049538337625563145,-0.3415915369987488,0.3919542729854584,-9.797285079956055
1745650484.7317798,0.00023418848286382854,-0.0018980646273121238,0.007114329840987921,-0.40172046422958374,0.4031703472137451,-9.797073364257812
1745650484.7335799,-0.004413710441440344,-0.005011537112295628,0.005801111925393343,-0.2925242483615875,0.359640508890152,-9.783068656921387
1745650484.7362885,-0.0016508614644408226,-0.004928260110318661,0.006203308701515198,-0.41217240691185,0.46349892020225525,-9.793313980102539
1745650484.7394443,-0.0023305050563067198,-0.004537744447588921,0.005771561060100794,-0.27185970544815063,0.37775254249572754,-9.765671730041504
1745650484.7732034,-0.0015718924114480615,-0.006456675473600626,0.006221313960850239,-0.3981528878211975,0.4622187614440918,-9.758502006530762
1745650484.779508,0.002644031774252653,-0.001962966052815318,0.005958915688097477,-0.3106963634490967,0.40249958634376526,-9.762578964233398
1745650484.7818358,-0.002846633782610297,-0.008702901192009449,0.004207185003906488,-0.33056941628456116,0.41994231939315796,-9.792001724243164
1745650484.7873461,0.0060454257763922215,-0.002840468194335699,0.0013744875323027372,-0.49236875772476196,0.4429011940956116,-9.751379013061523
1745650484.8176048,0.0038664527237415314,-0.0032030355650931597,0.0017073990311473608,-0.34135961532592773,0.365621954202652,-9.740365982055664
1745650484.8213515,0.004361551720649004,-0.004608211573213339,7.129427831387147e-05,-0.48228898644447327,0.4632938504219055,-9.78140926361084
1745650484.8220134,0.008010905236005783,-0.0009342442499473691,-0.0003779946709983051,-0.36440199613571167,0.40732449293136597,-9.756896018981934
1745650484.823852,0.0030563785694539547,-0.005635836161673069,0.0008804405224509537,-0.41347116231918335,0.42721739411354065,-9.768230438232422
1745650484.8256764,0.009126149117946625,-0.00020322739146649837,-0.0004816761356778443,-0.41568031907081604,0.44586020708084106,-9.772233963012695
1745650484.860571,0.0035654506646096706,-0.004700640216469765,-0.00055289565352723,-0.33715710043907166,0.3875131905078888,-9.795464515686035
1745650484.863519,0.00549274031072855,-0.0026422529481351376,-0.0010642304550856352,-0.45610642433166504,0.4575079083442688,-9.775349617004395
1745650484.8666952,0.00469363946467638,-0.005553146358579397,-0.0006852975930087268,-0.3235301375389099,0.3851400911808014,-9.759370803833008
1745650484.8714395,0.002315310761332512,-0.004098328296095133,-0.0003496338613331318,-0.4772302210330963,0.4607160687446594,-9.800952911376953
1745650484.904761,0.004961918108165264,-0.0022350226063281298,-0.0021434538066387177,-0.3602815568447113,0.3920423090457916,-9.772802352905273
1745650484.907681,-0.0005893578054383397,-0.005544493906199932,-0.0016341753071174026,-0.4231458306312561,0.4259780943393707,-9.762937545776367
1745650484.9118392,0.003049199003726244,-0.0014536262024194002,-0.002407920313999057,-0.3908867835998535,0.43138185143470764,-9.738266944885254
1745650484.91581,-0.0009922028984874487,-0.005866090767085552,-0.0031700432300567627,-0.35482150316238403,0.40338683128356934,-9.772123336791992
1745650484.9180055,0.002980845980346203,-0.0010658127721399069,-0.000759016489610076,-0.45886141061782837,0.4476940631866455,-9.77474594116211
1745650484.949492,0.001429455354809761,0.002669042441993952,0.004395299591124058,-0.37850242853164673,0.42210835218429565,-9.77798080444336
1745650484.9526567,0.004667957313358784,0.004969407804310322,0.0028432183898985386,-0.3930729925632477,0.44257158041000366,-9.75699520111084
1745650484.9547024,-7.66472439863719e-05,0.0011621583253145218,0.0025386023335158825,-0.3051779866218567,0.38733208179473877,-9.778570175170898
1745650484.9569533,0.004870721139013767,0.006037023849785328,0.00031380142900161445,-0.42084845900535583,0.4725121557712555,-9.777441024780273
1745650484.9882495,0.0027088182978332043,0.0046098968014121056,0.0019330538343638182,-0.30117976665496826,0.40116629004478455,-9.745301246643066
1745650484.9912837,9.630294698581565e-06,0.0033415264915674925,0.0008318867767229676,-0.4349069595336914,0.47269853949546814,-9.792908668518066
1745650484.992584,0.002731751650571823,0.004987061955034733,0.00013115452020429075,-0.30345720052719116,0.382644921541214,-9.782426834106445
1745650484.9952881,0.00032701235613785684,0.002299404935911298,0.002351736882701516,-0.3561636209487915,0.40652427077293396,-9.751550674438477
1745650485.0324867,0.0019122272497043014,0.0059047238901257515,-0.001682687783613801,-0.362124502658844,0.3967040181159973,-9.759765625
1745650485.0343149,-0.0013316369149833918,0.004297205246984959,0.00045482852146960795,-0.3200022876262665,0.35804587602615356,-9.785295486450195
1745650485.039242,0.0012098854640498757,0.004460620693862438,-0.0012675229227170348,-0.43012142181396484,0.42173242568969727,-9.798285484313965
1745650485.0397732,-0.0019933991134166718,0.00325453607365489,0.0003685975098051131,-0.2891600728034973,0.3380041718482971,-9.7678804397583
1745650485.0496924,-0.001756518380716443,0.0036967643536627293,0.0018252019071951509,-0.44791412353515625,0.445797860622406,-9.77763843536377
1745650485.0753572,0.002190936356782913,0.004197962116450071,0.0015244625974446535,-0.3361892104148865,0.389213889837265,-9.756094932556152
1745650485.0772293,-0.003392644925042987,0.0008221250027418137,0.0017573753139004111,-0.40535083413124084,0.4362258017063141,-9.780693054199219
1745650485.0801954,0.0045083193108439445,0.005822056904435158,0.0029350940603762865,-0.4033094048500061,0.44661229848861694,-9.750185012817383
1745650485.0843692,0.0012957935687154531,0.0008547379402443767,0.0006314957281574607,-0.35273411870002747,0.4371066093444824,-9.752744674682617
1745650485.1209216,0.005206323228776455,0.007076455745846033,0.001413162099197507,-0.4671132564544678,0.4782768189907074,-9.789300918579102
1745650485.122343,0.004976500757038593,0.004389840643852949,0.0005681247566826642,-0.33810415863990784,0.42653051018714905,-9.745659828186035
1745650485.1269672,0.0048607634380459785,0.0033932127989828587,0.0003755529469344765,-0.4666210114955902,0.48177844285964966,-9.736732482910156
1745650485.1300375,0.007569243665784597,0.007754478603601456,-0.0014946969458833337,-0.3417302668094635,0.41308078169822693,-9.739226341247559
1745650485.1613686,-0.000890945375431329,0.0039246706292033195,-3.90588647860568e-05,-0.37085452675819397,0.416665256023407,-9.776876449584961
1745650485.1653829,0.003717069048434496,0.00637231906875968,-0.0010687930043786764,-0.41648441553115845,0.4532477855682373,-9.783175468444824
1745650485.1691918,0.00021788026788271964,0.002483631018549204,0.0011359298368915915,-0.2783994674682617,0.4228207468986511,-9.764177322387695
1745650485.1745877,0.005649729166179895,0.004198234062641859,-0.0012926803901791573,-0.420914888381958,0.4837799072265625,-9.802305221557617
1745650485.178499,0.004675108008086681,0.0036830950994044542,0.0003134809376206249,-0.2704700827598572,0.3945268392562866,-9.780990600585938
1745650485.2041962,0.005713589023798704,0.00277475593611598,-0.0017475772183388472,-0.4042373299598694,0.5229371786117554,-9.776280403137207
1745650485.2142782,0.0068417685106396675,0.005606223363429308,-0.0008745163795538247,-0.3235616087913513,0.3776307702064514,-9.802584648132324
1745650485.2143397,0.004188261926174164,-0.00021969116642139852,-0.0003512236871756613,-0.34614139795303345,0.47676730155944824,-9.75904369354248
1745650485.2152627,0.008459009230136871,0.0033633108250796795,-0.0015810469631105661,-0.38078758120536804,0.3974732756614685,-9.780003547668457
1745650485.248553,0.002559519838541746,0.00033817178336903453,-0.0006079325685277581,-0.28678756952285767,0.3897116780281067,-9.782028198242188
1745650485.2510152,0.007010939531028271,0.002963102888315916,-0.0007362858159467578,-0.4265807271003723,0.4307073950767517,-9.782214164733887
1745650485.2554452,0.0013565398985520005,0.0013799715088680387,-0.0001654048974160105,-0.27102476358413696,0.3537132143974304,-9.765692710876465
1745650485.2610626,0.002158624120056629,0.0011895307106897235,-0.00010985061817336828,-0.4185636043548584,0.42707014083862305,-9.78333854675293
1745650485.2630117,0.0016658665845170617,0.004897740203887224,-0.002103457460179925,-0.31469056010246277,0.35527652502059937,-9.77392578125
1745650485.292948,-0.0020300603937357664,-0.00036690133856609464,0.0007480491767637432,-0.36600714921951294,0.4162103235721588,-9.752463340759277
1745650485.2954085,0.007651994936168194,0.0033835056237876415,0.0018289759755134583,-0.27607178688049316,0.3706478178501129,-9.744775772094727
1745650485.2969236,0.01342030055820942,0.0010122001403942704,0.0017121799755841494,-0.41638535261154175,0.49607792496681213,-9.755605697631836
1745650485.2989848,0.011513503268361092,0.004218955058604479,0.0031178505159914494,-0.32962486147880554,0.3599826395511627,-9.800291061401367
1745650485.3357522,0.009123779833316803,-0.00024993764236569405,0.0008654104312881827,-0.36117827892303467,0.4732094705104828,-9.774434089660645
1745650485.3379145,0.011712529696524143,0.004585637710988522,0.0013134414330124855,-0.42817291617393494,0.37684011459350586,-9.750551223754883
1745650485.3400168,0.0075529953464865685,0.000399662007112056,0.00045781777589581907,-0.31107401847839355,0.39196664094924927,-9.71728229522705
1745650485.342866,0.008397232741117477,0.0045425789430737495,0.0023839815985411406,-0.4732396602630615,0.4152398109436035,-9.80177116394043
1745650485.3790894,0.00557196419686079,0.0034706455189734697,0.00022007357620168477,-0.32779133319854736,0.35114073753356934,-9.75749397277832
1745650485.3819113,0.004821351729333401,0.0016638630768284202,0.0017431704327464104,-0.44775277376174927,0.4538347125053406,-9.757673263549805
1745650485.3855815,0.005188013426959515,0.005377557128667831,0.002885749563574791,-0.3700208067893982,0.38997721672058105,-9.73346996307373
1745650485.3893554,0.0023029991425573826,2.72010456683347e-05,0.0014946125447750092,-0.38711148500442505,0.4428560733795166,-9.757519721984863
1745650485.4180906,0.006005304865539074,0.00516772223636508,0.001816650852560997,-0.4289504885673523,0.438581645488739,-9.783514022827148
1745650485.4206734,0.0038977432996034622,0.00014637687127105892,0.0009003084851428866,-0.3327100872993469,0.415427029132843,-9.7551851272583
1745650485.4224787,0.00828163605183363,0.0034149414859712124,0.001972838770598173,-0.4631205201148987,0.4825367033481598,-9.768637657165527
1745650485.423812,0.006503670010715723,0.002834474667906761,0.0010347772622480989,-0.319709837436676,0.40016689896583557,-9.747676849365234
1745650485.4269032,0.009131347760558128,0.0023632515221834183,-0.0008156216936185956,-0.48833760619163513,0.5083227157592773,-9.763814926147461
1745650485.472391,0.00978891458362341,0.005592105444520712,6.491131898656022e-06,-0.36989057064056396,0.3729778826236725,-9.749995231628418
1745650485.4724307,0.008172718808054924,0.0025687613524496555,0.0008031840552575886,-0.39641112089157104,0.45176228880882263,-9.706220626831055
1745650485.4724731,0.008016909472644329,0.006411846727132797,-0.0004926591063849628,-0.40908390283584595,0.3900904357433319,-9.736031532287598
1745650485.4743187,0.007333643734455109,0.0029411495197564363,-0.00028393627144396305,-0.3350215256214142,0.3819994628429413,-9.769757270812988
1745650485.520468,0.007693828549236059,0.009446281008422375,0.0020441077649593353,-0.29804033041000366,0.4001396596431732,-9.753362655639648
1745650485.5209572,0.00812140665948391,0.0036813020706176758,0.001302077667787671,-0.3872247338294983,0.4837992787361145,-9.785357475280762
1745650485.555377,0.011434740386903286,0.010319757275283337,-0.0014794167364016175,-0.35996943712234497,0.4153701663017273,-9.773626327514648
1745650485.5916796,0.00795813649892807,0.004171748645603657,0.0013566066045314074,-0.33020156621932983,0.3993348479270935,-9.75594711303711
1745650485.5941627,0.009594861418008804,0.00930571835488081,0.0005239703459665179,-0.4345899224281311,0.42858782410621643,-9.802392959594727
1745650485.5980237,0.00976322777569294,0.0048052542842924595,0.0016606185818091035,-0.3027024269104004,0.3562227189540863,-9.781771659851074
1745650485.6014853,0.009170565754175186,0.006409824825823307,-0.00042026984738186,-0.4680960774421692,0.3901600241661072,-9.758915901184082
1745650485.6536427,0.0072447508573532104,0.008225766941905022,0.0012490337248891592,-0.33763587474823,0.33591461181640625,-9.717887878417969
1745650485.6593106,0.005104665644466877,0.0029563449788838625,0.0011129876365885139,-0.4399417042732239,0.3820018470287323,-9.765460014343262
1745650485.6593862,0.00868658535182476,0.010943780653178692,0.0020895644556730986,-0.39122864603996277,0.33865004777908325,-9.801804542541504
1745650485.6659892,0.00017094386566895992,0.0035202919971197844,0.0026960812974721193,-0.3746899366378784,0.3241058886051178,-9.755667686462402
1745650485.6661391,0.004319562576711178,0.010155717842280865,0.0022342405281960964,-0.4595930576324463,0.3814462125301361,-9.72962474822998
1745650485.6661918,-0.0016217374941334128,0.004698083270341158,0.003800810081884265,-0.3192409873008728,0.3255132734775543,-9.749049186706543
1745650485.6815832,-0.0007387406076304615,0.008904187008738518,0.003975100349634886,-0.47378426790237427,0.4266663193702698,-9.793745040893555
1745650485.6853623,-0.0010205470025539398,0.009722164832055569,0.004331505391746759,-0.31900349259376526,0.34697225689888,-9.752069473266602
1745650485.6886084,-0.004482404328882694,0.005373938474804163,0.003250857349485159,-0.4125407338142395,0.42401331663131714,-9.794585227966309
1745650485.6941085,0.004197409376502037,0.0047723958268761635,-0.0010624296264722943,-0.32169824838638306,0.3505845367908478,-9.847018241882324
1745650485.6942236,0.006256373133510351,0.01047480944544077,-0.0022362128365784883,-0.42465806007385254,0.3993002772331238,-9.726972579956055
1745650485.701359,0.003156463149935007,0.004932248033583164,-0.00032237108098343015,-0.26608505845069885,0.3020385205745697,-9.705519676208496
1745650485.7034938,-0.0007281109574250877,0.004334248136729002,-0.0018251951551064849,-0.41436442732810974,0.40489816665649414,-9.833990097045898
1745650485.7035587,0.0027594021521508694,0.007061691489070654,0.0006282598478719592,-0.293523371219635,0.3608662486076355,-9.851174354553223
1745650485.7294834,-0.0017133366782218218,0.0039576152339577675,0.0003364485746715218,-0.38623636960983276,0.38516563177108765,-9.742202758789062
1745650485.7623532,0.003037657355889678,0.00661821011453867,-0.0003218499186914414,-0.36331114172935486,0.38597312569618225,-9.738436698913574
1745650485.780989,-0.0025667452719062567,0.0018404811853542924,0.0011875990312546492,-0.3227841556072235,0.3996674120426178,-9.801053047180176
1745650485.8040807,0.0007882247446104884,0.006713210139423609,0.0020682704634964466,-0.4170711040496826,0.44520601630210876,-9.80468463897705
1745650485.8125634,0.00205531669780612,0.005850057117640972,-0.0010579818626865745,-0.27959415316581726,0.3757915198802948,-9.718393325805664
1745650485.814448,0.0024568226654082537,0.004552376456558704,-6.661924999207258e-06,-0.42106741666793823,0.4934841990470886,-9.756551742553711
1745650485.8144772,0.0031085838563740253,0.004373309202492237,-0.0019509438425302505,-0.2980039417743683,0.404776394367218,-9.82508373260498
1745650485.8166625,0.0031052730046212673,0.005759489722549915,-0.0010371982352808118,-0.3727954030036926,0.46939530968666077,-9.831145286560059
1745650485.8178215,0.006175643298774958,0.004987902007997036,-0.001499189529567957,-0.3466544449329376,0.41563573479652405,-9.710017204284668
1745650485.8320837,0.0020272398833185434,0.003519481746479869,-0.0024215381126850843,-0.3144312798976898,0.40138253569602966,-9.731306076049805
1745650485.833566,0.007737517356872559,0.006296467036008835,-0.0037222779355943203,-0.36741217970848083,0.4164500832557678,-9.870011329650879
1745650485.8428638,0.00018537676078267395,0.0029855086468160152,-0.00015316512144636363,-0.25539106130599976,0.35778704285621643,-9.809415817260742
1745650485.845382,0.004911581054329872,0.005727401003241539,-0.0031295400112867355,-0.41397541761398315,0.4136262834072113,-9.73826789855957
1745650485.8513012,0.00037526499363593757,0.001420898362994194,0.0008579062414355576,-0.2555975914001465,0.30050206184387207,-9.763547897338867
1745650485.8554454,-0.001924902549944818,0.0017880841623991728,0.0012397982645779848,-0.3745284378528595,0.3937121033668518,-9.851153373718262
1745650485.856974,0.008892513811588287,-0.0009316058713011444,-0.0014396240003407001,-0.390158474445343,0.45858636498451233,-9.84321403503418
1745650485.860832,0.0030721023213118315,-0.0004091343726031482,0.0008125750464387238,-0.23795625567436218,0.35667210817337036,-9.725807189941406
1745650485.867833,0.004826531745493412,-0.0029874981846660376,-0.0007344848127104342,-0.3787464201450348,0.4479118883609772,-9.767264366149902
1745650485.8961837,0.006470981054008007,-0.0006794566288590431,-0.000383698265068233,-0.2783353924751282,0.320523202419281,-9.809229850769043
1745650485.897364,0.000988714979030192,-0.003560708137229085,-0.0009916938142850995,-0.31214791536331177,0.4189675748348236,-9.793723106384277
1745650485.9020288,0.0058867186307907104,-0.0005723152426071465,-0.0011935370275750756,-0.3621821403503418,0.36219531297683716,-9.766850471496582
1745650485.9048822,0.0005603500758297741,-0.003198572900146246,0.0010098612401634455,-0.26904138922691345,0.36839017271995544,-9.760394096374512
1745650485.9365788,0.003616640344262123,-0.001040963688865304,0.001525707310065627,-0.4045754075050354,0.41640201210975647,-9.81181526184082
1745650485.9391758,0.0020800908096134663,-0.003110163612291217,0.0008984465384855866,-0.2508549094200134,0.3532864451408386,-9.785558700561523
1745650485.9413228,0.0023014997132122517,-0.0037244767881929874,0.0005243493942543864,-0.40126585960388184,0.466076135635376,-9.765419960021973
1745650485.9428363,0.003298584371805191,-0.000883439730387181,0.00025588320568203926,-0.3062242567539215,0.36042454838752747,-9.77540111541748
1745650485.9782736,0.0017714131390675902,-0.004326517693698406,0.0008475204231217504,-0.34584540128707886,0.4912659525871277,-9.779413223266602
1745650485.9806013,0.008400632068514824,-0.001711929915472865,-0.0007157590007409453,-0.37159085273742676,0.4069412648677826,-9.783674240112305
1745650485.9882548,0.0009777361992746592,-0.005929809063673019,-0.000436299858847633,-0.28879672288894653,0.46533679962158203,-9.758569717407227
1745650485.988839,0.008175859227776527,-0.0029826858080923557,-0.0005102617433294654,-0.42920517921447754,0.4521659016609192,-9.792722702026367
1745650486.0213673,0.0042256684973835945,-0.004297384060919285,0.0038858477491885424,-0.39250510931015015,0.33662083745002747,-9.779637336730957
1745650486.023887,-0.0010959954233840108,-0.005955508444458246,0.005164062138646841,-0.3408023416996002,0.4412766098976135,-9.736749649047852
1745650486.026086,0.004935867618769407,-0.0033200718462467194,0.0031008499208837748,-0.4516853392124176,0.4077486991882324,-9.787158012390137
1745650486.02749,-0.001611301675438881,-0.0064922599121928215,0.003925827331840992,-0.2959379553794861,0.4045705199241638,-9.747264862060547
1745650486.0297282,0.004616774618625641,-0.004500349052250385,0.0031433911062777042,-0.4669087529182434,0.47836142778396606,-9.761183738708496
1745650486.0670547,-9.61729310802184e-05,-0.002772900741547346,0.004558652173727751,-0.3164188861846924,0.36821284890174866,-9.736104965209961
1745650486.0698857,0.004926702473312616,-0.0059588272124528885,0.0014708733651787043,-0.415241539478302,0.5070189833641052,-9.74492073059082
1745650486.0713549,0.00482812849804759,-0.0005802818341180682,0.0006923365872353315,-0.36343705654144287,0.36552491784095764,-9.760478973388672
1745650486.0747867,0.002689319895580411,-0.0071327174082398415,0.0028061699122190475,-0.33256328105926514,0.4509710371494293,-9.738813400268555
1745650486.1104078,0.006551136262714863,9.750683966558427e-05,0.001714532496407628,-0.4409966468811035,0.37774258852005005,-9.785942077636719
1745650486.1131546,0.001341678318567574,-0.004116711672395468,0.0028771108482033014,-0.27966827154159546,0.35411709547042847,-9.756659507751465
1745650486.1163805,0.004697868600487709,-0.0019554903265088797,0.001429667347110808,-0.42991551756858826,0.4002700746059418,-9.763284683227539
1745650486.1188536,0.002772859763354063,-0.0026928610168397427,0.0014784805243834853,-0.27756407856941223,0.30614596605300903,-9.760049819946289
1745650486.15141,0.0011676064459607005,-0.0029314314015209675,0.005014774389564991,-0.383924275636673,0.3890276253223419,-9.793428421020508
1745650486.155489,0.003365548327565193,0.001976075116544962,0.0027734923642128706,-0.35121336579322815,0.3511814475059509,-9.777055740356445
1745650486.1567898,-0.0016373615944758058,-0.0034664575941860676,0.005464515648782253,-0.30506864190101624,0.355156809091568,-9.738455772399902
1745650486.1581616,0.00037008197978138924,0.0008988190675154328,0.006435834802687168,-0.40537557005882263,0.4021693766117096,-9.773113250732422
1745650486.1611493,-0.0007056983886286616,-0.001224449253641069,0.004585788119584322,-0.24580705165863037,0.3585636019706726,-9.765483856201172
1745650486.2037878,0.0005634083645418286,-0.0005958956899121404,0.004310754127800465,-0.413684219121933,0.4510551393032074,-9.779862403869629
1745650486.2038667,0.0031507876701653004,0.0009924046462401748,0.004544424824416637,-0.29450708627700806,0.3943714499473572,-9.741323471069336
1745650486.2056258,-0.002266660798341036,0.0005716877058148384,0.0013230839977040887,-0.2922515869140625,0.3083897829055786,-9.77749252319336
1745650486.2080863,-0.004537115804851055,0.0025381590239703655,0.0021961447782814503,-0.4519660472869873,0.4217893183231354,-9.783992767333984
1745650486.236275,-0.0015556674916297197,0.0026969134341925383,0.0025173320900648832,-0.30164599418640137,0.34570854902267456,-9.736879348754883
1745650486.2401762,-0.004468652419745922,0.0005134130478836596,0.0019677740056067705,-0.3997061848640442,0.4208046495914459,-9.759489059448242
1745650486.242487,-0.0001414827274857089,0.0041107116267085075,0.0004985278355889022,-0.357097327709198,0.3991967737674713,-9.795056343078613
1745650486.2499814,-0.004195448476821184,0.0015920574078336358,9.34500276343897e-05,-0.3234577476978302,0.3985889256000519,-9.79119873046875
1745650486.2500484,0.0005195946432650089,0.00425897678360343,0.0008794927853159606,-0.3984164595603943,0.44663017988204956,-9.759803771972656
1745650486.2825687,-0.00233281753025949,0.0015309912851080298,0.0011551526840776205,-0.2851007580757141,0.37346112728118896,-9.76274299621582
1745650486.2830427,-0.0016412930563092232,0.00226421607658267,-0.0006855439278297126,-0.42593199014663696,0.4420599341392517,-9.789711952209473
1745650486.2970417,0.002101877238601446,0.0040255277417600155,-0.0018621921772137284,-0.26904112100601196,0.3683266043663025,-9.768228530883789
1745650486.2971113,-0.0017177863046526909,0.0028229777235537767,-0.0021345368586480618,-0.37182530760765076,0.4074650704860687,-9.78471851348877
1745650486.3234665,0.0027339174412190914,0.006307409610599279,-0.0017274642596021295,-0.3246101140975952,0.39401304721832275,-9.761139869689941
1745650486.3272672,-0.002995504066348076,-0.000498185574542731,-0.0013736911350861192,-0.29827457666397095,0.3575158715248108,-9.780600547790527
1745650486.3287175,-0.0005886818980798125,0.004902336280792952,0.00039959169225767255,-0.37943035364151,0.3947245478630066,-9.803190231323242
1745650486.3312058,-0.0009261362138204277,0.0011183262104168534,-0.0002496447996236384,-0.23381607234477997,0.3258753716945648,-9.759130477905273
1745650486.3325045,-0.0036099739372730255,0.0030697216279804707,-0.0011792628793045878,-0.39329656958580017,0.4357142448425293,-9.790069580078125
1745650486.3691854,0.006661740597337484,0.0030733938328921795,-0.000577690196223557,-0.36734867095947266,0.385634183883667,-9.773104667663574
1745650486.3716574,-0.00038247258635237813,-0.002124518621712923,-0.00025035772705450654,-0.23295414447784424,0.4178289473056793,-9.762444496154785
1745650486.3731408,0.005154466722160578,-8.236449502874166e-05,0.000345519365509972,-0.40578508377075195,0.4630206227302551,-9.803509712219238
1745650486.4092832,-0.0009314691415056586,-0.0014411357697099447,-0.0017304746434092522,-0.2382477968931198,0.34674179553985596,-9.757362365722656
1745650486.4132044,0.005086551420390606,-0.002512497827410698,0.001329743186943233,-0.3949049413204193,0.4764620363712311,-9.767786979675293
1745650486.4168499,0.0033370614983141422,0.00034148216946050525,-1.680187415331602e-05,-0.2944825291633606,0.298613965511322,-9.797842025756836
1745650486.418582,0.0006435538525693119,-0.003370056627318263,0.0013490829151123762,-0.31569957733154297,0.4514002799987793,-9.785282135009766
1745650486.422479,0.0031123762018978596,0.0008028969168663025,-0.0006813721847720444,-0.38104990124702454,0.35210055112838745,-9.795451164245605
1745650486.4524202,6.0175079852342606e-06,-0.0032020253129303455,0.001211379305459559,-0.2620545029640198,0.4040040969848633,-9.732931137084961
1745650486.4546516,0.003181253094226122,-0.0011621408630162477,0.0024431089404970407,-0.416349321603775,0.46053433418273926,-9.80628490447998
1745650486.4623475,0.0015145728830248117,-0.0021903407759964466,0.0008657526923343539,-0.25738126039505005,0.36227238178253174,-9.76679515838623
1745650486.4624135,0.006547467317432165,-0.0010874903528019786,0.0015471682418137789,-0.38380366563796997,0.5034310817718506,-9.735383033752441
1745650486.5032783,0.005301019176840782,0.0008325990056619048,0.0019875015132129192,-0.30057650804519653,0.3764358162879944,-9.76136302947998
1745650486.5076377,0.0020552785135805607,-0.003318948205560446,-3.15038014377933e-05,-0.3408868908882141,0.48424291610717773,-9.780946731567383
1745650486.5119035,0.007982177659869194,0.0004037983308080584,0.0013270375784486532,-0.3804934620857239,0.3881584405899048,-9.782766342163086
1745650486.5205295,0.00337071530520916,-0.004667949862778187,0.0013144841650500894,-0.2794293463230133,0.4414120316505432,-9.712614059448242
1745650486.522379,0.00952412560582161,-0.0009130198741331697,-0.0015810888726264238,-0.3997704088687897,0.43132448196411133,-9.785359382629395
1745650486.5413103,0.002917868783697486,-0.0012923075119033456,0.0005520707927644253,-0.26315808296203613,0.35826486349105835,-9.768320083618164
1745650486.545961,0.009101788513362408,-0.00256789056584239,-0.0010558667127043009,-0.4131965637207031,0.479265034198761,-9.764467239379883
1745650486.5490475,0.004240449983626604,-0.0020192295778542757,0.0019840123131871223,-0.2992417812347412,0.3221455216407776,-9.768247604370117
1745650486.5555103,0.002093344461172819,-0.005191584583371878,0.00013385115016717464,-0.25825339555740356,0.3724391460418701,-9.722990036010742
1745650486.5822148,0.008294742554426193,-0.0034091647248715162,0.0010628914460539818,-0.4081508219242096,0.4883583188056946,-9.793231010437012
1745650486.5864244,0.004537547938525677,-0.0020428705029189587,0.0017016951460391283,-0.2922367453575134,0.32051998376846313,-9.782907485961914
1745650486.5908382,0.004448574036359787,-0.0035952541511505842,0.0011825381079688668,-0.34538379311561584,0.45361843705177307,-9.728760719299316
1745650486.5934992,0.007670848164707422,-0.0015242684166878462,0.0008858499932102859,-0.356417179107666,0.35199037194252014,-9.776045799255371
1745650486.6274128,9.124995995080099e-05,-0.003785158973187208,0.002198009518906474,-0.2933886647224426,0.39542847871780396,-9.779951095581055
1745650486.6285717,0.00862916000187397,7.01456592651084e-05,0.0025667082518339157,-0.42194825410842896,0.3874589502811432,-9.818487167358398
1745650486.6323745,-0.0003051699313800782,-0.003937677945941687,0.0017725389916449785,-0.26341551542282104,0.34436315298080444,-9.723551750183105
1745650486.6349807,0.003184520173817873,-0.004587092902511358,0.0018853989895433187,-0.4206269383430481,0.42702144384384155,-9.759236335754395
1745650486.6661122,0.000683542515616864,-0.002191494684666395,0.002389349974691868,-0.2981864809989929,0.3258351683616638,-9.784279823303223
1745650486.6696072,0.0011926048900932074,-0.004862835630774498,0.0028404328040778637,-0.3680056929588318,0.4619961678981781,-9.766709327697754
1745650486.6726289,0.0038331307005137205,-0.0009925129124894738,0.0027075749821960926,-0.3633565902709961,0.35658711194992065,-9.764333724975586
1745650486.6747587,-0.0015903260791674256,-0.004720111843198538,0.003393780440092087,-0.2968338429927826,0.4407576620578766,-9.760721206665039
1745650486.6777794,0.005023413337767124,-0.0011988114565610886,0.0024261309299618006,-0.4304257929325104,0.4421153962612152,-9.810755729675293
1745650486.713798,0.0005920635885559022,-0.0024520023725926876,0.004068286623805761,-0.27640366554260254,0.37534621357917786,-9.7466402053833
1745650486.7169423,0.003984624054282904,-0.003264598548412323,0.0006585602532140911,-0.42739787697792053,0.4895544946193695,-9.75419807434082
1745650486.7197573,0.00047524794354103506,-0.0026709402445703745,0.0027538719587028027,-0.32589107751846313,0.34571611881256104,-9.764313697814941
1745650486.7215981,-0.0004490895080380142,0.0038689642678946257,0.0013734938111156225,-0.4155452251434326,0.4118121564388275,-9.752862930297852
1745650486.7540276,-0.0007959214854054153,-0.0015650915447622538,0.002210067817941308,-0.26551133394241333,0.33710819482803345,-9.75838565826416
1745650486.759251,-0.0010687661124393344,-0.0009144834475591779,0.0013778361026197672,-0.44107455015182495,0.42895326018333435,-9.800572395324707
1745650486.7608545,0.0010707604233175516,0.0013265993911772966,0.0015552632976323366,-0.2779476046562195,0.3640219569206238,-9.76132869720459
1745650486.7621439,-0.0028348995838314295,-0.00020100250549148768,0.0011970594059675932,-0.38309353590011597,0.41194993257522583,-9.76850700378418
1745650486.7649577,0.00011857390927616507,0.003927753306925297,0.0024049822241067886,-0.34915992617607117,0.4069671630859375,-9.766321182250977
1745650486.799008,-0.0019402187317609787,-0.0013580246595665812,0.001566740102134645,-0.3139401078224182,0.37842124700546265,-9.7908935546875
1745650486.8040204,0.0013031045673415065,0.0030352547764778137,0.00010225000005448237,-0.400320827960968,0.4380973279476166,-9.784143447875977
1745650486.8066978,-4.782355244969949e-05,-0.00045801568194292486,0.000816072802990675,-0.2760578989982605,0.3761445879936218,-9.775040626525879
1745650486.8101146,0.0021243863739073277,0.0016043533105403185,0.0004988455912098289,-0.41062992811203003,0.4450954496860504,-9.801684379577637
1745650486.8397489,0.0023425319232046604,0.0020766002126038074,0.001401513465680182,-0.27300605177879333,0.3686775267124176,-9.762714385986328
1745650486.8426657,-0.0003602349606808275,-0.0005549729685299098,-9.669647261034697e-05,-0.36684808135032654,0.4081025719642639,-9.76586627960205
1745650486.8449807,0.004949077498167753,0.0038305181078612804,-0.00010447357635712251,-0.3343765139579773,0.3778906464576721,-9.773221015930176
1745650486.8462658,-0.0015279533108696342,-0.002921138424426317,0.0009526549838483334,-0.3188510835170746,0.37764909863471985,-9.793867111206055
1745650486.8500767,0.0006195548921823502,0.0040798005647957325,-0.0007304026512429118,-0.38867542147636414,0.41148871183395386,-9.789363861083984
1745650486.8863678,0.002070589456707239,0.00031212400062941015,0.0012139675673097372,-0.26491233706474304,0.34730422496795654,-9.761565208435059
1745650486.8887885,-0.00031528659746982157,0.0005873326444998384,-0.0008552074432373047,-0.4017767012119293,0.4351366460323334,-9.7745943069458
1745650486.8911307,0.0024344720877707005,0.0025686929002404213,4.168958548689261e-05,-0.27100688219070435,0.3674752116203308,-9.777766227722168
1745650486.8928683,-0.002968484302982688,-0.0010000837501138449,0.0009129552054218948,-0.3899894654750824,0.432289183139801,-9.792973518371582
1745650486.9257834,0.001140880980528891,-0.0008140226709656417,-0.0005400367081165314,-0.3940736651420593,0.4389978349208832,-9.788264274597168
1745650486.9288409,0.0004250461352057755,0.00033166678622365,-0.0009382517309859395,-0.24453964829444885,0.3765439987182617,-9.738062858581543
1745650486.930314,0.0001927472185343504,-0.0007182385306805372,-0.0009157367167063057,-0.39304205775260925,0.4412921071052551,-9.81145191192627
1745650486.9335191,0.0021387527231127024,0.0005730479606427252,-0.00061411241767928,-0.3025261461734772,0.3913387656211853,-9.818260192871094
1745650486.975225,-0.0014150243951007724,-0.0022341632284224033,0.001563147990964353,-0.31868836283683777,0.41768747568130493,-9.743021965026855
1745650486.980044,0.0022673795465379953,-0.0004593915364239365,-0.001643486670218408,-0.3634987473487854,0.4124622344970703,-9.769693374633789
1745650486.9801877,-0.000928463414311409,-0.002778276102617383,0.00043580244528129697,-0.26031073927879333,0.4002777934074402,-9.797625541687012
1745650486.992907,0.002656441880390048,-0.0011029636953026056,0.0008652402320876718,-0.40708452463150024,0.4633113741874695,-9.805368423461914
1745650487.0107222,-0.0014088485622778535,-0.0017160609131678939,-0.0020729750394821167,-0.24725191295146942,0.3736823499202728,-9.741401672363281
1745650487.0127165,0.002860319335013628,-0.0037271142937242985,0.00023244050680659711,-0.3818068504333496,0.4665399491786957,-9.77404499053955
1745650487.0143657,0.003163964720442891,0.0003556225565262139,-0.0005279340548440814,-0.29017776250839233,0.3691837787628174,-9.782235145568848
1745650487.0154216,-4.029693081974983e-05,-0.0025466769002377987,-0.0004847385862376541,-0.33039793372154236,0.45370906591415405,-9.785927772521973
1745650487.0176678,0.002888417337089777,-0.0018810847541317344,0.0012416541576385498,-0.3759830892086029,0.400637686252594,-9.786377906799316
1745650487.0561159,-0.001003849902190268,-0.0058222077786922455,-0.0008725604275241494,-0.2712004780769348,0.41187605261802673,-9.767311096191406
1745650487.060419,0.003720554057508707,-0.0018998857121914625,0.00048022251576185226,-0.3903951942920685,0.4290788173675537,-9.803838729858398
1745650487.0643191,0.00012556910223793238,-0.003001005155965686,0.0006781883421353996,-0.23384837806224823,0.3732062876224518,-9.741815567016602
1745650487.0659895,0.00308507913723588,-0.006955256219953299,0.0010894453153014183,-0.36859825253486633,0.45607906579971313,-9.75369644165039
1745650487.1011658,0.005807782523334026,-0.0011483685811981559,0.0018486306071281433,-0.3446161150932312,0.3732885420322418,-9.789216995239258
1745650487.1041806,0.001972384285181761,-0.007481428794562817,0.001193723757751286,-0.308881938457489,0.4459165930747986,-9.752008438110352
1745650487.1077728,0.0044376906007528305,-0.0022445758804678917,0.0022236905060708523,-0.4131793975830078,0.4044570326805115,-9.799504280090332
1745650487.1107624,0.001362527022138238,-0.007879301905632019,0.000934053969103843,-0.2668344974517822,0.3936416506767273,-9.768789291381836
1745650487.111963,0.0034241932444274426,-0.004876728169620037,0.0014828762505203485,-0.43500033020973206,0.44373345375061035,-9.773900985717773
1745650487.141799,0.0020472484175115824,-0.00385175715200603,0.0014030510792508721,-0.27361831068992615,0.3366236686706543,-9.738914489746094
1745650487.1428041,0.002528355224058032,-0.006672735325992107,0.0007854370633140206,-0.38323846459388733,0.4457002282142639,-9.767207145690918
1745650487.1449678,0.0024219914339482784,-0.0020963377319276333,0.002805969212204218,-0.33535271883010864,0.3651720881462097,-9.761129379272461
1745650487.156871,-0.0009460888686589897,-0.005327008198946714,0.0013184710405766964,-0.3206719160079956,0.42411676049232483,-9.78038215637207
1745650487.1899116,0.00575421005487442,-0.0025863780174404383,0.002409224398434162,-0.4288908839225769,0.41625648736953735,-9.812406539916992
1745650487.1930447,-0.0007982497336342931,-0.0030241250060498714,0.0026436615735292435,-0.29042625427246094,0.37433093786239624,-9.71190071105957
1745650487.1946986,0.004473969805985689,-0.004822205286473036,0.000420127238612622,-0.4261693060398102,0.4319755434989929,-9.750679016113281
1745650487.1960628,0.003785093780606985,-0.003009594278410077,0.003271412802860141,-0.29087433218955994,0.3636811375617981,-9.784242630004883
1745650487.1986527,0.0014033270999789238,-0.0049095540307462215,0.0028796519618481398,-0.40987467765808105,0.44424813985824585,-9.793707847595215
1745650487.2302952,0.003074964741244912,-0.0004872723075095564,0.002194469328969717,-0.3518018126487732,0.3684868812561035,-9.750265121459961
1745650487.2335787,0.0019987726118415594,-0.004762439522892237,0.0005157238920219243,-0.32914069294929504,0.40381932258605957,-9.751989364624023
1745650487.2375286,0.0055924067273736,-0.0014421910746023059,0.002322923857718706,-0.42227110266685486,0.40369081497192383,-9.778658866882324
1745650487.2408838,0.001088384655304253,-0.003080750349909067,0.0019366530468687415,-0.2836979329586029,0.3670341372489929,-9.764127731323242
1745650487.2723236,0.004002830013632774,-0.0014009870355948806,0.0011054581264033914,-0.42719975113868713,0.44466882944107056,-9.774415969848633
1745650487.2740834,0.005758116953074932,0.0022466988302767277,0.0008346281247213483,-0.39785799384117126,0.41400423645973206,-9.786773681640625
1745650487.2766426,-0.0005330528365448117,-0.0032622232101857662,0.0008931008051149547,-0.2878192067146301,0.380618691444397,-9.756782531738281
1745650487.2781358,0.0022867792285978794,0.00040558655746281147,0.00020274675625842065,-0.4335559904575348,0.44965681433677673,-9.758946418762207
1745650487.3216867,0.0038682285230606794,0.00012489435903262347,0.0005184414912946522,-0.27874913811683655,0.38248926401138306,-9.759181022644043
1745650487.3218844,0.0017719247844070196,-0.0008964880253188312,-0.0010847932426258922,-0.4301079213619232,0.4464426040649414,-9.792428970336914
1745650487.321977,0.004011145327240229,0.0014702973421663046,0.0005297149182297289,-0.3332403600215912,0.37923938035964966,-9.756162643432617
1745650487.3220575,-0.0012633479200303555,-0.0006002114387229085,-0.0004841486515942961,-0.35070082545280457,0.3859967887401581,-9.784562110900879
1745650487.3566072,0.004440184682607651,0.002066300017759204,0.0009728936711326241,-0.39623957872390747,0.403895765542984,-9.78111743927002
1745650487.3631294,0.00011931660264963284,-0.0024336818605661392,-0.0006356426165439188,-0.2899557650089264,0.36199039220809937,-9.760459899902344
1745650487.363435,0.0008260806789621711,0.0016753075178712606,6.376738019753247e-05,-0.44423913955688477,0.41964346170425415,-9.780531883239746
1745650487.3655922,0.002784994663670659,0.0004780564922839403,-0.0006883331225253642,-0.2735591232776642,0.35254985094070435,-9.787160873413086
1745650487.3700073,-0.0019456532318145037,0.00021423753059934825,0.0018494382966309786,-0.4225505292415619,0.4376435875892639,-9.777128219604492
1745650487.4018388,0.004197792615741491,0.003042516065761447,-0.0004222184943500906,-0.3288232684135437,0.3655828833580017,-9.779478073120117
1745650487.414471,-0.001898012706078589,-0.002825400559231639,0.000287820294033736,-0.33166348934173584,0.41622066497802734,-9.784141540527344
1745650487.4146237,0.0037570663262158632,0.0031980574131011963,0.00025860994355753064,-0.38290923833847046,0.42227014899253845,-9.764521598815918
1745650487.4147055,-0.0021094505209475756,0.00022193265613168478,-0.00024311270681209862,-0.3028936982154846,0.3943200707435608,-9.771327018737793
1745650487.4410641,0.004397616256028414,0.005127893295139074,-0.0003241599479224533,-0.3474942743778229,0.37001729011535645,-9.775758743286133
1745650487.4440117,0.0016620585229247808,-0.0023788101971149445,0.0019313048105686903,-0.3156565725803375,0.42536020278930664,-9.75910758972168
1745650487.4454784,0.005654062144458294,0.0028490042313933372,-0.0013589715817943215,-0.3950299024581909,0.4018222391605377,-9.805771827697754
1745650487.4472742,-0.001058403868228197,0.0011935296934098005,0.00043589953565970063,-0.2556866407394409,0.37308457493782043,-9.765193939208984
1745650487.4479787,0.0057602692395448685,-0.0007626358419656754,0.00019567673734854907,-0.4312640130519867,0.45787233114242554,-9.763845443725586
1745650487.4863575,0.0006191154243424535,0.002363458275794983,0.0009884496685117483,-0.2685064375400543,0.3465743958950043,-9.740559577941895
1745650487.4900987,0.0023140546400099993,-0.0012218805495649576,0.0019902861677110195,-0.3897004723548889,0.48390454053878784,-9.787727355957031
1745650487.494695,0.0027755910996347666,0.00542073929682374,0.0021835286170244217,-0.31428009271621704,0.3487332761287689,-9.81056022644043
1745650487.4970334,0.0017360957572236657,1.9903993234038353e-05,-0.0007750415243208408,-0.32090169191360474,0.4496048390865326,-9.748855590820312
1745650487.528188,0.003937725909054279,0.0017463384428992867,0.001847503357566893,-0.3894708454608917,0.38347774744033813,-9.778640747070312
1745650487.5301406,-0.0006053290562704206,-0.0013251964701339602,0.0015775610227137804,-0.268963098526001,0.3953719735145569,-9.766084671020508
1745650487.5318089,0.0067008971236646175,0.0016554476460441947,0.00039262333302758634,-0.41605138778686523,0.4583554267883301,-9.794777870178223
1745650487.5345135,-0.00047110317973420024,-0.0006178364856168628,0.0006851147627457976,-0.24291162192821503,0.34147459268569946,-9.722094535827637
1745650487.5361156,0.004278372973203659,-0.000572466233279556,0.0014952635392546654,-0.37980467081069946,0.4745806157588959,-9.767901420593262
1745650487.5797231,0.003893723711371422,0.0013111907755956054,2.8530881536426023e-05,-0.3179403245449066,0.3473530411720276,-9.825729370117188
1745650487.5797849,0.0025275941006839275,-0.003239986952394247,0.00203947676345706,-0.32652440667152405,0.4568137526512146,-9.76085376739502
1745650487.5798306,0.005659733898937702,0.0036245682276785374,0.0011702713090926409,-0.3931490480899811,0.3848002851009369,-9.746183395385742
1745650487.5798707,0.0004247360920999199,-0.0031641386449337006,0.001396571984514594,-0.26642754673957825,0.4040961265563965,-9.751235961914062
1745650487.621971,0.007107058074325323,0.0015934966504573822,0.0007704155286774039,-0.4258750379085541,0.4397849440574646,-9.828502655029297
1745650487.6222146,0.0026175573002547026,0.0013038774486631155,-0.0008208874496631324,-0.25671499967575073,0.3569146394729614,-9.766672134399414
1745650487.6227558,0.006616738624870777,-0.0007017006282694638,0.002160756615921855,-0.38891270756721497,0.46924838423728943,-9.732802391052246
1745650487.6251326,0.0011362663935869932,-0.003330985549837351,0.0010087322443723679,-0.34331950545310974,0.43372875452041626,-9.775691032409668
1745650487.6585877,0.008564305491745472,0.0022953678853809834,0.0005560737336054444,-0.3806937336921692,0.39684030413627625,-9.809013366699219
1745650487.6610782,-8.961744242697023e-06,-0.0007396697765216231,0.0026647201739251614,-0.28301697969436646,0.4079655706882477,-9.746278762817383
1745650487.66222,0.006527688354253769,-0.001414011581800878,7.496088073821738e-05,-0.4209909439086914,0.4196151793003082,-9.790283203125
1745650487.664493,0.001232303911820054,0.0007998384535312653,0.001916531822644174,-0.2581334710121155,0.3719937801361084,-9.7745361328125
1745650487.66614,0.00395189318805933,-0.0002085374726448208,0.0013414329150691628,-0.40749305486679077,0.4542650580406189,-9.780543327331543
1745650487.704279,0.0039941249415278435,0.0015487782657146454,-0.0006760645774193108,-0.3029332160949707,0.345725953578949,-9.751307487487793
1745650487.7060046,0.002378156641498208,-0.0008511276100762188,0.003363137599080801,-0.3340863883495331,0.4613935053348541,-9.768216133117676
1745650487.7087147,0.004052434582263231,0.0037519452162086964,0.0012431720970198512,-0.37829527258872986,0.3953416347503662,-9.813494682312012
1745650487.7098138,0.0017693182453513145,-0.00173795479349792,0.000504941213876009,-0.27972063422203064,0.39766615629196167,-9.785011291503906
1745650487.7454808,0.005111109931021929,-0.001093184226192534,0.0004945308901369572,-0.41841524839401245,0.4244620203971863,-9.768519401550293
1745650487.748224,0.002314711455255747,0.000902014144230634,0.002084296429529786,-0.2515215277671814,0.3634002208709717,-9.751569747924805
1745650487.751655,0.004395009018480778,-0.0008579595014452934,-0.000586413370911032,-0.41316843032836914,0.43288975954055786,-9.804014205932617
1745650487.754102,0.004056128673255444,0.0016125524416565895,0.0021324895787984133,-0.29176512360572815,0.3686179220676422,-9.776200294494629
1745650487.7857692,0.0015769379679113626,-0.003026682185009122,0.0013731718063354492,-0.3380293846130371,0.42797213792800903,-9.745550155639648
1745650487.790742,0.0010464814258739352,0.000753366039134562,0.0010874764993786812,-0.32349225878715515,0.3919258117675781,-9.811856269836426
1745650487.7940931,0.004456359427422285,0.004775581415742636,0.002831305842846632,-0.39912164211273193,0.4304308295249939,-9.770039558410645
1745650487.798747,0.0008160768775269389,0.0024236051831394434,0.0011556947138160467,-0.266834020614624,0.3526011109352112,-9.750936508178711
1745650487.8281627,0.0036775064654648304,0.0024652727879583836,9.664105891715735e-05,-0.405630886554718,0.4541027545928955,-9.792950630187988
1745650487.8307958,0.0029061250388622284,0.002175512257963419,0.001451279385946691,-0.2671962380409241,0.3532927930355072,-9.770498275756836
1745650487.8343124,-0.0006834314553998411,0.0021758705843240023,-4.054983219248243e-05,-0.3785868287086487,0.41207975149154663,-9.775900840759277
1745650487.839494,0.004348054528236389,0.006137737538665533,0.002936124801635742,-0.3461114168167114,0.4051200747489929,-9.776322364807129
1745650487.874697,0.0019581508822739124,0.001484517240896821,-0.0009579501929692924,-0.29330000281333923,0.39631232619285583,-9.776304244995117
1745650487.8778536,0.0033259291667491198,0.003920109011232853,0.0030916202813386917,-0.3918221592903137,0.4015476107597351,-9.768288612365723
1745650487.8823504,0.0007058649207465351,0.0020711920224130154,-0.0005297039751894772,-0.27438658475875854,0.367199182510376,-9.761828422546387
1745650487.887286,0.0015663631493225694,0.0018670816207304597,0.0023056180216372013,-0.42047223448753357,0.43907085061073303,-9.779378890991211
1745650487.8898034,0.002995253773406148,0.00456868065521121,0.0011633780086413026,-0.277576744556427,0.3482510447502136,-9.790444374084473
1745650487.9161232,0.0017318794270977378,0.0005722345085814595,-0.0010743160964921117,-0.3699270784854889,0.4328771233558655,-9.777639389038086
1745650487.9176261,0.004535411484539509,0.005671561695635319,-0.0002810086007229984,-0.31855955719947815,0.3787318170070648,-9.743661880493164
1745650487.9194307,0.0012829781044274569,-0.0002877062652260065,0.0014521402772516012,-0.3129030168056488,0.40983647108078003,-9.771807670593262
1745650487.921549,0.003592402907088399,0.003987719304859638,-0.00251996167935431,-0.4034627079963684,0.4098154604434967,-9.782519340515137
1745650487.9589784,0.00044770288513973355,-0.0005197274731472135,0.0008247277582995594,-0.2633574903011322,0.3636360466480255,-9.744606018066406
1745650487.9609606,0.004278088454157114,0.0027122930623590946,0.001163272769190371,-0.4096882939338684,0.43257230520248413,-9.778729438781738
1745650487.963127,0.0010894166771322489,0.0022398370783776045,0.0010899510234594345,-0.27578431367874146,0.35333502292633057,-9.768257141113281
1745650487.964841,0.0014177985722199082,-0.0008558277040719986,-0.0005270560504868627,-0.379418283700943,0.4100492596626282,-9.78083610534668
1745650487.9664233,0.0036254674196243286,0.005736745893955231,-0.0003723644185811281,-0.3014569580554962,0.38638997077941895,-9.76756763458252
1745650488.0022802,-0.00035792612470686436,-0.0029745108913630247,0.0005656654248014092,-0.3141818046569824,0.45038843154907227,-9.763620376586914
1745650488.004948,0.00455253291875124,0.0048949578776955605,-0.0007644672878086567,-0.3601444363594055,0.3933261036872864,-9.792829513549805
1745650488.0089488,0.00020795644377358258,0.0004242950235493481,0.00022669350437354296,-0.262305349111557,0.3925688862800598,-9.764408111572266
1745650488.0133975,0.0038928743451833725,-0.00037455130950547755,2.831779420375824e-05,-0.40306180715560913,0.4426901936531067,-9.757037162780762
1745650488.046228,0.0015390240587294102,-7.48787060729228e-05,0.0009712278842926025,-0.24193111062049866,0.3408277630805969,-9.749235153198242
1745650488.048259,0.002713816473260522,0.0005984054878354073,-0.0017707441002130508,-0.3889256417751312,0.4797453284263611,-9.78611946105957
1745650488.0515964,0.003668935503810644,0.0033625084906816483,0.0016760578146204352,-0.28818461298942566,0.3427513539791107,-9.766871452331543
1745650488.0610862,-0.00041806092485785484,-0.0037101581692695618,-0.00022779051505494863,-0.3282102644443512,0.46358785033226013,-9.748162269592285
1745650488.0894575,0.005270292051136494,0.0015870515489950776,-0.0002306115347892046,-0.35360464453697205,0.37857717275619507,-9.782106399536133
1745650488.0910885,0.0002893237688113004,-0.003086517099291086,0.0005942053394392133,-0.28036797046661377,0.42772817611694336,-9.739397048950195
1745650488.0943334,0.005559243261814117,0.0010213808855041862,-0.0003693720209412277,-0.4014121890068054,0.42716044187545776,-9.786175727844238
1745650488.096652,-0.00011530755728017539,-0.0007322215242311358,0.0005746103124693036,-0.24002785980701447,0.3573540151119232,-9.756258010864258
1745650488.1298134,0.0060046701692044735,-0.0008913764613680542,-3.2844022825884167e-06,-0.39056363701820374,0.4780159592628479,-9.767552375793457
1745650488.1345813,0.0014449224108830094,9.02745669009164e-05,0.0011329088592901826,-0.27498576045036316,0.3352521061897278,-9.760156631469727
1745650488.1408107,0.000990354223176837,-0.00602342514321208,-0.00829971395432949,-0.0700017586350441,0.14213190972805023,-10.08686637878418
1745650488.1460245,0.006616936530917883,-0.010351108387112617,-0.008479918353259563,-0.2831248939037323,0.6722284555435181,-10.106691360473633
1745650488.1731684,-0.004861024208366871,0.008926204405725002,-0.010682517662644386,-0.6502701044082642,0.6042503118515015,-9.660133361816406
1745650488.1757698,0.011995194479823112,0.0007764830952510238,-0.009153592400252819,-0.07922935485839844,0.2418634444475174,-9.219253540039062
1745650488.1775603,0.011090668849647045,-0.009469309821724892,-0.009073919616639614,-0.2800631523132324,0.6501933932304382,-9.85756778717041
1745650488.1812234,-0.009901020675897598,-0.0037728913594037294,-0.00865177996456623,-0.304621160030365,-0.09973964095115662,-10.59616756439209
1745650488.1818721,0.018123652786016464,0.00026796237216331065,-0.0050494917668402195,-0.34894925355911255,0.40370073914527893,-9.6989164352417
1745650488.220128,-0.004124310798943043,-0.006145622115582228,0.002946545835584402,-0.2767362594604492,0.2865305542945862,-9.125043869018555
1745650488.2235093,0.006594746373593807,-0.017442237585783005,0.00444820849224925,-0.3686487674713135,0.379804790019989,-9.834962844848633
1745650488.2255025,0.007657146546989679,0.0011419255752116442,0.0027926494367420673,-0.48470038175582886,0.2445874959230423,-10.286592483520508
1745650488.2269447,0.0020538626704365015,0.0031436558347195387,0.004443707875907421,-0.09564993530511856,0.27982455492019653,-9.551168441772461
1745650488.2631328,-0.004124862607568502,-0.00893276184797287,0.0037943231873214245,-0.21334874629974365,0.5467419624328613,-9.366007804870605
1745650488.2663193,0.019655268639326096,-0.0034938014578074217,-0.00424839835613966,-0.15628355741500854,0.7315124273300171,-9.853860855102539
1745650488.271009,0.020719388499855995,0.008717754855751991,-0.008886555209755898,-0.169110506772995,0.6882994174957275,-9.974960327148438
1745650488.2739394,0.030898500233888626,0.011799097992479801,-0.011825819499790668,-0.13789300620555878,0.3589687645435333,-9.588423728942871
1745650488.277607,0.031132573261857033,-0.004011544398963451,-0.012722885236144066,-0.06025822088122368,0.35655465722084045,-9.53203296661377
1745650488.3107662,0.022872570902109146,0.0007181331748142838,-0.015233496204018593,-0.4940071702003479,0.14779449999332428,-10.084007263183594
1745650488.3108258,-0.006602102424949408,0.0018313595792278647,-0.01881677471101284,-0.22296111285686493,0.0600242018699646,-10.131316184997559
1745650488.3108685,0.011946496553719044,-0.004022486507892609,-0.019630709663033485,-0.16093039512634277,0.4810923635959625,-9.722620964050293
1745650488.3139029,-0.005077177193015814,0.0008428995497524738,-0.021499376744031906,-0.2560149133205414,0.4748536944389343,-9.668388366699219
1745650488.3479724,0.022301936522126198,0.010208294726908207,-0.030226558446884155,-0.19042932987213135,0.701327919960022,-9.435554504394531
1745650488.3543239,0.03244075924158096,0.03110627830028534,-0.04754488915205002,-0.21475455164909363,0.1332486867904663,-9.0028076171875
1745650488.3566043,0.013401597738265991,0.02320786938071251,-0.05447389930486679,0.11452666670084,0.07159875333309174,-9.477733612060547
1745650488.358217,0.021359940990805626,0.03491600975394249,-0.06187226250767708,0.22102908790111542,0.3532405495643616,-10.286867141723633
1745650488.3906386,-0.00875395443290472,0.04856417700648308,-0.06856071949005127,0.13103707134723663,0.06358166038990021,-10.006975173950195
1745650488.3934624,0.0027300924994051456,0.05242269113659859,-0.07094158232212067,-0.13024282455444336,0.3901667296886444,-8.998002052307129
1745650488.4039958,-0.0007799898739904165,0.051287032663822174,-0.07231771945953369,0.17134396731853485,0.11420111358165741,-9.368555068969727
1745650488.4040515,-0.014550398103892803,0.04194226115942001,-0.0689508244395256,0.19097331166267395,-0.14250874519348145,-10.427610397338867
1745650488.4326787,-0.005405818112194538,0.04367399588227272,-0.06263123452663422,0.23460984230041504,-0.07470252364873886,-10.550654411315918
1745650488.4361024,-0.041831497102975845,0.03773326426744461,-0.06028253585100174,-0.002708566142246127,0.3237062096595764,-9.965055465698242
1745650488.4400527,-0.0074753002263605595,0.042865268886089325,-0.06370509415864944,-0.2766912877559662,0.6766759157180786,-9.296119689941406
1745650488.4428732,0.00776301184669137,0.05709611624479294,-0.07286440581083298,-0.1259356439113617,1.196058988571167,-8.966059684753418
1745650488.4462335,0.02644716575741768,0.055154670029878616,-0.0862654596567154,-0.007418280933052301,0.8048307299613953,-9.513479232788086
1745650488.478107,0.04985545948147774,0.054744672030210495,-0.0891265720129013,0.1694028079509735,0.5447232127189636,-10.343378067016602
1745650488.482542,0.05486872047185898,0.0683000311255455,-0.09287779033184052,-0.006555494852364063,0.6973688006401062,-10.234732627868652
1745650488.4901233,0.08391636610031128,0.08657298237085342,-0.09763824939727783,-0.03312378376722336,0.8402536511421204,-9.297880172729492
1745650488.4901736,0.05920396372675896,0.12568247318267822,-0.1378989964723587,-0.1890953779220581,-1.3472305536270142,-8.084962844848633
1745650488.5199785,-0.046030882745981216,0.14264193177223206,-0.13922590017318726,-0.42761898040771484,-0.37321895360946655,-8.209233283996582
1745650488.5231616,-0.021589860320091248,0.16364407539367676,-0.1700069010257721,0.3343237638473511,1.683675765991211,-9.408308029174805
1745650488.5274065,0.01311251800507307,0.18016371130943298,-0.2134740799665451,1.2913786172866821,1.711025595664978,-9.858726501464844
1745650488.5296364,0.04919698089361191,0.1568015217781067,-0.23342260718345642,0.4678290784358978,1.6810119152069092,-9.706806182861328
1745650488.5605125,0.10563162714242935,0.1519537717103958,-0.22794708609580994,-0.4977555274963379,0.4227292537689209,-10.521683692932129
1745650488.5710304,0.17027418315410614,0.19922205805778503,-0.19365157186985016,-0.4028758406639099,-0.9264200925827026,-10.063594818115234
1745650488.5711048,0.052239567041397095,0.1727481633424759,-0.16198088228702545,0.905081570148468,-1.2375643253326416,-8.889066696166992
1745650488.5715063,0.05096494406461716,0.12356599420309067,-0.16083213686943054,0.8680371046066284,-0.4247077405452728,-9.89866828918457
1745650488.5725515,0.026715051382780075,0.17386773228645325,-0.19935919344425201,0.656889796257019,2.6366772651672363,-10.56482982635498
1745650488.608018,0.16578659415245056,0.19255831837654114,-0.24100008606910706,0.15971510112285614,2.420593023300171,-8.842669486999512
1745650488.6102118,0.14485692977905273,0.20488624274730682,-0.257089227437973,0.32234129309654236,0.9404557347297668,-7.962150573730469
1745650488.6144202,0.1036238819360733,0.15899407863616943,-0.25096434354782104,0.4951283037662506,-0.7392033338546753,-10.126523971557617
1745650488.6175675,0.15854838490486145,0.18678638339042664,-0.23043648898601532,-0.4528038501739502,0.09608738869428635,-11.733633041381836
1745650488.6509936,0.2368771731853485,0.21801607310771942,-0.23653563857078552,-0.576850414276123,2.281773805618286,-9.314241409301758
1745650488.6532896,0.31422367691993713,0.16541476547718048,-0.2731129229068756,-0.27086833119392395,3.4516594409942627,-7.607911109924316
1745650488.6552668,0.4501766264438629,0.18343889713287354,-0.3016678988933563,-0.051079560071229935,2.643144130706787,-10.308370590209961
1745650488.6565194,0.5904678106307983,0.22590012848377228,-0.3209875524044037,0.2537066340446472,1.899354338645935,-10.980860710144043
1745650488.6565723,0.5152294039726257,0.21727339923381805,-0.30841153860092163,0.9324277639389038,-2.56697940826416,-8.580952644348145
1745650488.6931832,0.4790758490562439,0.18730561435222626,-0.27907127141952515,1.2167459726333618,-2.3341660499572754,-8.359258651733398
1745650488.6962335,0.2645135521888733,0.171492338180542,-0.2543031573295593,1.1887985467910767,-3.2856521606445312,-11.955560684204102
1745650488.7004144,0.11181644350290298,0.25263848900794983,-0.2926264703273773,0.323066771030426,0.5504205822944641,-10.15994930267334
1745650488.7071016,0.13159838318824768,0.2359122931957245,-0.3064934015274048,1.6463069915771484,1.1162092685699463,-10.17857551574707
1745650488.734113,0.16299928724765778,0.22717523574829102,-0.3181653618812561,0.520645260810852,0.6037763357162476,-10.40263843536377
1745650488.7388964,0.16350199282169342,0.26930350065231323,-0.32575851678848267,-0.5447848439216614,0.17038071155548096,-9.55553150177002
1745650488.7430065,0.07708011567592621,0.26772767305374146,-0.3337608575820923,0.698528528213501,-0.6268476247787476,-8.161356925964355
1745650488.745253,0.07215075194835663,0.2482621669769287,-0.3423861861228943,0.9075247645378113,-0.45065197348594666,-9.422868728637695
1745650488.7753458,0.03310360759496689,0.26171863079071045,-0.3472388684749603,1.220822811126709,0.7242890000343323,-11.202960014343262
1745650488.7787971,0.09090736508369446,0.26505956053733826,-0.3545415997505188,0.636237621307373,0.42784538865089417,-10.21701717376709
1745650488.7794476,0.1378403604030609,0.26710963249206543,-0.348872572183609,0.27462995052337646,0.27023500204086304,-8.225354194641113
1745650488.7808466,0.1335773766040802,0.25174766778945923,-0.3336074650287628,0.7252833247184753,-0.20426180958747864,-9.42641544342041
1745650488.7828581,0.14309057593345642,0.2570232152938843,-0.33409640192985535,0.19538788497447968,0.15521137416362762,-11.562753677368164
1745650488.8218381,0.25909385085105896,0.2554786801338196,-0.34370526671409607,0.4931468069553375,1.3861507177352905,-9.920373916625977
1745650488.8249345,0.28967881202697754,0.21708211302757263,-0.36627471446990967,0.3391883969306946,2.308584690093994,-8.811201095581055
1745650488.82988,0.34329748153686523,0.21267671883106232,-0.37567394971847534,-0.05236183851957321,-0.002508804202079773,-10.841901779174805
1745650488.833059,0.42173099517822266,0.26375025510787964,-0.37590232491493225,0.36879342794418335,0.22118616104125977,-9.945603370666504
1745650488.8627229,-0.0028249863535165787,0.1008726954460144,-0.42863377928733826,1.0434070825576782,-0.8371661305427551,-10.409461975097656
1745650488.869352,0.00924843829125166,0.08761568367481232,-0.4250827431678772,0.9435049891471863,-0.7126268148422241,-9.214332580566406
1745650488.8694246,0.0028322525322437286,0.08486392349004745,-0.416073739528656,0.5973058342933655,0.011752462014555931,-9.316221237182617
1745650488.8744764,0.05603618547320366,0.08395104110240936,-0.41298991441726685,0.8314768671989441,0.014258719980716705,-10.269947052001953
1745650488.875197,0.1163150817155838,0.08380542695522308,-0.4156823754310608,0.8445218801498413,0.7412451505661011,-10.08473014831543
1745650488.9107246,0.13527584075927734,0.07258137315511703,-0.4168568551540375,0.687711238861084,0.057077229022979736,-9.82958984375
1745650488.911371,0.18188683688640594,0.06391465663909912,-0.4187600016593933,0.7479013204574585,0.24592001736164093,-9.54178237915039
1745650488.9153337,0.1680837720632553,0.05823301151394844,-0.42781752347946167,0.7391294240951538,-0.4260544180870056,-9.850167274475098
1745650488.9177098,0.14542217552661896,0.04771748557686806,-0.4273260533809662,1.3054893016815186,-0.8000966906547546,-10.229097366333008
1745650488.9495616,0.10854180157184601,0.035634804517030716,-0.4306914210319519,1.3302104473114014,-0.7789899110794067,-10.276640892028809
1745650488.9530108,0.07576640695333481,0.02176341414451599,-0.4316224157810211,1.2881461381912231,-1.1759649515151978,-9.940231323242188
1745650488.9536135,0.03159826993942261,0.016901496797800064,-0.4299362599849701,1.179042935371399,-0.7750493288040161,-9.67802619934082
1745650488.955883,0.020961280912160873,0.0017282884800806642,-0.4297991693019867,1.220710039138794,-0.8043960332870483,-10.021843910217285
1745650488.9915395,0.03356523439288139,-0.007924149744212627,-0.4276084005832672,0.8150982856750488,-0.2635391652584076,-10.2245454788208
1745650488.9941952,0.040181081742048264,-0.0020377538166940212,-0.42300692200660706,0.4087379574775696,-0.23094041645526886,-9.934389114379883
1745650488.9952447,0.07492833584547043,-0.014088856987655163,-0.42116183042526245,0.483501136302948,-0.010569046251475811,-9.277997970581055
1745650488.9967065,0.09321490675210953,-0.02136753499507904,-0.4237627387046814,0.3548371195793152,0.13175949454307556,-9.620582580566406
1745650488.9999678,0.10773871839046478,-0.017644139006733894,-0.4253442883491516,0.7594190239906311,-0.2520931363105774,-10.279592514038086
1745650489.0377333,0.11507616192102432,-0.019945982843637466,-0.426669180393219,0.829975426197052,-0.22471627593040466,-9.95519733428955
1745650489.0403652,0.10494265705347061,-0.02914348803460598,-0.4294312596321106,1.0155547857284546,-0.7951052784919739,-9.449714660644531
1745650489.0421026,0.06426282227039337,-0.042870063334703445,-0.42537179589271545,1.2449061870574951,-0.825790524482727,-9.70606517791748
1745650489.0462277,0.1365744173526764,-0.08832541108131409,-0.41606631875038147,1.0285701751708984,-0.722192108631134,-10.345634460449219
1745650489.0803776,0.1428224891424179,-0.09260161221027374,-0.4123171865940094,0.9896159172058105,-0.6929391622543335,-10.140704154968262
1745650489.0825725,0.10275609791278839,-0.09837223589420319,-0.4112718105316162,0.9987285733222961,-0.8451898694038391,-9.655820846557617
1745650489.0858643,0.07945995032787323,-0.11312101036310196,-0.41240543127059937,0.8266273736953735,-0.8378124237060547,-9.77631950378418
1745650489.0898948,0.06276459246873856,-0.11020562797784805,-0.41203752160072327,0.7202450037002563,-0.7915424108505249,-10.06721305847168
1745650489.12238,0.03291251137852669,-0.11327657848596573,-0.4132000803947449,0.6476157903671265,-0.5580319166183472,-9.847349166870117
1745650489.1270173,0.01611003279685974,-0.12236827611923218,-0.4114963114261627,0.2935422360897064,-0.7030466198921204,-9.766518592834473
1745650489.1277022,0.02402937412261963,-0.12010377645492554,-0.4051990509033203,0.30779120326042175,-0.2685479521751404,-9.647000312805176
1745650489.128538,0.036057595163583755,-0.12269117683172226,-0.4050391614437103,0.31227532029151917,-0.09127181023359299,-9.691625595092773
1745650489.1315808,0.062449414283037186,-0.12094974517822266,-0.4007989466190338,0.5841360092163086,-0.11191938072443008,-9.891738891601562
1745650489.166641,0.08382338285446167,-0.12847797572612762,-0.39641278982162476,0.5950900316238403,0.05514425039291382,-9.966104507446289
1745650489.1796143,0.11547918617725372,-0.1283574402332306,-0.3933006823062897,0.6247654557228088,-0.2743847966194153,-9.944275856018066
1745650489.1796708,0.11616889387369156,-0.13228461146354675,-0.3854835331439972,0.5669240355491638,-0.38977178931236267,-9.698325157165527
1745650489.1814537,0.12023337930440903,-0.13748209178447723,-0.38204190135002136,0.57014399766922,-0.6495129466056824,-9.806876182556152
1745650489.2059586,0.10097002983093262,-0.14264559745788574,-0.37673047184944153,0.672938346862793,-0.4160735607147217,-10.0285005569458
1745650489.210551,-0.0032835453748703003,-0.1546086072921753,-0.280364453792572,0.3578622043132782,-0.7014043927192688,-9.64735221862793
1745650489.212768,-0.0021414700895547867,-0.14190970361232758,-0.2764716148376465,0.36667901277542114,-0.21303319931030273,-10.547317504882812
1745650489.216345,0.029819583520293236,-0.1272379457950592,-0.274664968252182,0.036334529519081116,0.07113559544086456,-10.052066802978516
1745650489.2502484,0.05155522748827934,-0.12749531865119934,-0.2745267152786255,-0.016111548990011215,-0.03807350620627403,-8.938940048217773
1745650489.252866,0.0633947029709816,-0.12792737782001495,-0.27287954092025757,0.1013033390045166,-0.12645094096660614,-9.291044235229492
1745650489.2529247,0.0492786169052124,-0.12866391241550446,-0.2642098069190979,0.16183921694755554,-0.8000494241714478,-10.659405708312988
1745650489.2539635,0.08438904583454132,-0.10327643156051636,-0.25581151247024536,0.02064758911728859,-0.6486320495605469,-10.09046745300293
1745650489.2561374,0.04529733583331108,-0.10009999573230743,-0.24703064560890198,0.18028827011585236,-0.8704236745834351,-8.949457168579102
1745650489.2939467,0.025188934057950974,-0.12286998331546783,-0.24148163199424744,0.5279729962348938,-0.954548716545105,-9.447576522827148
1745650489.2992318,0.012689746916294098,-0.11127828061580658,-0.2402750700712204,0.4900270402431488,-0.5417288541793823,-10.647768020629883
1745650489.301964,-0.029583249241113663,-0.09745575487613678,-0.2394954413175583,0.265522301197052,-0.9187399744987488,-10.4423189163208
1745650489.306141,-0.0042397379875183105,-0.09755541384220123,-0.23552629351615906,0.029632732272148132,-0.6375290751457214,-8.950067520141602
1745650489.3392608,-0.0651637613773346,-0.09962482750415802,-0.22430798411369324,0.24984188377857208,-0.9656111001968384,-9.14289665222168
1745650489.3426232,-0.04550820589065552,-0.10510613024234772,-0.2111233025789261,0.34225568175315857,-0.6965981721878052,-10.473844528198242
1745650489.3464844,-0.037525393068790436,-0.0722566470503807,-0.2007162868976593,0.22267651557922363,-0.44005483388900757,-10.367900848388672
1745650489.356618,-0.04290144518017769,-0.07358122617006302,-0.1922570914030075,0.4014706611633301,-0.4615902900695801,-9.015708923339844
1745650489.3803225,-0.03309102728962898,-0.08175500482320786,-0.18281102180480957,0.5816460251808167,-0.33106154203414917,-9.132030487060547
1745650489.385981,-0.03913497179746628,-0.07992644608020782,-0.17547759413719177,0.9028187990188599,-0.49063292145729065,-10.502750396728516
1745650489.3885202,-0.028617840260267258,-0.05083400011062622,-0.1673928052186966,0.40865039825439453,-0.47345679998397827,-10.562753677368164
1745650489.3932066,-0.04879504442214966,-0.04510319605469704,-0.15790292620658875,0.4732421338558197,-0.6683697700500488,-8.977949142456055
1745650489.3965082,-0.05857456475496292,-0.06374867260456085,-0.14749887585639954,0.5976244807243347,-0.30100274085998535,-8.769691467285156
1745650489.4264343,-0.08605079352855682,0.027987491339445114,-0.07683907449245453,0.4723441004753113,-0.912041187286377,-10.722667694091797
1745650489.4264898,-0.10491571575403214,0.024989286437630653,-0.0694817453622818,0.5051186680793762,-0.9895397424697876,-9.143964767456055
1745650489.4278111,-0.14187829196453094,0.02344195358455181,-0.06450028717517853,0.3481455147266388,-0.7666995525360107,-8.876548767089844
1745650489.4278681,-0.1690664142370224,0.024317603558301926,-0.053459785878658295,0.5421918630599976,-0.9708265066146851,-10.310064315795898
1745650489.4673717,-0.15649978816509247,0.04125566780567169,-0.042660873383283615,0.4584221839904785,-0.2556114196777344,-10.358444213867188
1745650489.4702566,-0.1516438126564026,0.05056218057870865,-0.03519149869680405,0.4367886483669281,-0.21795403957366943,-9.299259185791016
1745650489.4743485,-0.1333945244550705,0.03868139535188675,-0.027388686314225197,0.41068005561828613,0.09165467321872711,-9.089925765991211
1745650489.4789083,-0.10216806828975677,0.0503467433154583,-0.02179376408457756,0.4333415925502777,0.0693037137389183,-10.096277236938477
1745650489.4818528,-0.08916156738996506,0.06266698986291885,-0.020228832960128784,0.4786793291568756,0.04404769837856293,-10.209600448608398
1745650489.5095186,-0.0719052255153656,0.06685259938240051,-0.012836432084441185,0.16150009632110596,-0.17509737610816956,-9.437177658081055
1745650489.5130446,-0.0804220661520958,0.06340347230434418,-0.006147656589746475,0.5323678255081177,-0.3750430643558502,-9.067384719848633
1745650489.5211406,-0.08646135032176971,0.07059957087039948,-0.0002603473258204758,0.49277323484420776,-0.3552388548851013,-9.858623504638672
1745650489.5211885,-0.08589855581521988,0.08203403651714325,0.005901171825826168,0.6103319525718689,-0.5682240724563599,-10.202028274536133
1745650489.5512438,-0.10770441591739655,0.0718640387058258,0.007333728019148111,0.7615196108818054,-0.06679137051105499,-9.702573776245117
1745650489.5544682,-0.0955127477645874,0.05133510380983353,-0.003586646867915988,0.28753605484962463,-0.05755303427577019,-9.703598022460938
1745650489.5589533,-0.18355122208595276,0.016236117109656334,-0.018198668956756592,0.18162782490253448,0.4804562032222748,-11.13241195678711
1745650489.5609524,-0.07525618374347687,0.03513828292489052,-0.011731432750821114,-0.5004851818084717,0.40646499395370483,-9.833526611328125
1745650489.5938091,-0.09194841235876083,0.047694992274045944,-0.013236494734883308,-0.44813209772109985,0.7711567878723145,-7.966631889343262
1745650489.5967941,-0.07059963047504425,0.008495619520545006,-0.031078193336725235,0.2674058973789215,0.6667728424072266,-9.243412971496582
1745650489.5984817,-0.03904334828257561,0.026819756254553795,-0.053319402039051056,0.4752160608768463,1.01143217086792,-11.394373893737793
1745650489.6019332,-0.06740495562553406,0.05085631087422371,-0.07310006767511368,0.46884170174598694,0.18799583613872528,-10.25538444519043
1745650489.602677,-0.0675932765007019,0.027472108602523804,-0.07530642300844193,0.93342524766922,-0.8950129747390747,-8.156461715698242
1745650489.6394887,-0.13976964354515076,0.005196259822696447,-0.06542430818080902,0.9679768681526184,-0.7483339905738831,-9.386414527893066
1745650489.6428347,-0.15183837711811066,0.019588682800531387,-0.047915149480104446,0.8259409070014954,-1.2312058210372925,-11.646919250488281
1745650489.6456165,-0.12409905344247818,0.037758972495794296,-0.03948851674795151,0.3279036283493042,0.23485252261161804,-10.042012214660645
1745650489.646742,-0.11502987146377563,0.023239780217409134,-0.03994801640510559,0.07209688425064087,0.3104160726070404,-8.088988304138184
1745650489.6869001,-0.08881339430809021,-0.0032527807634323835,-0.04812033474445343,0.0011930108303204179,0.8032600283622742,-9.275369644165039
1745650489.6870043,-0.048154860734939575,0.01744570955634117,-0.06471974402666092,-0.25913506746292114,0.9146522283554077,-11.274737358093262
1745650489.6870546,-0.013794353231787682,0.038417331874370575,-0.07656214386224747,-0.09538711607456207,0.08691665530204773,-10.028916358947754
1745650489.6894004,-0.046739790588617325,0.023723985999822617,-0.07344239205121994,-0.029766926541924477,-0.4819788932800293,-8.251511573791504
1745650489.7226832,-0.07739542424678802,0.009573954157531261,-0.06994064152240753,0.8028966188430786,-1.0039236545562744,-9.47038745880127
1745650489.7312324,-0.11324267089366913,0.017934758216142654,-0.06553502380847931,1.1245454549789429,-0.7002814412117004,-11.16755485534668
1745650489.7324035,-0.13629069924354553,0.0334332101047039,-0.0667734295129776,0.9517844915390015,-0.5479742288589478,-10.4037446975708
1745650489.735521,-0.1456061154603958,0.024048659950494766,-0.07130363583564758,1.1565871238708496,0.0009756319341249764,-8.435983657836914
1745650489.7391872,-0.16701377928256989,-0.0038213066291064024,-0.07815145701169968,0.7107493281364441,0.340451180934906,-9.49946403503418
1745650489.7683291,-0.12865900993347168,0.016050955280661583,-0.08578212559223175,0.5485110878944397,0.4232298731803894,-11.221357345581055
1745650489.7813475,-0.0745934396982193,0.031144332140684128,-0.11778037250041962,0.3267175555229187,0.22878751158714294,-8.962615966796875
1745650489.782856,-0.11272456496953964,0.022145351395010948,-0.12859782576560974,0.21995458006858826,0.08565755188465118,-9.213529586791992
1745650489.7855966,-0.07681582123041153,0.03005249798297882,-0.13465271890163422,0.36503130197525024,0.4711381793022156,-10.362075805664062
1745650489.8077369,-0.061533041298389435,0.035131730139255524,-0.1403510719537735,0.32273775339126587,0.47011518478393555,-10.445920944213867
1745650489.810157,-0.01617365889251232,0.03572431951761246,-0.13701052963733673,0.5003294348716736,0.30155935883522034,-9.461688995361328
1745650489.8121715,0.0028157667256891727,0.03571987897157669,-0.13186022639274597,0.32188156247138977,0.3858809471130371,-9.210138320922852
1745650489.813412,0.03747759014368057,0.032184623181819916,-0.1291503608226776,0.7377159595489502,0.10345019400119781,-9.908935546875
1745650489.8156176,0.04577392339706421,0.03422227501869202,-0.13008800148963928,0.7268916964530945,0.510574460029602,-10.192049026489258
1745650489.8547518,0.05465354770421982,0.044211793690919876,-0.1372777670621872,0.5887659192085266,0.043422676622867584,-9.907793045043945
1745650489.8568628,0.05387948080897331,0.03326023370027542,-0.14888814091682434,0.5817440748214722,0.3846919536590576,-9.347555160522461
1745650489.8582976,0.02425956353545189,0.031024396419525146,-0.15698106586933136,0.43848252296447754,-0.06344616413116455,-9.827104568481445
1745650489.8596203,0.018810298293828964,0.03610381856560707,-0.16366149485111237,0.6875067949295044,-0.2597583830356598,-10.160465240478516
1745650489.8957932,0.0023071973118931055,0.03745581954717636,-0.16402027010917664,0.4436483383178711,-0.12056080996990204,-9.835463523864746
1745650489.8994954,-0.004395703785121441,0.038928475230932236,-0.1637132614850998,0.5096648931503296,-0.34073320031166077,-9.481440544128418
1745650489.9032824,0.0038169503677636385,0.03451690822839737,-0.1609632968902588,0.5075596570968628,0.19269099831581116,-9.543436050415039
1745650489.9088204,0.14317744970321655,0.021832408383488655,-0.24188771843910217,0.8643913269042969,0.0015920981531962752,-9.891042709350586
1745650489.9406054,0.14826717972755432,0.019931768998503685,-0.2474159300327301,0.6908581256866455,0.16336777806282043,-9.768545150756836
1745650489.9428391,0.1435864269733429,0.019768059253692627,-0.25185540318489075,0.718476414680481,-0.34154683351516724,-9.780781745910645
1745650489.9472425,0.13920858502388,0.015020755119621754,-0.25820422172546387,0.767667829990387,-0.06902503967285156,-9.707463264465332
1745650489.9506578,0.10703183710575104,0.015618523582816124,-0.2605346739292145,0.5905243158340454,-0.4821206033229828,-9.94027042388916
1745650489.9807963,0.11578945070505142,0.01411503553390503,-0.2659108638763428,0.7347742319107056,-0.3783695101737976,-9.693877220153809
1745650489.982728,0.0952763631939888,0.013440554030239582,-0.26752498745918274,0.5537511110305786,-0.11475715786218643,-9.50179672241211
1745650489.9866445,0.09786554425954819,0.013853197917342186,-0.26783090829849243,0.7965145111083984,-0.33736640214920044,-9.691793441772461
1745650489.9898663,0.11515786498785019,0.01354933064430952,-0.2717156410217285,0.5871663093566895,0.18974971771240234,-9.898300170898438
1745650489.993106,0.11814979463815689,0.013392092660069466,-0.27204591035842896,0.6849803328514099,-0.2955509126186371,-9.900347709655762
1745650490.0270896,0.13321417570114136,0.007186770439147949,-0.27124375104904175,0.6197119951248169,0.015331143513321877,-9.604898452758789
1745650490.0314531,0.1367950141429901,0.008647576905786991,-0.27447110414505005,0.5159692168235779,-0.3698473870754242,-9.780494689941406
1745650490.0332348,0.14528922736644745,0.005627856589853764,-0.27377408742904663,0.6949230432510376,-0.03607364743947983,-9.737688064575195
1745650490.0370946,0.12410768121480942,0.009196212515234947,-0.27849388122558594,0.5973190665245056,-0.19227619469165802,-9.754617691040039
1745650490.0672624,0.13570943474769592,0.0034179009962826967,-0.28537893295288086,0.8803699612617493,-0.3111855387687683,-9.598865509033203
1745650490.0703468,0.11978225409984589,-0.0022239487152546644,-0.2888186573982239,0.7369138598442078,-0.018070576712489128,-9.689859390258789
1745650490.0780535,0.10650874674320221,0.00024960486916825175,-0.2935541272163391,0.8607172966003418,-0.5315777659416199,-10.077008247375488
1745650490.0796618,0.12343790382146835,-0.003154511097818613,-0.29401469230651855,0.7161843180656433,-0.18280336260795593,-9.717458724975586
1745650490.0885,0.1091383844614029,-0.002743138698861003,-0.2899772524833679,0.5329127311706543,-0.345448762178421,-9.635152816772461
1745650490.1122942,0.1304815411567688,-0.007733874022960663,-0.2898837625980377,0.6807703971862793,-0.16693337261676788,-9.646162033081055
1745650490.1159375,0.058939557522535324,-0.04190611466765404,-0.2833734154701233,0.4378584325313568,-0.4305993616580963,-9.529385566711426
1745650490.118283,0.07075504213571548,-0.045741401612758636,-0.2830997407436371,0.5120604634284973,0.3139159679412842,-10.144526481628418
1745650490.121366,0.07159066200256348,-0.04526758939027786,-0.27516165375709534,0.21621723473072052,-0.7466918230056763,-10.423563003540039
1745650490.1538231,0.1318005919456482,-0.0391155406832695,-0.260873407125473,0.2558199167251587,-0.23361153900623322,-9.131513595581055
1745650490.15585,0.07656914740800858,-0.05209091305732727,-0.2483823001384735,0.18850381672382355,-0.4704505503177643,-9.20481014251709
1745650490.157079,0.12928935885429382,-0.0638970285654068,-0.24291546642780304,0.48258623480796814,-0.2920740246772766,-10.208389282226562
1745650490.1592305,0.13269424438476562,-0.05098555237054825,-0.2469138354063034,0.06656742095947266,0.4879372715950012,-10.202512741088867
1745650490.1964183,0.12065780162811279,-0.054513223469257355,-0.2501024603843689,0.12272628396749496,-0.5254330039024353,-9.390222549438477
1745650490.199408,0.12974290549755096,-0.07209578901529312,-0.2559739947319031,0.18731838464736938,-0.08846595138311386,-8.980076789855957
1745650490.2029552,0.07460767030715942,-0.067507304251194,-0.2569250762462616,0.14947709441184998,-0.9881821870803833,-10.273664474487305
1745650490.2062194,0.08207632601261139,-0.06124338507652283,-0.24793744087219238,0.32952049374580383,-0.8771615028381348,-10.256158828735352
1745650490.2407398,0.04084057733416557,-0.059174489229917526,-0.24014325439929962,0.29020556807518005,-0.8887205123901367,-9.252747535705566
1745650490.24253,0.03129469230771065,-0.0769161581993103,-0.23013631999492645,0.5608011484146118,-0.880650520324707,-9.211650848388672
1745650490.2450101,0.03065253421664238,-0.07581667602062225,-0.22693824768066406,0.2850191295146942,-0.1523597687482834,-10.181524276733398
1745650490.2476912,0.03671175613999367,-0.06596661359071732,-0.22555968165397644,0.17078927159309387,-0.3871834874153137,-10.451045989990234
1745650490.2506883,0.07442974299192429,-0.07052548974752426,-0.22186312079429626,0.010789978317916393,0.02896101400256157,-9.205846786499023
1745650490.2883751,0.03519601747393608,-0.015121358446776867,-0.24168963730335236,0.5819881558418274,0.137905552983284,-8.716630935668945
1745650490.292888,0.06545981764793396,-0.03888842463493347,-0.25363394618034363,0.327714204788208,0.24072888493537903,-9.128618240356445
1745650490.2960873,0.0781395360827446,-0.022670447826385498,-0.26014429330825806,0.3505104184150696,-0.15284083783626556,-11.026330947875977
1745650490.3006475,0.0848049521446228,-0.00021485351317096502,-0.2609716057777405,0.3646686375141144,-0.3639541268348694,-10.389638900756836
1745650490.3247755,0.08673908561468124,-0.0001814403512980789,-0.2569306194782257,0.43834981322288513,-0.6661845445632935,-8.513662338256836
1745650490.3372905,0.0765002891421318,-0.019389722496271133,-0.2552298307418823,0.886318027973175,-0.39994513988494873,-9.123003959655762
1745650490.3373475,0.09193004667758942,-0.00837249867618084,-0.258009672164917,0.7447361946105957,-0.29561373591423035,-11.137776374816895
1745650490.337389,0.10319916903972626,0.014440016821026802,-0.2617398202419281,0.6430308818817139,-0.455882728099823,-10.469043731689453
1745650490.3478513,0.10453532636165619,0.0024775885976850986,-0.2665100395679474,0.32763174176216125,-0.36341363191604614,-8.642359733581543
1745650490.371642,0.07602658122777939,-0.0017037559300661087,-0.26724958419799805,0.24555322527885437,-0.759892463684082,-9.308080673217773
1745650490.3755455,0.07960710674524307,0.005733145866543055,-0.2673417031764984,0.2966983914375305,-0.627040445804596,-10.627212524414062
1745650490.3798778,0.08110089600086212,0.03266109898686409,-0.27133670449256897,0.27165737748146057,-0.636124849319458,-10.035316467285156
1745650490.380512,0.05487414449453354,0.018314890563488007,-0.2713685929775238,0.4816746115684509,-0.7345241904258728,-8.942255020141602
1745650490.412148,0.06544755399227142,0.01057153195142746,-0.27380260825157166,0.5542998313903809,-0.4974207878112793,-9.59611701965332
1745650490.4133196,0.04433780536055565,0.023602958768606186,-0.2745605409145355,0.8259846568107605,-0.6497761011123657,-10.714990615844727
1745650490.4157846,0.05966205522418022,0.028878986835479736,-0.27396512031555176,0.5433038473129272,-0.5595850348472595,-10.169672012329102
1745650490.4166658,0.05357402563095093,0.02811948023736477,-0.2722344398498535,0.5590505599975586,-0.6404997110366821,-9.034342765808105
1745650490.4192457,0.039657194167375565,0.01809019222855568,-0.2720816731452942,0.5336226224899292,-0.2782530188560486,-9.54626178741455
1745650490.457929,0.06749828159809113,0.03539641574025154,-0.27685803174972534,0.3911188542842865,-0.2504252791404724,-10.474702835083008
1745650490.4613254,0.07155199348926544,0.028375308960676193,-0.28183937072753906,0.5912085771560669,-0.07742145657539368,-9.923616409301758
1745650490.4623091,0.09458483755588531,0.02959071658551693,-0.2879100739955902,0.4749974310398102,-0.09539969265460968,-9.375677108764648
1745650490.466584,0.06142531707882881,0.03269665315747261,-0.29359671473503113,0.2209530770778656,-0.6985816359519958,-9.696919441223145
1745650490.5019395,0.05319858342409134,0.046314820647239685,-0.28664183616638184,0.31921833753585815,-0.8638450503349304,-9.630210876464844
1745650490.5036879,0.02609163522720337,0.020559949800372124,-0.279712438583374,0.20773425698280334,-0.9625847935676575,-9.7877836227417
1745650490.513026,0.03697175160050392,0.03372996300458908,-0.27229389548301697,0.16372951865196228,-0.6420062780380249,-9.955042839050293
1745650490.5134358,0.02132931351661682,0.034240759909152985,-0.2727455198764801,0.2677762806415558,-0.3341345191001892,-9.690488815307617
1745650490.5435655,0.04768579825758934,0.027869004756212234,-0.2786608338356018,0.4187682271003723,-0.2653493285179138,-9.515660285949707
1745650490.5455112,0.016729086637496948,0.018643517047166824,-0.2804272770881653,0.6284254789352417,-0.18688197433948517,-9.915422439575195
1745650490.5487795,0.042346157133579254,0.014282114803791046,-0.2816152274608612,0.3489559292793274,-0.6454814076423645,-10.35682201385498
1745650490.5522442,0.053306687623262405,0.024892255663871765,-0.2717680037021637,0.30892413854599,-0.6605178713798523,-9.566515922546387
1745650490.587688,0.026366332545876503,0.01606379635632038,-0.262572705745697,0.2544647455215454,-0.7389591932296753,-9.237595558166504
1745650490.5920417,0.06300970166921616,0.008649383671581745,-0.26024019718170166,0.47230929136276245,-0.5024020075798035,-9.924971580505371
1745650490.5959365,0.04284391924738884,0.007006975822150707,-0.2590191960334778,0.42042627930641174,-0.09909223765134811,-10.249409675598145
1745650490.5986133,0.07089526951313019,0.018332626670598984,-0.2649414539337158,0.3194045424461365,-0.5569334030151367,-9.761585235595703
1745650490.602336,0.053199946880340576,0.0005617761635221541,-0.2666991651058197,0.3589737117290497,-0.5222188234329224,-9.136665344238281
1745650490.6283581,0.045516155660152435,-0.008226428180932999,-0.2647532820701599,0.3007715344429016,-0.8852733373641968,-9.822441101074219
1745650490.631121,-0.03628804162144661,-0.018359042704105377,-0.20849020779132843,0.21162796020507812,-0.41127437353134155,-9.467761993408203
1745650490.6329033,-0.040175773203372955,-0.04063446447253227,-0.20865948498249054,0.5398479700088501,-0.6047273874282837,-9.44952392578125
1745650490.639765,-0.035203658044338226,-0.04992596060037613,-0.20775148272514343,0.5637475252151489,0.014022800140082836,-10.291023254394531
1745650490.6769378,-0.031127339228987694,-0.03354956582188606,-0.21142561733722687,0.025821883231401443,-0.5405853986740112,-10.527791023254395
1745650490.6771162,-0.02267141081392765,-0.03468048572540283,-0.20562326908111572,-0.03975304961204529,-0.45192956924438477,-9.039080619812012
1745650490.6784,-0.03872325271368027,-0.05165655538439751,-0.196221262216568,0.09518440812826157,-0.6542512774467468,-8.9269380569458
1745650490.6818097,-0.029222827404737473,-0.048533279448747635,-0.1877257376909256,0.27980735898017883,-0.7376874685287476,-10.341547012329102
1745650490.6893258,-0.01839088276028633,-0.03277220577001572,-0.18040916323661804,0.09973645210266113,-0.42258936166763306,-10.435025215148926
1745650490.7147493,-0.02632393315434456,-0.03233379125595093,-0.17679965496063232,0.29913368821144104,-0.7038196325302124,-9.15009593963623
1745650490.7175422,-0.030151013284921646,-0.051922403275966644,-0.1767248511314392,0.4787154197692871,-0.35263508558273315,-9.158480644226074
1745650490.7199156,-0.0467117503285408,-0.04822049289941788,-0.1699536144733429,0.47604697942733765,-0.9443693161010742,-10.618921279907227
1745650490.7228942,-0.05271083116531372,-0.031197678297758102,-0.16613295674324036,0.2293982058763504,-0.6765801310539246,-10.336012840270996
1745650490.7565303,-0.08187390863895416,-0.03295565024018288,-0.16056254506111145,0.13049167394638062,-0.8465188145637512,-8.943777084350586
1745650490.758902,-0.09829618036746979,-0.047289878129959106,-0.15321658551692963,0.42191916704177856,-0.5800355672836304,-9.067378044128418
1745650490.7604198,-0.09110673516988754,-0.04468705505132675,-0.15207704901695251,0.40149229764938354,-0.23584219813346863,-10.584676742553711
1745650490.7640202,-0.08624015003442764,-0.029479539021849632,-0.15178778767585754,0.32265424728393555,-0.09851183742284775,-10.571331024169922
1745650490.7657235,-0.05505974218249321,-0.03641262650489807,-0.15069100260734558,0.19948038458824158,-0.07532399892807007,-9.149133682250977
1745650490.8009531,-0.04666024446487427,-0.04474012181162834,-0.14772038161754608,0.2962077260017395,-0.11949632316827774,-9.154427528381348
1745650490.8027432,-0.035516198724508286,-0.046441636979579926,-0.13752298057079315,0.29931116104125977,-0.47238093614578247,-10.5062894821167
1745650490.8080003,-0.002160795498639345,-0.029317673295736313,-0.13084623217582703,0.04238150641322136,-0.33037012815475464,-10.310811996459961
1745650490.8111024,-0.02424636110663414,-0.030220169574022293,-0.12719713151454926,0.23221567273139954,-0.564546525478363,-9.104517936706543
1745650490.8444228,-0.010180952958762646,-0.044917620718479156,-0.12372305244207382,0.24415679275989532,-0.3832370936870575,-9.236374855041504
1745650490.8492422,-0.12692919373512268,-0.02844831347465515,-0.09936568886041641,0.3396172821521759,-0.5863459706306458,-10.239087104797363
1745650490.852227,-0.10758577287197113,-0.022680794820189476,-0.09682334959506989,0.1444302499294281,-0.10762614011764526,-9.456151962280273
1745650490.8553383,-0.10904403775930405,-0.032285209745168686,-0.09517783671617508,0.30496281385421753,-0.1229022890329361,-9.418161392211914
1745650490.891454,-0.08217127621173859,-0.03571784496307373,-0.09315748512744904,0.2454192191362381,0.0855887159705162,-10.141403198242188
1745650490.8926787,-0.07052423059940338,-0.01829175278544426,-0.09256179630756378,0.16778664290905,-0.2479592114686966,-10.242731094360352
1745650490.8952253,-0.058163322508335114,-0.021247614175081253,-0.08784160763025284,0.11813507974147797,-0.22507648169994354,-9.436914443969727
1745650490.902084,-0.06466428935527802,-0.024529684334993362,-0.082707479596138,0.21248288452625275,-0.35005098581314087,-9.320536613464355
1745650490.9273589,-0.06478910148143768,-0.026408633217215538,-0.07925088703632355,0.5327061414718628,-0.3872719407081604,-10.041139602661133
1745650490.9293106,-0.06977847963571548,-0.016446733847260475,-0.08245719969272614,0.35409998893737793,-0.17537805438041687,-10.312455177307129
1745650490.9311068,-0.0762077197432518,-0.018897254019975662,-0.0863456279039383,0.8511837124824524,-0.3963933289051056,-9.805440902709961
1745650490.9358528,-0.06400560587644577,-0.04707049950957298,-0.09202885627746582,0.2669612765312195,0.1790667325258255,-9.818084716796875
1745650490.971314,-0.02136155590415001,0.007266578264534473,-0.09676336497068405,0.16956110298633575,-0.07982663810253143,-9.777871131896973
1745650490.9741805,-0.05203406885266304,-0.02869626320898533,-0.09751994162797928,0.17380711436271667,-0.2631620764732361,-9.464276313781738
1745650490.9771333,0.02987174317240715,0.04562647268176079,-0.22206254303455353,0.8562866449356079,-0.47256597876548767,-11.200567245483398
1745650490.9797215,0.03441065922379494,0.049490656703710556,-0.2184770554304123,0.44819313287734985,-0.5304979085922241,-10.056416511535645
1745650491.014023,0.06126407906413078,0.03623256832361221,-0.21004505455493927,0.15445788204669952,-0.44173288345336914,-8.412446975708008
1745650491.0186117,0.026088351383805275,0.023310011252760887,-0.20472943782806396,-0.23085153102874756,-0.23738312721252441,-9.363344192504883
1745650491.0244565,0.051430948078632355,0.045647770166397095,-0.2043207883834839,0.02817215956747532,-0.7557269930839539,-10.609213829040527
1745650491.0248196,-0.003109076526015997,0.013879823498427868,-0.19592227041721344,-0.3478359282016754,-0.7342067956924438,-10.251511573791504
1745650491.0286224,-0.002214822918176651,0.03806780278682709,-0.19686834514141083,-0.5811815857887268,-0.5904837846755981,-9.05561637878418
1745650491.0600026,-0.05635610967874527,0.036111414432525635,-0.20120999217033386,-0.07356148958206177,-0.10768218338489532,-8.70888900756836
1745650491.0612397,-0.060736387968063354,0.0020840545184910297,-0.19887900352478027,0.5528925657272339,-0.8666368722915649,-10.095499038696289
1745650491.0642147,-0.062079209834337234,0.019577184692025185,-0.19185642898082733,0.7268065214157104,-0.09541567414999008,-10.82911491394043
1745650491.0661612,-0.08836568892002106,0.001726158196106553,-0.18058328330516815,0.1651143580675125,-0.9417872428894043,-10.186058044433594
1745650491.1022565,0.005332442931830883,0.017364557832479477,-0.16349095106124878,-0.16349613666534424,0.0889657512307167,-8.537727355957031
1745650491.104581,-0.07965392619371414,-0.006522280629724264,-0.15425579249858856,0.1829625368118286,-0.022294949740171432,-9.211591720581055
1745650491.110256,0.04167630523443222,-0.015086373314261436,-0.15376980602741241,0.2391308844089508,0.42545270919799805,-10.861032485961914
1745650491.1133678,0.03954533115029335,0.006475487258285284,-0.16017106175422668,-0.1974002569913864,0.8341931104660034,-10.413289070129395
1745650491.1436086,0.05500512570142746,-0.007281898520886898,-0.16411711275577545,-0.324207067489624,-0.2706192135810852,-8.721149444580078
1745650491.146287,0.0662410706281662,-0.018507573753595352,-0.16320519149303436,0.04552460461854935,-0.24638399481773376,-8.6694974899292
1745650491.148111,-0.004471927881240845,-0.024724598973989487,-0.15956559777259827,0.3336629271507263,-1.0781867504119873,-10.845792770385742
1745650491.1505988,0.02477678470313549,-0.0030137121211737394,-0.15202634036540985,0.2682093679904938,-0.8927369117736816,-10.818968772888184
1745650491.1521976,-0.05146847292780876,-0.014737200923264027,-0.14365823566913605,0.3912455141544342,-1.0338876247406006,-8.801851272583008
1745650491.1895065,-0.054631851613521576,-0.03610702604055405,-0.13625213503837585,0.44116219878196716,-0.9170436859130859,-8.738322257995605
1745650491.1916203,-0.10024742782115936,-0.03819506615400314,-0.13497355580329895,0.3135052025318146,-0.47390246391296387,-10.679064750671387
1745650491.1991262,-0.07750736176967621,-0.02412554994225502,-0.1360357105731964,-0.06824831664562225,-0.20659418404102325,-10.881425857543945
1745650491.2013059,-0.03637214004993439,-0.051843125373125076,-0.1179347038269043,0.39472442865371704,0.3631896376609802,-10.710111618041992
1745650491.2304573,-0.024837281554937363,-0.030379047617316246,-0.12303926050662994,0.15285281836986542,0.18673790991306305,-11.350784301757812
1745650491.2322335,0.031099850311875343,-0.01838071458041668,-0.12913158535957336,-0.027170628309249878,0.2985503077507019,-8.972658157348633
1745650491.233499,-0.030800750479102135,-0.05113642290234566,-0.1385515034198761,0.1833939403295517,-0.095635786652565,-8.266619682312012
1745650491.2349823,0.014855338260531425,-0.07055369019508362,-0.1362549215555191,0.27541399002075195,-0.4705164432525635,-10.50987720489502
1745650491.2431955,-0.04018314182758331,-0.02341611310839653,-0.12678954005241394,-0.00869985856115818,-0.8260008692741394,-11.272013664245605
1745650491.2751033,-0.03841745853424072,-0.025599662214517593,-0.10891151428222656,0.20463836193084717,-1.3613293170928955,-8.714871406555176
1745650491.2785127,-0.054374080151319504,-0.05259539559483528,-0.09930510073900223,0.42827683687210083,-0.36690717935562134,-8.087751388549805
1745650491.2828016,-0.11489106714725494,-0.053072281181812286,-0.09639833122491837,0.6184549331665039,-0.5944204926490784,-10.834577560424805
1745650491.2864857,-0.04722704365849495,-0.04328889399766922,-0.09882844984531403,0.5957736372947693,-0.0223847683519125,-11.384671211242676
1745650491.3185987,-0.07660884410142899,-0.03774195536971092,-0.10399200767278671,0.21925780177116394,0.3125215172767639,-9.106976509094238
1745650491.3195705,-0.07412300258874893,-0.057329095900058746,-0.09969005733728409,-0.08326821029186249,-0.5995054841041565,-8.578706741333008
1745650491.3227618,-0.0682169497013092,-0.05734105035662651,-0.08969268947839737,0.19510021805763245,-0.014710945077240467,-9.902873039245605
1745650491.3281355,-0.1454814225435257,0.03838149458169937,0.10840485244989395,0.5121825933456421,0.41859787702560425,-9.817520141601562
1745650491.362259,-0.1219947338104248,0.037078745663166046,0.10956869274377823,0.37642544507980347,0.5616428852081299,-9.697309494018555
1745650491.3644843,-0.08998721837997437,0.03828608617186546,0.11137012392282486,0.4824596047401428,0.5295095443725586,-9.708073616027832
1745650491.3673806,-0.08098642528057098,0.034349195659160614,0.11025939136743546,0.6117710471153259,0.5260281562805176,-9.89773941040039
1745650491.3690195,-0.05382855609059334,0.04450375214219093,0.11404745280742645,0.4857982099056244,0.13928118348121643,-10.036706924438477
1745650491.4031162,-0.06868986040353775,0.04390526935458183,0.11809088289737701,0.5688628554344177,-0.05411496013402939,-9.695663452148438
1745650491.405987,-0.0631244033575058,0.041743092238903046,0.12651541829109192,0.5528631210327148,-0.22407369315624237,-9.552302360534668
1745650491.4090908,-0.09252423793077469,0.04624097794294357,0.13294532895088196,0.6946620941162109,-0.288309782743454,-9.770257949829102
1745650491.4122283,-0.08409996330738068,0.048240743577480316,0.13585153222084045,0.5118972063064575,-0.10954318195581436,-9.983129501342773
1745650491.4136424,-0.09995026886463165,0.050849415361881256,0.13935144245624542,0.4758547842502594,-0.1888214498758316,-9.795406341552734
1745650491.448196,-0.11133426427841187,0.04615950211882591,0.14061160385608673,0.42131248116493225,-0.14807172119617462,-9.571115493774414
1745650491.4522064,-0.11366431415081024,0.05473984405398369,0.14541110396385193,0.3621731996536255,-0.19309118390083313,-9.735076904296875
1745650491.464821,-0.13361695408821106,0.050411175936460495,0.14980408549308777,0.44387054443359375,-0.2054585963487625,-9.911011695861816
1745650491.4650097,-0.1311434954404831,0.053100258111953735,0.15571515262126923,0.3850993514060974,-0.17366325855255127,-9.775354385375977
1745650491.4868748,-0.1428605020046234,0.05864306539297104,0.1606653481721878,0.5740329623222351,-0.14882436394691467,-9.515742301940918
1745650491.490083,-0.145406574010849,0.05329088494181633,0.16455277800559998,0.4925544857978821,0.11120426654815674,-9.711156845092773
1745650491.4924116,-0.14086487889289856,0.05005103349685669,0.1654682457447052,0.6984683871269226,0.06322342902421951,-10.032394409179688
1745650491.4967456,-0.14346511662006378,0.05005031079053879,0.16672833263874054,0.5681810975074768,0.3515163064002991,-9.93031120300293
1745650491.500082,-0.1306954324245453,0.04991282895207405,0.16683512926101685,0.37380585074424744,0.2717828154563904,-9.688150405883789
1745650491.5373125,-0.1274089515209198,0.04136556014418602,0.1672387570142746,0.357524573802948,0.3494223654270172,-9.626462936401367
1745650491.537367,-0.10854537785053253,0.0491996668279171,0.17007672786712646,0.27657532691955566,0.3142845630645752,-9.82697582244873
1745650491.5374267,-0.11214913427829742,0.0478941909968853,0.1721440553665161,0.492027223110199,0.20460069179534912,-9.758787155151367
1745650491.537469,-0.09407689422369003,0.04278117045760155,0.17458267509937286,0.398481547832489,0.22852201759815216,-9.67540168762207
1745650491.576977,-0.10289537906646729,0.04343914985656738,0.1819017231464386,0.5078885555267334,-0.0034308761823922396,-9.877890586853027
1745650491.5809405,-0.10889928042888641,0.045036062598228455,0.1865948736667633,0.5188637375831604,-0.2525644600391388,-9.825661659240723
1745650491.582771,-0.12806478142738342,0.03795976936817169,0.192489892244339,0.6089844107627869,-0.156182199716568,-9.551382064819336
1745650491.5851634,-0.1402629166841507,0.04466800019145012,0.19703242182731628,0.4334227442741394,-0.15702703595161438,-9.734575271606445
1745650491.6176906,-0.1571735441684723,0.0385911762714386,0.19878455996513367,0.6055521965026855,0.0651312917470932,-9.746160507202148
1745650491.6284666,-0.15946725010871887,0.036156367510557175,0.19615676999092102,0.4475218653678894,0.23805542290210724,-9.722587585449219
1745650491.6286283,-0.16188308596611023,0.039714932441711426,0.19803667068481445,0.5512770414352417,0.24424925446510315,-9.729538917541504
