timestamp,angular_vel_x,angular_vel_y,angular_vel_z,linear_acc_x,linear_acc_y,linear_acc_z
1745668034.864189,-0.12662221491336823,-0.031712837517261505,0.02207261696457863,0.5219226479530334,-0.36812472343444824,-9.588221549987793
1745668034.8656533,-0.11858765035867691,-0.034216735512018204,0.024921735748648643,0.40088167786598206,-0.07623948901891708,-9.593252182006836
1745668034.8673127,-0.12668505311012268,-0.03162553533911705,0.024039607495069504,0.6338959336280823,-0.40001288056373596,-9.905130386352539
1745668034.8673515,-0.14411045610904694,-0.0370301678776741,0.024138696491718292,0.5607449412345886,-0.39710426330566406,-9.985960960388184
1745668034.8701096,-0.14591705799102783,-0.02949829027056694,0.020279645919799805,0.5211126804351807,-0.24832415580749512,-9.695259094238281
1745668034.9131932,-0.17302212119102478,-0.04103901609778404,0.02292211912572384,0.5568996667861938,-0.5108246207237244,-9.638689041137695
1745668034.9230483,-0.17221161723136902,-0.03372450917959213,0.022437172010540962,0.30911025404930115,-0.14891141653060913,-9.819570541381836
1745668034.923167,-0.18165996670722961,-0.03490305319428444,0.023897191509604454,0.5832691192626953,-0.22867242991924286,-9.828967094421387
1745668034.9233634,-0.1730620563030243,-0.036452002823352814,0.025182703509926796,0.23004738986492157,0.08069732040166855,-9.740865707397461
1745668034.9464676,-0.15997549891471863,-0.03242465853691101,0.023101136088371277,0.4916852116584778,0.10025539249181747,-9.651369094848633
1745668034.9497242,-0.14664924144744873,-0.03812900930643082,0.025934282690286636,0.46919670701026917,0.06230723857879639,-9.78638744354248
1745668034.9524999,-0.12796470522880554,-0.025817427784204483,0.02673276886343956,0.3669889569282532,0.20345139503479004,-9.908917427062988
1745668034.95476,-0.12351949512958527,-0.043967146426439285,0.027513762935996056,0.54488605260849,-0.1319628655910492,-9.75019359588623
1745668034.9561055,-0.1159047856926918,-0.029492393136024475,0.028116757050156593,0.3799198567867279,0.14119136333465576,-9.699199676513672
1745668034.9905963,-0.11528395116329193,-0.032452523708343506,0.02789669670164585,0.5656091570854187,-0.21671763062477112,-9.787074089050293
1745668034.9939601,-0.12428466975688934,-0.03771110251545906,0.0277693010866642,0.36791467666625977,0.035393744707107544,-9.77967643737793
1745668034.9970572,-0.12335600703954697,-0.031063873320817947,0.021377447992563248,0.5796465873718262,-0.04408283904194832,-9.809659957885742
1745668034.9997427,-0.14337018132209778,-0.033370643854141235,0.015084314160048962,0.7275501489639282,-0.11472580581903458,-9.75566577911377
1745668035.0323093,-0.13895373046398163,-0.03722183778882027,0.010588299483060837,0.7689934968948364,0.2756510376930237,-9.840696334838867
1745668035.0345562,-0.06069634109735489,-0.015826959162950516,-0.028079276904463768,0.6080003976821899,-0.47243833541870117,-9.766793251037598
1745668035.0372596,-0.051330555230379105,-0.004813975654542446,-0.04127957671880722,0.7808129191398621,0.3669000267982483,-10.569230079650879
1745668035.0388515,-0.10157835483551025,0.018824515864253044,-0.058917511254549026,0.53858882188797,-0.13065336644649506,-10.08505630493164
1745668035.075157,-0.06589409708976746,0.0033823163248598576,-0.06664001941680908,1.0101709365844727,-0.2553233504295349,-8.664698600769043
1745668035.0762217,-0.14966420829296112,-0.010550212115049362,-0.07119958102703094,1.033746361732483,-0.35425686836242676,-9.65313720703125
1745668035.078347,-0.10062889009714127,0.004299645312130451,-0.06873469054698944,0.7548253536224365,-0.278139591217041,-11.023946762084961
1745668035.080944,-0.10501094907522202,0.016072390601038933,-0.06725592166185379,0.5288599729537964,0.3427942991256714,-9.787117004394531
1745668035.119436,-0.05301714688539505,0.01787731423974037,-0.06802345812320709,0.5965812802314758,0.5882460474967957,-8.436124801635742
1745668035.1229331,-0.028278011828660965,0.0013358478900045156,-0.07539372146129608,0.6522003412246704,1.0329372882843018,-9.570123672485352
1745668035.1248446,0.015821151435375214,0.011812208220362663,-0.09132271260023117,0.384930282831192,0.9132256507873535,-11.139491081237793
1745668035.1289022,0.08899204432964325,0.03277934342622757,-0.09883300215005875,0.49854668974876404,0.8321682214736938,-9.928261756896973
1745668035.1300218,0.05654877424240112,0.0209730863571167,-0.10704054683446884,0.528918445110321,0.045190971344709396,-8.544923782348633
1745668035.1611598,0.08821248263120651,0.013284573331475258,-0.10689278692007065,0.9433950185775757,-0.26785996556282043,-9.293210983276367
1745668035.163203,0.025639956817030907,0.02107521891593933,-0.10956858098506927,0.9080621004104614,-0.49384182691574097,-10.897977828979492
1745668035.167146,0.16384434700012207,0.03672447055578232,-0.22513988614082336,0.8397011756896973,0.15064488351345062,-9.639212608337402
1745668035.167336,0.16122975945472717,0.032550424337387085,-0.2311333864927292,0.6413194537162781,0.1634206771850586,-9.75603199005127
1745668035.205448,0.1788269579410553,0.042303647845983505,-0.23485597968101501,0.7257596850395203,-0.10512280464172363,-9.842315673828125
1745668035.2071147,0.14711955189704895,0.026704316958785057,-0.2381228506565094,0.8201661109924316,-0.45856183767318726,-9.73243236541748
1745668035.208932,0.15772932767868042,0.033316440880298615,-0.241195946931839,0.6880522966384888,-0.2902223467826843,-9.659833908081055
1745668035.2103877,0.11312620341777802,0.028537308797240257,-0.24726518988609314,0.8523971438407898,-0.6053053736686707,-9.795809745788574
1745668035.2127666,0.12474241107702255,0.031428802758455276,-0.2502242922782898,0.7745050191879272,-0.37627848982810974,-9.701380729675293
1745668035.250565,0.10057809203863144,0.02786916121840477,-0.2510404884815216,1.0639076232910156,-0.25286170840263367,-9.579205513000488
1745668035.2522352,0.09445260465145111,0.022654244676232338,-0.25443190336227417,0.6845017671585083,-0.36402443051338196,-10.006362915039062
1745668035.2541437,0.12551939487457275,0.029678339138627052,-0.25672128796577454,0.6366780996322632,0.028610140085220337,-9.819225311279297
1745668035.255287,0.10804194211959839,0.023762989789247513,-0.25908806920051575,0.6368839144706726,-0.19104427099227905,-9.515716552734375
1745668035.2899895,0.15254034101963043,0.02564886212348938,-0.25987711548805237,0.5449931025505066,0.1860678642988205,-9.461559295654297
1745668035.292174,0.14646270871162415,0.01928788609802723,-0.26316848397254944,0.8633414506912231,-0.05878948047757149,-9.827227592468262
1745668035.2941172,0.1648688167333603,0.025027986615896225,-0.268769770860672,0.6228305697441101,0.1148480549454689,-10.000858306884766
1745668035.296094,0.15989282727241516,0.023002121597528458,-0.2720368206501007,0.9586088061332703,-0.2937113642692566,-9.652877807617188
1745668035.299821,0.16482535004615784,0.010678984224796295,-0.2755196690559387,0.8635883331298828,-0.2700989842414856,-9.631101608276367
1745668035.3359737,0.14851461350917816,0.016530189663171768,-0.2782735526561737,0.8440359830856323,-0.41541939973831177,-9.980607032775879
1745668035.3382657,0.1497376561164856,0.009492708370089531,-0.2789677679538727,0.9333316683769226,-0.6290810704231262,-9.81137466430664
1745668035.3411827,0.13371393084526062,0.016220102086663246,-0.2812637686729431,0.7386714220046997,-0.12336607277393341,-9.512792587280273
1745668035.344279,0.12640592455863953,0.003820519195869565,-0.28248274326324463,0.8110888600349426,-0.5596685409545898,-9.76016902923584
1745668035.3818913,0.1418827623128891,0.002489859703928232,-0.28515321016311646,0.5330486297607422,0.05727168172597885,-9.981953620910645
1745668035.3819659,0.14078788459300995,0.008772457018494606,-0.2927176356315613,0.7597292065620422,-0.37092337012290955,-9.83424186706543
1745668035.382027,0.12160909175872803,-0.008720286190509796,-0.2995940148830414,0.6595994234085083,-0.2311963140964508,-9.720720291137695
1745668035.3820603,0.148135244846344,-0.008085397072136402,-0.3035159707069397,0.8762930631637573,-0.4234403967857361,-9.921648025512695
1745668035.4236333,0.12542356550693512,-0.010649609379470348,-0.30822697281837463,0.7273707389831543,0.007704360876232386,-9.683979988098145
1745668035.424069,0.1400977075099945,-0.0036807742435485125,-0.31265074014663696,0.6500550508499146,-0.40787965059280396,-9.641118049621582
1745668035.426008,0.1460338532924652,-0.018653130158782005,-0.3116115629673004,0.7343701720237732,-0.2733999192714691,-9.628408432006836
1745668035.4272492,0.14312224090099335,-0.007040476892143488,-0.31371062994003296,0.6242128014564514,-0.33824238181114197,-9.945686340332031
1745668035.4639678,0.16593122482299805,-0.014838660135865211,-0.3110913336277008,0.8572297096252441,-0.4550239145755768,-9.816261291503906
1745668035.4659543,0.15950825810432434,-0.015054886229336262,-0.314760684967041,0.6845701336860657,-0.25093668699264526,-9.62391185760498
1745668035.467162,0.16834756731987,-0.014127949252724648,-0.31532377004623413,0.8652758598327637,-0.49465328454971313,-9.733109474182129
1745668035.4756446,0.1459658443927765,-0.02680690959095955,-0.31655898690223694,0.7372613549232483,-0.6109771132469177,-9.967665672302246
1745668035.4756854,0.17006149888038635,-0.014434081502258778,-0.31884828209877014,0.7392738461494446,-0.4962707459926605,-9.811368942260742
1745668035.50838,0.12053928524255753,-0.02850555256009102,-0.3209487497806549,0.7328410148620605,-0.6875391006469727,-9.699819564819336
1745668035.5113797,0.1431317925453186,-0.023614177480340004,-0.32244673371315,0.6209759712219238,-0.5542875528335571,-9.6653470993042
1745668035.5157526,0.11788710206747055,-0.02728642150759697,-0.32716813683509827,0.92796391248703,-0.38488513231277466,-9.654736518859863
1745668035.5195541,0.09587622433900833,-0.03911782056093216,-0.3539820611476898,0.7580493092536926,-0.5710157155990601,-9.458956718444824
1745668035.5488217,0.0827626883983612,-0.0322834849357605,-0.3557344973087311,0.550696074962616,-0.7062088847160339,-9.825448989868164
1745668035.5511115,0.10829387605190277,-0.033656176179647446,-0.35630616545677185,0.7629154920578003,-0.6750327348709106,-9.91608715057373
1745668035.5534074,0.0841449424624443,-0.033820830285549164,-0.35650238394737244,0.5568176507949829,-0.6087926626205444,-9.842915534973145
1745668035.5556214,0.1050950139760971,-0.033054422587156296,-0.35516873002052307,0.7021874189376831,-0.8259774446487427,-9.656959533691406
1745668035.5927527,0.09112029522657394,-0.04484693333506584,-0.3519483804702759,0.6376972198486328,-0.6740425229072571,-9.721735954284668
1745668035.5976148,0.10373399406671524,-0.03066321089863777,-0.355206698179245,0.5735268592834473,-0.7060520648956299,-9.930455207824707
1745668035.5994244,0.08481862396001816,-0.03620268777012825,-0.35328811407089233,0.7153575420379639,-0.8448904752731323,-9.749521255493164
1745668035.602747,0.106192946434021,-0.03581948205828667,-0.3558201789855957,0.5442768931388855,-0.6423825621604919,-9.553686141967773
1745668035.6069884,0.08194045722484589,-0.03280923515558243,-0.35646384954452515,0.6694017648696899,-0.7383416891098022,-9.80239486694336
1745668035.6407855,0.08494533598423004,-0.03429209068417549,-0.35975438356399536,0.5277794003486633,-0.8561068773269653,-9.974404335021973
1745668035.640834,0.09630657732486725,-0.029509928077459335,-0.36110544204711914,0.7127190828323364,-0.6341757774353027,-9.508493423461914
1745668035.643429,0.05181197449564934,-0.03737253695726395,-0.3598704934120178,0.6657671332359314,-0.9536266326904297,-9.6878662109375
1745668035.6456468,0.08924703299999237,-0.030072256922721863,-0.35977083444595337,0.5886717438697815,-0.7204378247261047,-9.875307083129883
1745668035.6812618,0.05572644621133804,-0.03271540254354477,-0.35899871587753296,0.7089022397994995,-0.8625481724739075,-9.85641860961914
1745668035.681376,0.07427943497896194,-0.02509501948952675,-0.3593076765537262,0.4698387086391449,-0.7037616968154907,-9.691213607788086
1745668035.6837993,0.06751316040754318,-0.033948980271816254,-0.35999974608421326,0.7587682008743286,-0.7623345255851746,-9.565396308898926
1745668035.686583,0.06623397022485733,-0.03509867191314697,-0.3596392869949341,0.5143811106681824,-0.7141293883323669,-9.947717666625977
1745668035.7217164,0.06935002654790878,-0.02616404928267002,-0.3617822527885437,0.660085141658783,-0.7034034132957458,-9.88654899597168
1745668035.7261994,0.07174086570739746,-0.03318283334374428,-0.36044031381607056,0.5731885433197021,-0.807144284248352,-9.535962104797363
1745668035.7279284,0.06809786707162857,-0.022921649739146233,-0.3611513674259186,0.5396753549575806,-0.567293643951416,-9.558235168457031
1745668035.7313461,0.0586380735039711,-0.03289411589503288,-0.36297038197517395,0.7666811347007751,-1.0623085498809814,-9.969125747680664
1745668035.7636197,0.04605700075626373,-0.03081488609313965,-0.359802782535553,0.558883786201477,-0.9219074249267578,-9.802099227905273
1745668035.7662354,0.056574173271656036,-0.02478945069015026,-0.36110201478004456,0.5226398706436157,-0.7108668088912964,-9.653203964233398
1745668035.7703152,0.04199140891432762,-0.03344104811549187,-0.36113929748535156,0.6818516254425049,-0.9071551561355591,-9.711200714111328
1745668035.7708893,0.04021654278039932,-0.02416905201971531,-0.36314746737480164,0.4638725817203522,-0.6168860197067261,-9.859115600585938
1745668035.8082278,0.04942053556442261,-0.02801654115319252,-0.36137819290161133,0.7528164386749268,-0.9878022074699402,-9.715277671813965
1745668035.8112059,0.03885792940855026,-0.02548266015946865,-0.36198100447654724,0.5139626264572144,-0.6054922342300415,-9.564273834228516
1745668035.8147035,0.036275673657655716,-0.020750749856233597,-0.36116868257522583,0.6471179127693176,-1.0011334419250488,-9.781255722045898
1745668035.8168795,0.05192653089761734,-0.031619638204574585,-0.3602001965045929,0.6204961538314819,-0.6537195444107056,-9.77082633972168
1745668035.8189888,0.039632707834243774,-0.01694236509501934,-0.3616454005241394,0.5693379044532776,-0.6540507674217224,-9.746503829956055
1745668035.8512304,0.05004280060529709,-0.027921762317419052,-0.3601405620574951,0.7366995811462402,-0.8877806663513184,-9.732992172241211
1745668035.8535416,0.050617169588804245,-0.02200325019657612,-0.36333733797073364,0.5224348902702332,-0.5386093258857727,-9.671302795410156
1745668035.856357,0.0457889661192894,-0.02098911441862583,-0.3613365590572357,0.7150641679763794,-0.9537919163703918,-9.762529373168945
1745668035.8583455,0.0484209842979908,-0.02577250637114048,-0.36132732033729553,0.47193923592567444,-0.715745747089386,-9.746870040893555
1745668035.895925,0.022236619144678116,-0.018810313194990158,-0.3562789559364319,0.4515419602394104,-0.7652655243873596,-9.758185386657715
1745668035.899862,0.01870674639940262,-0.019222479313611984,-0.3554185628890991,0.6944602727890015,-1.0511640310287476,-9.719779968261719
1745668035.903898,0.013321518898010254,-0.022866474464535713,-0.3567785620689392,0.510262668132782,-0.7216662168502808,-9.728309631347656
1745668035.9072406,0.004000780638307333,-0.015403996221721172,-0.35419806838035583,0.5480329394340515,-0.9652307629585266,-9.855746269226074
1745668035.9353607,0.01948646642267704,-0.02491312101483345,-0.3528939485549927,0.5622451305389404,-0.8025250434875488,-9.667891502380371
1745668035.9374669,0.009389782324433327,-0.013962591998279095,-0.3568613529205322,0.5709360241889954,-0.5378941893577576,-9.602766036987305
1745668035.9418447,0.010140503756701946,-0.024359747767448425,-0.3534066677093506,0.7129977345466614,-1.0380820035934448,-9.80943775177002
1745668035.9445472,0.025276994332671165,-0.018805859610438347,-0.3554900586605072,0.46749383211135864,-0.5386296510696411,-9.842447280883789
1745668035.9473526,0.0090121328830719,-0.01833261176943779,-0.35417571663856506,0.6671432256698608,-1.0032925605773926,-9.834375381469727
1745668035.9811697,0.016990061849355698,-0.026810545474290848,-0.3524990677833557,0.4630414843559265,-0.7735824584960938,-9.68513298034668
1745668035.985691,0.018888432532548904,-0.018646638840436935,-0.35227495431900024,0.6426302194595337,-0.7720632553100586,-9.626768112182617
1745668035.9891064,0.005901956930756569,-0.026202529668807983,-0.35084861516952515,0.6307073831558228,-0.8268678784370422,-9.80713176727295
1745668035.9906507,0.015398415736854076,-0.01825537160038948,-0.35273781418800354,0.5381505489349365,-0.7823195457458496,-9.806132316589355
1745668036.023616,0.015486461110413074,-0.025326630100607872,-0.35117286443710327,0.7221791744232178,-0.8297876119613647,-9.647266387939453
1745668036.025155,-0.005196821875870228,-0.023883957415819168,-0.3542042374610901,0.3683721423149109,-0.7910105586051941,-9.841194152832031
1745668036.027928,0.0242487583309412,-0.019813772290945053,-0.35034945607185364,0.6059430241584778,-0.9753848910331726,-9.752224922180176
1745668036.0301373,0.00022021308541297913,-0.023863058537244797,-0.3508031964302063,0.4901525378227234,-0.5943285226821899,-9.572031021118164
1745668036.065221,0.008919639512896538,-0.015653058886528015,-0.35104987025260925,0.6075349450111389,-0.9366561770439148,-9.716025352478027
1745668036.0679286,0.015500891022384167,-0.02630014158785343,-0.3500872254371643,0.5893688201904297,-0.6775920987129211,-9.74346923828125
1745668036.074577,0.008823520503938198,-0.014313300140202045,-0.35179123282432556,0.5295560359954834,-0.744958221912384,-9.898241996765137
1745668036.0750332,0.0120489951223135,-0.024503622204065323,-0.3482860326766968,0.697634220123291,-0.9974848031997681,-9.792268753051758
1745668036.0786784,0.009794560261070728,-0.023371215909719467,-0.34806472063064575,0.46754369139671326,-0.7479575872421265,-9.676603317260742
1745668036.1105883,0.014883157797157764,-0.017598280683159828,-0.34625935554504395,0.5002282857894897,-0.8081094026565552,-9.957597732543945
1745668036.1140044,0.009771836921572685,-0.02893044613301754,-0.34475085139274597,0.6410844922065735,-0.7003661394119263,-9.58969497680664
1745668036.1169825,-0.0021159974858164787,-0.02213098108768463,-0.3463669419288635,0.4208405911922455,-0.8284215927124023,-9.685893058776855
1745668036.1202295,0.022591184824705124,-0.021659623831510544,-0.34409740567207336,0.6548031568527222,-0.812274158000946,-9.7013578414917
1745668036.1529815,-0.004046873655170202,-0.02576289139688015,-0.34351205825805664,0.5280762314796448,-0.7935467958450317,-9.857660293579102
1745668036.1555655,0.009485332295298576,-0.017687680199742317,-0.3414984345436096,0.606425940990448,-0.8676155209541321,-9.823432922363281
1745668036.1580467,-0.0005325285601429641,-0.033148691058158875,-0.34156471490859985,0.6165968775749207,-0.8685137033462524,-9.738893508911133
1745668036.159731,0.005157481878995895,-0.023327600210905075,-0.3420356810092926,0.45174798369407654,-0.7327776551246643,-9.790443420410156
1745668036.1944,-0.008623975329101086,-0.024496955797076225,-0.34127646684646606,0.6590808033943176,-0.9311930537223816,-9.72764778137207
1745668036.196906,0.006820873823016882,-0.02419312670826912,-0.34190016984939575,0.42577284574508667,-0.7015749216079712,-9.589619636535645
1745668036.19909,-0.00538716372102499,-0.020454974845051765,-0.34148162603378296,0.6544885039329529,-0.7364455461502075,-9.602885246276855
1745668036.2074769,-0.009818232618272305,-0.028838884085416794,-0.34214162826538086,0.481640487909317,-0.8915983438491821,-9.981191635131836
1745668036.2076135,0.01777755282819271,-0.020857179537415504,-0.3413902819156647,0.5487284660339355,-0.6184154152870178,-9.821149826049805
1745668036.2379997,-0.011276422999799252,-0.026748940348625183,-0.3402665853500366,0.5842887163162231,-0.8360720872879028,-9.620988845825195
1745668036.240359,-0.019331572577357292,-0.02224287949502468,-0.3253768980503082,0.4331442415714264,-0.5922828912734985,-9.823888778686523
1745668036.2422779,0.010361401364207268,-0.020892422646284103,-0.32565051317214966,0.5686330795288086,-0.9038808941841125,-9.756208419799805
1745668036.244004,-0.0013354960829019547,-0.029112935066223145,-0.32526952028274536,0.475578248500824,-0.554578423500061,-9.645946502685547
1745668036.2814531,-0.0008114345255307853,-0.021841540932655334,-0.3256465494632721,0.5041190385818481,-0.8321475982666016,-9.844586372375488
1745668036.2828422,0.0022108019329607487,-0.030568057671189308,-0.3241453766822815,0.5671140551567078,-0.8444032669067383,-9.848470687866211
1745668036.2859635,0.0007981113158166409,-0.0221153162419796,-0.3236241936683655,0.4549488425254822,-0.7453861236572266,-9.675355911254883
1745668036.2872703,-0.005196573678404093,-0.025629064068198204,-0.3192000687122345,0.6626827120780945,-0.8856357336044312,-9.561110496520996
1745668036.3236132,-0.01178701501339674,-0.025961309671401978,-0.3230087459087372,0.42098602652549744,-0.7906362414360046,-9.811555862426758
1745668036.3263342,0.003476630197837949,-0.021210644394159317,-0.3194306790828705,0.6036194562911987,-0.6873447299003601,-9.808595657348633
1745668036.3284862,-0.027257997542619705,-0.025576293468475342,-0.3216499984264374,0.38367724418640137,-0.7623262405395508,-9.837139129638672
1745668036.3286085,0.018125899136066437,-0.02196885645389557,-0.3202422261238098,0.4651239514350891,-0.6898056268692017,-9.608623504638672
1745668036.3326323,-0.01611567847430706,-0.027559716254472733,-0.3216583728790283,0.5800286531448364,-0.625260055065155,-9.614884376525879
1745668036.3681479,0.002745542209595442,-0.017875153571367264,-0.32100147008895874,0.40628957748413086,-0.7895691394805908,-9.897149085998535
1745668036.3731177,0.009065668098628521,-0.021946268156170845,-0.31985604763031006,0.6293027997016907,-0.7097349762916565,-9.68521785736084
1745668036.3735495,-0.00918653141707182,-0.022937854751944542,-0.3181520998477936,0.40526336431503296,-0.7344560623168945,-9.780213356018066
1745668036.3772392,0.01243189349770546,-0.021481754258275032,-0.3173680305480957,0.5933918952941895,-0.7803888320922852,-9.771666526794434
1745668036.40912,-0.003180138301104307,-0.02863726019859314,-0.31903550028800964,0.5225920081138611,-0.7116142511367798,-9.785337448120117
1745668036.412389,0.009072495624423027,-0.0188840813934803,-0.3171408772468567,0.5205521583557129,-0.7314063310623169,-9.785840034484863
1745668036.4169714,-0.012712460942566395,-0.02649936079978943,-0.3180917501449585,0.5666950345039368,-0.9267854690551758,-9.689657211303711
1745668036.4205656,0.01000908762216568,-0.020052488893270493,-0.3157665729522705,0.39429372549057007,-0.6174756288528442,-9.632078170776367
1745668036.4229946,-0.02054142951965332,-0.02129948139190674,-0.3159862458705902,0.5030512809753418,-0.8829435110092163,-9.814535140991211
1745668036.465791,-0.00048499592230655253,-0.022564057260751724,-0.3152730464935303,0.36926692724227905,-0.7231003642082214,-9.873886108398438
1745668036.4659224,0.0020748607348650694,-0.02378666028380394,-0.3143298327922821,0.5765045881271362,-0.8212407827377319,-9.702322959899902
1745668036.466094,-0.0006638046470470726,-0.020866742357611656,-0.31325554847717285,0.34657466411590576,-0.5918812155723572,-9.71847915649414
1745668036.466144,-0.003221935359761119,-0.01480053924024105,-0.3145245611667633,0.5976201295852661,-0.7382758259773254,-9.702680587768555
1745668036.4969196,0.00626741349697113,-0.027117783203721046,-0.31522640585899353,0.5033883452415466,-0.6577603220939636,-9.719375610351562
1745668036.5008056,-0.003011878579854965,-0.01348835788667202,-0.31590768694877625,0.42317208647727966,-0.589450478553772,-9.850022315979004
1745668036.5107338,-0.004803857766091824,-0.02260163240134716,-0.3166748583316803,0.5152982473373413,-1.0339913368225098,-9.842338562011719
1745668036.512788,0.016311822459101677,-0.019421381875872612,-0.3137473464012146,0.40727168321609497,-0.48045721650123596,-9.565386772155762
1745668036.5386658,-0.010793332941830158,-0.018250012770295143,-0.3133032023906708,0.6436284780502319,-0.9448637962341309,-9.720563888549805
1745668036.5413988,0.016214493662118912,-0.019429299980401993,-0.3125235438346863,0.38985055685043335,-0.5875380039215088,-9.84132194519043
1745668036.5438085,0.008508269675076008,-0.016198446974158287,-0.311922550201416,0.5906044244766235,-0.6885350942611694,-9.747257232666016
1745668036.5474803,0.00305749149993062,-0.02015266939997673,-0.3121049404144287,0.4287700057029724,-0.7261113524436951,-9.727142333984375
1745668036.5510607,0.015595699660480022,-0.01616179570555687,-0.3133639395236969,0.4415350556373596,-0.6908878684043884,-9.758816719055176
1745668036.5823123,0.002674280432984233,-0.024360353127121925,-0.3111540675163269,0.5092934966087341,-0.8817654848098755,-9.82776165008545
1745668036.591467,-0.0013985246187075973,-0.015685534104704857,-0.313064843416214,0.3730096220970154,-0.6096407771110535,-9.743901252746582
1745668036.5944326,-8.664475899422541e-05,-0.016591716557741165,-0.3044046461582184,0.5884888768196106,-0.6831300854682922,-9.86320686340332
1745668036.5976822,-0.0082981763407588,-0.02014259062707424,-0.3069029450416565,0.40055280923843384,-0.7313721776008606,-9.863450050354004
1745668036.631363,0.007567866239696741,-0.013484647497534752,-0.303836464881897,0.4631948471069336,-0.5823327302932739,-9.580657958984375
1745668036.631416,-0.022504935041069984,-0.02447539009153843,-0.30512744188308716,0.4678410589694977,-0.9389396905899048,-9.721792221069336
1745668036.6314592,0.014505858533084393,-0.016793163493275642,-0.3026669919490814,0.3429965376853943,-0.6420027017593384,-9.846240043640137
1745668036.6347303,-0.017047837376594543,-0.015967320650815964,-0.30363643169403076,0.6337610483169556,-0.6724026203155518,-9.678751945495605
1745668036.6697092,-0.0027514281682670116,-0.013397100381553173,-0.3047276735305786,0.38199371099472046,-0.6887707710266113,-9.685098648071289
1745668036.6713386,0.0042738281190395355,-0.01849854178726673,-0.3049524128437042,0.5956842303276062,-0.5880042314529419,-9.654454231262207
1745668036.675413,-0.014125493355095387,-0.02066698670387268,-0.30360880494117737,0.41317740082740784,-0.7609525322914124,-10.004939079284668
1745668036.6763146,0.005925423465669155,-0.013905590400099754,-0.3045802712440491,0.4199010729789734,-0.6891554594039917,-9.901261329650879
1745668036.7129874,-0.012359959073364735,-0.022736039012670517,-0.3024553656578064,0.5164066553115845,-0.7846363186836243,-9.532805442810059
1745668036.7154157,-0.006637609098106623,-0.013866941444575787,-0.3029131293296814,0.3926774263381958,-0.600389301776886,-9.579739570617676
1745668036.718189,-0.019777759909629822,-0.02144549787044525,-0.3034941852092743,0.6103416681289673,-0.884162425994873,-9.871481895446777
1745668036.7234628,0.00249716779217124,-0.017982378602027893,-0.3020331859588623,0.3799515664577484,-0.46965837478637695,-9.835493087768555
1745668036.7256203,-0.021289482712745667,-0.014245924539864063,-0.30424103140830994,0.49960774183273315,-0.7496593594551086,-9.754392623901367
1745668036.7547185,0.0003830633941106498,-0.023254910483956337,-0.30367985367774963,0.44532641768455505,-0.7061613202095032,-9.719490051269531
1745668036.757405,-0.002045937580987811,-0.019182873889803886,-0.30329424142837524,0.4814992845058441,-0.44146519899368286,-9.687029838562012
1745668036.759795,-0.01691451668739319,-0.01929359883069992,-0.3028334975242615,0.4979860782623291,-0.884411633014679,-9.87049674987793
1745668036.7620814,0.013712157495319843,-0.014992443844676018,-0.3028857707977295,0.3756203055381775,-0.47335219383239746,-9.641655921936035
1745668036.7970915,-0.015311199240386486,-0.02164492756128311,-0.3001519441604614,0.6254709959030151,-0.8950700759887695,-9.738553047180176
1745668036.799667,0.00170183926820755,-0.021193280816078186,-0.3003184497356415,0.32331225275993347,-0.5710557699203491,-9.913506507873535
1745668036.8033454,-0.00714705279096961,-0.02214987203478813,-0.3013138473033905,0.3377956449985504,-0.34350690245628357,-9.534975051879883
1745668036.8059416,-0.017491664737462997,-0.01756875216960907,-0.30025482177734375,0.5595874786376953,-0.7853912115097046,-9.781536102294922
1745668036.8440664,4.527661803876981e-05,-0.019538063555955887,-0.3032606542110443,0.4094046652317047,-0.49069103598594666,-9.845196723937988
1745668036.8445437,-0.004574925638735294,-0.013925349339842796,-0.3016203045845032,0.5008929967880249,-0.6678962111473083,-9.732461929321289
1745668036.847852,-0.005651344545185566,-0.024057455360889435,-0.3016190826892853,0.4736348092556,-0.7466259598731995,-9.725401878356934
1745668036.8520858,-0.0018815211951732635,-0.01710878498852253,-0.29855263233184814,0.3659304082393646,-0.6054514646530151,-9.87384033203125
1745668036.88465,-0.006020268891006708,-0.020960485562682152,-0.2995143532752991,0.5793659090995789,-0.8295726776123047,-9.8064546585083
1745668036.8886313,-0.015416054055094719,-0.018031371757388115,-0.30072110891342163,0.3542948365211487,-0.5360130667686462,-9.665117263793945
1745668036.8929846,0.002089574933052063,-0.021475456655025482,-0.30094343423843384,0.6167104840278625,-0.8118162155151367,-9.6415433883667
1745668036.896925,-0.01353308092802763,-0.01920718140900135,-0.30118921399116516,0.38725733757019043,-0.43180274963378906,-9.740303993225098
1745668036.900078,-0.00973004475235939,-0.013154651038348675,-0.30141913890838623,0.48498544096946716,-0.8408327102661133,-9.924362182617188
1745668036.9285634,0.006335964892059565,-0.024750422686338425,-0.3008534908294678,0.4291268289089203,-0.5944099426269531,-9.692605972290039
1745668036.930207,-0.013612230308353901,-0.014211880974471569,-0.29937294125556946,0.3205665946006775,-0.638076663017273,-9.73199462890625
1745668036.9334302,0.002005651593208313,-0.020403817296028137,-0.2975779175758362,0.5461360216140747,-0.8055141568183899,-9.741889953613281
1745668036.9370422,-0.003274304326623678,-0.02047802321612835,-0.2954726815223694,0.5706666707992554,-0.4541197717189789,-9.646498680114746
1745668036.9715056,-0.004654102958738804,-0.020336845889687538,-0.2960019111633301,0.34036821126937866,-0.6874951124191284,-9.826415061950684
1745668036.9743524,0.02158479019999504,-0.017034683376550674,-0.2963342070579529,0.4984871745109558,-0.4880259037017822,-9.609434127807617
1745668036.978764,-0.010948426090180874,-0.025101104751229286,-0.29501304030418396,0.4452137351036072,-0.7534690499305725,-9.836549758911133
1745668036.9836044,0.016530217602849007,-0.014693831093609333,-0.2938616871833801,0.3424389362335205,-0.6229583024978638,-9.949570655822754
1745668037.0115707,-0.006068164948374033,-0.02244216948747635,-0.29265105724334717,0.48705530166625977,-0.717102587223053,-9.678808212280273
1745668037.0156326,0.003755670739337802,-0.016254447400569916,-0.2937958240509033,0.34001868963241577,-0.512781023979187,-9.553403854370117
1745668037.0180733,-0.01093452051281929,-0.020348981022834778,-0.2966211140155792,0.5946825742721558,-0.7548427581787109,-9.726736068725586
1745668037.0198195,0.007905231788754463,-0.021154696121811867,-0.29491275548934937,0.3865792751312256,-0.5251373648643494,-9.888227462768555
1745668037.023042,-0.009772236458957195,-0.01005483977496624,-0.29317596554756165,0.48499244451522827,-0.5986677408218384,-9.812082290649414
1745668037.0569646,-0.0037985909730196,-0.022698963060975075,-0.2925083637237549,0.4313763976097107,-0.831027626991272,-9.790239334106445
1745668037.0599318,0.016705090180039406,-0.01790599711239338,-0.29074525833129883,0.36997365951538086,-0.2983502447605133,-9.626486778259277
1745668037.0622787,-0.008453303948044777,-0.016772478818893433,-0.29297590255737305,0.47473660111427307,-0.7562392950057983,-9.791543960571289
1745668037.0650675,0.02655547298491001,-0.011363623663783073,-0.2931545674800873,0.301005095243454,-0.33966949582099915,-9.703680038452148
1745668037.1011896,0.007454720325767994,-0.015937596559524536,-0.29303038120269775,0.6165386438369751,-0.6634231209754944,-9.666167259216309
1745668037.104461,0.016336340457201004,-0.019340623170137405,-0.2923917770385742,0.32970166206359863,-0.5402265787124634,-9.964190483093262
1745668037.107529,0.017018934711813927,-0.012265881523489952,-0.2938959300518036,0.4826175570487976,-0.6912567019462585,-9.911188125610352
1745668037.1101253,0.0057534328661859035,-0.021485354751348495,-0.2931442856788635,0.4364472031593323,-0.7556665539741516,-9.65857219696045
1745668037.1405663,-0.000890929251909256,-0.013841668143868446,-0.2912139296531677,0.45739418268203735,-0.641696572303772,-9.569578170776367
1745668037.1438103,0.00027256831526756287,-0.024318937212228775,-0.2916012406349182,0.5489055514335632,-0.878679096698761,-9.839973449707031
1745668037.1462681,-0.0024547367356717587,-0.007417554501444101,-0.2924001216888428,0.285553514957428,-0.3423251211643219,-9.822124481201172
1745668037.1515076,0.014971500262618065,-0.011971456930041313,-0.29053187370300293,0.5670824646949768,-0.7464812397956848,-9.882108688354492
1745668037.1834214,0.0030149684753268957,-0.015297867357730865,-0.29081857204437256,0.3406737744808197,-0.3798373341560364,-9.54929256439209
1745668037.186625,0.014629639685153961,-0.014893168583512306,-0.2910707890987396,0.48015254735946655,-0.8262270092964172,-9.658197402954102
1745668037.1878126,0.009192789904773235,-0.016452664509415627,-0.29125112295150757,0.41305574774742126,-0.43477362394332886,-9.81672477722168
1745668037.1887522,0.0004695833777077496,-0.0036271275021135807,-0.2930850088596344,0.38762927055358887,-0.6467748880386353,-9.885137557983398
1745668037.1968212,0.02401881478726864,-0.01662224903702736,-0.28950685262680054,0.4669802188873291,-0.6858994364738464,-9.599459648132324
1745668037.2277157,0.00818745605647564,-0.013952793553471565,-0.2915829122066498,0.35804128646850586,-0.47165149450302124,-9.742834091186523
1745668037.2316356,0.018227890133857727,-0.012373191304504871,-0.2881336510181427,0.5593970417976379,-0.8255942463874817,-10.01121711730957
1745668037.2352672,0.014779239892959595,-0.012898062355816364,-0.29012244939804077,0.320178747177124,-0.46142902970314026,-9.751971244812012
1745668037.2384827,0.020322073251008987,-0.007836536504328251,-0.28729042410850525,0.5550222396850586,-0.7239894866943359,-9.477262496948242
1745668037.272186,0.0024643049109727144,-0.0202295184135437,-0.28905537724494934,0.42321616411209106,-0.6212335228919983,-9.741928100585938
1745668037.2763906,0.01564808003604412,-0.009076857008039951,-0.2895328998565674,0.40085214376449585,-0.705976665019989,-10.09147834777832
1745668037.2791133,-0.0004967421409673989,-0.014934656210243702,-0.2890762388706207,0.48286062479019165,-0.5527151823043823,-9.764857292175293
1745668037.2830255,-0.0031596373300999403,-0.011908598244190216,-0.29049766063690186,0.29339608550071716,-0.6581013798713684,-9.620630264282227
1745668037.289915,0.01884859800338745,-0.017076021060347557,-0.290647029876709,0.580492377281189,-0.5732866525650024,-9.549518585205078
1745668037.3163607,0.005784736480563879,-0.013232730329036713,-0.2894086241722107,0.518758237361908,-0.5728240013122559,-9.658496856689453
1745668037.3191185,0.009645340964198112,-0.023804204538464546,-0.29017314314842224,0.4501388669013977,-0.6664783358573914,-9.711633682250977
1745668037.324773,0.011374467983841896,-0.006650802679359913,-0.289980947971344,0.3772493898868561,-0.3492871820926666,-9.796445846557617
1745668037.3268094,-0.0036332649178802967,-0.01797310635447502,-0.2911939024925232,0.5018097758293152,-0.8252295255661011,-9.878854751586914
1745668037.3572214,0.027056744322180748,-0.014212203212082386,-0.2899072766304016,0.23210783302783966,-0.33868709206581116,-9.690033912658691
1745668037.3597786,0.0024867223110049963,-0.016436530277132988,-0.2900277078151703,0.5016315579414368,-0.7440801858901978,-9.66358470916748
1745668037.3614576,0.022027894854545593,-0.014868510887026787,-0.29085230827331543,0.3084016442298889,-0.5456472635269165,-9.786840438842773
1745668037.3640075,0.01761510968208313,-0.010587760247290134,-0.2907038927078247,0.4940509796142578,-0.5826433897018433,-9.730661392211914
1745668037.3998213,0.008485851809382439,-0.017336992546916008,-0.29016685485839844,0.4359605312347412,-0.6697201132774353,-9.791410446166992
1745668037.4010031,0.017167117446660995,-0.010849922895431519,-0.2908782362937927,0.34639444947242737,-0.5645636320114136,-9.84785270690918
1745668037.4050906,0.011396788991987705,-0.01898912712931633,-0.2903987169265747,0.483206570148468,-0.7851487994194031,-9.804667472839355
1745668037.406346,0.0062123737297952175,-0.009232655167579651,-0.2893301546573639,0.29798704385757446,-0.37839964032173157,-9.663941383361816
1745668037.4085028,0.008246982470154762,-0.015606840141117573,-0.29140496253967285,0.5357135534286499,-0.8943170309066772,-9.712247848510742
1745668037.4420025,0.015555748715996742,-0.017741847783327103,-0.29040390253067017,0.37729278206825256,-0.3250132203102112,-9.72242546081543
1745668037.4452522,0.002638719044625759,-0.0071604205295443535,-0.29251769185066223,0.5091767311096191,-0.676777720451355,-9.908638000488281
1745668037.4453046,0.026008885353803635,-0.01721043884754181,-0.28813013434410095,0.3588295876979828,-0.594264566898346,-9.770857810974121
1745668037.447894,0.015860699117183685,-0.009380162693560123,-0.2914639115333557,0.3381335437297821,-0.42621898651123047,-9.640724182128906
1745668037.4839091,0.022501766681671143,-0.018228653818368912,-0.2895141541957855,0.4717802107334137,-0.7874065637588501,-9.831884384155273
1745668037.4861708,0.02769162692129612,-0.013991458341479301,-0.28893202543258667,0.26614993810653687,-0.37786850333213806,-9.783263206481934
1745668037.4889643,0.02565036714076996,-0.010295091196894646,-0.2900594472885132,0.5559441447257996,-0.7587898969650269,-9.678354263305664
1745668037.492181,0.01806318573653698,-0.015281548723578453,-0.28919675946235657,0.3390308916568756,-0.5397554636001587,-9.722555160522461
1745668037.4922922,0.02379506453871727,-0.009302760474383831,-0.29035788774490356,0.47920888662338257,-0.7617921829223633,-9.85920524597168
1745668037.5296996,0.034427709877491,-0.006981447339057922,-0.28754132986068726,0.43188944458961487,-0.5966941118240356,-9.713720321655273
1745668037.5308564,0.034202829003334045,-0.017444970086216927,-0.29074424505233765,0.4144548773765564,-0.5828792452812195,-9.798667907714844
1745668037.533114,0.040393758565187454,-0.008080711588263512,-0.28919270634651184,0.4142023026943207,-0.5672868490219116,-9.823429107666016
1745668037.5357933,0.03018898144364357,-0.01513769943267107,-0.286306768655777,0.551592230796814,-0.77330082654953,-9.767864227294922
1745668037.5833976,0.02754119038581848,-0.010445754043757915,-0.28820452094078064,0.31826087832450867,-0.6287493705749512,-9.751740455627441
1745668037.5835268,0.03952530771493912,-0.012855315580964088,-0.28702667355537415,0.5431851744651794,-0.6257791519165039,-9.670777320861816
1745668037.583563,0.009892404079437256,-0.01231730729341507,-0.28731971979141235,0.2657063603401184,-0.6207760572433472,-9.889020919799805
1745668037.5839033,0.04694370552897453,-0.011222713626921177,-0.2883754372596741,0.469763845205307,-0.6463851928710938,-9.76188850402832
1745668037.6147223,0.022663665935397148,-0.01860048808157444,-0.28999990224838257,0.39060893654823303,-0.4472462236881256,-9.634500503540039
1745668037.6198032,0.0326753631234169,-0.0054088677279651165,-0.2884228229522705,0.31624841690063477,-0.7048894166946411,-9.871136665344238
1745668037.6239989,0.04134708642959595,-0.015570482239127159,-0.28897908329963684,0.5068668127059937,-0.600011944770813,-9.678467750549316
1745668037.632585,0.02746030129492283,-0.010423058643937111,-0.28817546367645264,0.3349400460720062,-0.6291979551315308,-9.770524978637695
1745668037.6362057,0.039390869438648224,-0.012041975744068623,-0.2873995006084442,0.5230420231819153,-0.7224153280258179,-9.763041496276855
1745668037.6591418,0.02675417996942997,-0.017244843766093254,-0.28597909212112427,0.33041664958000183,-0.6293187141418457,-9.846553802490234
1745668037.6605263,0.015667714178562164,-0.015482401475310326,-0.2896884083747864,0.42247629165649414,-0.7758877873420715,-9.854330062866211
1745668037.6633348,0.029887014999985695,-0.01080484502017498,-0.2898033559322357,0.2787485718727112,-0.4587021470069885,-9.688799858093262
1745668037.663404,0.01707720384001732,-0.0143821369856596,-0.28927916288375854,0.588638424873352,-0.8417655825614929,-9.661023139953613
1745668037.7019398,0.02070102095603943,-0.014716905541718006,-0.28729790449142456,0.3195403218269348,-0.5679134130477905,-9.864592552185059
1745668037.7043307,0.017484338954091072,-0.01094270683825016,-0.288150817155838,0.5236889123916626,-0.8409342765808105,-9.856816291809082
1745668037.7067537,0.016005288809537888,-0.015880124643445015,-0.2851868271827698,0.4050728380680084,-0.4800899624824524,-9.646419525146484
1745668037.708877,0.007159919943660498,-0.010283486917614937,-0.2904415726661682,0.3866615295410156,-0.7411154508590698,-9.753934860229492
1745668037.7471697,0.02346065267920494,-0.0206308476626873,-0.28789812326431274,0.46311497688293457,-0.6874820590019226,-9.772390365600586
1745668037.7472472,0.005260297562927008,-0.010010224767029285,-0.28985685110092163,0.316650927066803,-0.37184280157089233,-9.77351188659668
1745668037.7472951,0.020550614222884178,-0.011501360684633255,-0.28962647914886475,0.4871806204319,-0.8622056245803833,-9.727232933044434
1745668037.749568,0.02126951888203621,-0.013257041573524475,-0.2915254533290863,0.27593088150024414,-0.3201119303703308,-9.610196113586426
1745668037.75196,0.021056804805994034,-0.010232435539364815,-0.28905659914016724,0.4847213625907898,-0.8134506940841675,-9.862363815307617
1745668037.7896476,0.02199520543217659,-0.01711345836520195,-0.2885013818740845,0.3566235899925232,-0.5590047836303711,-9.933672904968262
1745668037.7952297,0.028911206871271133,-0.008962725289165974,-0.28995466232299805,0.44516730308532715,-0.6708297729492188,-9.700810432434082
1745668037.79937,0.015835991129279137,-0.017836105078458786,-0.28735798597335815,0.5097309350967407,-0.7459150552749634,-9.604745864868164
1745668037.8030622,0.017149996012449265,-0.010255731642246246,-0.2865881025791168,0.32776883244514465,-0.7064787149429321,-9.776534080505371
1745668037.8293142,0.024902652949094772,-0.013378387317061424,-0.2893570065498352,0.5453832149505615,-0.7095495462417603,-9.758360862731934
1745668037.831121,-0.004516934044659138,-0.012844771146774292,-0.28752607107162476,0.24518036842346191,-0.5715629458427429,-9.824348449707031
1745668037.833817,0.02757478877902031,-0.01209783274680376,-0.28901588916778564,0.5320554971694946,-0.7782918214797974,-9.749395370483398
1745668037.8349671,0.006802137941122055,-0.018876727670431137,-0.28950124979019165,0.34402722120285034,-0.39821943640708923,-9.682208061218262
1745668037.8382437,0.01657552272081375,-0.008660351857542992,-0.288891077041626,0.3983236849308014,-0.7501612305641174,-9.887402534484863
1745668037.8743405,0.024153264239430428,-0.016979455947875977,-0.2907941937446594,0.4423404633998871,-0.5656102895736694,-9.67860221862793
1745668037.8794737,0.03965887799859047,-0.012430998496711254,-0.28618258237838745,0.40227770805358887,-0.6550104022026062,-9.682489395141602
1745668037.8825283,0.007802883628755808,-0.017214464023709297,-0.2914624512195587,0.4777907729148865,-0.5572456121444702,-9.680879592895508
1745668037.8860276,0.021836407482624054,-0.012751778587698936,-0.2895798087120056,0.27738386392593384,-0.7260743975639343,-9.93017578125
1745668037.917544,0.035954300314188004,-0.018141230568289757,-0.28940698504447937,0.5045158267021179,-0.5200580358505249,-9.702017784118652
1745668037.9210134,0.010477157309651375,-0.014235660433769226,-0.2899843752384186,0.2979757487773895,-0.5640735626220703,-9.751118659973145
1745668037.9237478,0.042204562574625015,-0.01475171186029911,-0.28903037309646606,0.5266165137290955,-0.7464639544487,-9.705761909484863
1745668037.9248276,0.016786810010671616,-0.01991242729127407,-0.2893965542316437,0.4111044406890869,-0.6321834325790405,-9.742635726928711
1745668037.9593933,0.03434634208679199,-0.008569573983550072,-0.28579241037368774,0.38871288299560547,-0.6756951808929443,-9.79857063293457
1745668037.9631433,0.01692371629178524,-0.01997167430818081,-0.28602343797683716,0.4536208212375641,-0.7970463037490845,-9.741694450378418
1745668037.9693353,0.029211271554231644,-0.01500103808939457,-0.2852891981601715,0.3080844283103943,-0.5943639874458313,-9.824310302734375
1745668037.969811,0.016145333647727966,-0.01689513586461544,-0.28742092847824097,0.5548728108406067,-0.5835748910903931,-9.739435195922852
1745668037.9704766,0.025875110179185867,-0.01964227668941021,-0.285795122385025,0.2782461941242218,-0.7328382730484009,-9.788717269897461
1745668038.0030508,0.03756891191005707,-0.010401974432170391,-0.2855936884880066,0.5079006552696228,-0.48608556389808655,-9.521276473999023
1745668038.006617,0.004430616740137339,-0.0189471784979105,-0.28502723574638367,0.38427743315696716,-0.7695032358169556,-9.823728561401367
1745668038.0066876,0.01604129746556282,-0.02109770104289055,-0.2834555506706238,0.28852349519729614,-0.40245524048805237,-9.755231857299805
1745668038.009048,0.010296034626662731,-0.010985525324940681,-0.2835237383842468,0.4712134301662445,-0.7847450971603394,-9.705381393432617
1745668038.0471919,0.023284848779439926,-0.02080889418721199,-0.2831293046474457,0.41962480545043945,-0.5103342533111572,-9.63453483581543
1745668038.0515993,0.01774345524609089,-0.015188785269856453,-0.28642207384109497,0.40322548151016235,-0.590155303478241,-9.785717964172363
1745668038.0562904,0.017724258825182915,-0.018990477547049522,-0.28447896242141724,0.463381290435791,-0.7703452110290527,-9.920048713684082
1745668038.0602224,0.01570379175245762,-0.013510199263691902,-0.28713589906692505,0.277532160282135,-0.5849393606185913,-9.732772827148438
1745668038.0889797,0.01610739901661873,-0.02189004421234131,-0.2832924723625183,0.5828885436058044,-0.867149829864502,-9.624937057495117
1745668038.0921757,-0.003620065748691559,-0.021632518619298935,-0.2865646481513977,0.36483606696128845,-0.6237467527389526,-9.798163414001465
1745668038.0956428,0.021152174100279808,-0.01767612062394619,-0.28649935126304626,0.527655303478241,-0.8671051263809204,-9.881570816040039
1745668038.100946,0.002775126602500677,-0.016990872099995613,-0.2830979824066162,0.3655150532722473,-0.5093989372253418,-9.64466667175293
1745668038.1039696,0.004046774469316006,-0.012339530512690544,-0.2844180166721344,0.3828434646129608,-0.768338143825531,-9.670190811157227
1745668038.1310272,0.019360963255167007,-0.023051869124174118,-0.2842787206172943,0.42973628640174866,-0.5695430636405945,-9.712854385375977
1745668038.1331162,0.005726742558181286,-0.01351964008063078,-0.2873612344264984,0.2561565041542053,-0.5376914739608765,-9.932567596435547
1745668038.1352432,0.026532432064414024,-0.015106955543160439,-0.28676337003707886,0.5160315632820129,-0.7779512405395508,-9.768593788146973
1745668038.1364686,0.011642856523394585,-0.01844119094312191,-0.28572696447372437,0.3379145860671997,-0.5652779340744019,-9.579707145690918
1745668038.1755514,0.019301477819681168,-0.015917029231786728,-0.2860566973686218,0.5626106858253479,-0.8394553065299988,-9.758036613464355
1745668038.1769938,6.0835667682113126e-05,-0.02053476683795452,-0.2841624319553375,0.3790196180343628,-0.7541165947914124,-9.978933334350586
1745668038.1782453,0.016045261174440384,-0.012854630127549171,-0.2848297953605652,0.39629870653152466,-0.7439852952957153,-9.829025268554688
1745668038.1811993,-0.0041773514822125435,-0.022099418565630913,-0.28476840257644653,0.48929470777511597,-0.6191186308860779,-9.524221420288086
1745668038.1836982,0.0040115551091730595,-0.018215321004390717,-0.28659090399742126,0.26534539461135864,-0.6576220393180847,-9.769651412963867
1745668038.2213461,0.021032214164733887,-0.018039526417851448,-0.28723132610321045,0.5536699295043945,-0.5066930651664734,-9.72285270690918
1745668038.2247803,-0.007861612364649773,-0.014851403422653675,-0.29002267122268677,0.3085900545120239,-0.609365701675415,-9.886186599731445
1745668038.22939,0.03356526046991348,-0.01310759223997593,-0.28835541009902954,0.42220836877822876,-0.7600035667419434,-9.672968864440918
1745668038.2335584,0.010820677503943443,-0.020190894603729248,-0.28611353039741516,0.48301202058792114,-0.7119513750076294,-9.7188138961792
1745668038.2619221,0.013024972751736641,-0.015448564663529396,-0.28619033098220825,0.3777422308921814,-0.6316949129104614,-9.612954139709473
1745668038.2639146,0.004506313242018223,-0.022540830075740814,-0.28431573510169983,0.5643975734710693,-0.7684493064880371,-9.750574111938477
1745668038.2671733,0.0002132005029125139,-0.019968390464782715,-0.2874099612236023,0.27239498496055603,-0.701306939125061,-10.000930786132812
1745668038.2701051,0.01402097474783659,-0.013122066855430603,-0.2862921357154846,0.4810118079185486,-0.5541701316833496,-9.717844009399414
1745668038.3039396,-0.015115889720618725,-0.02283603698015213,-0.2845939099788666,0.31232398748397827,-0.792127251625061,-9.676704406738281
1745668038.3141983,0.028782572597265244,-0.015435820445418358,-0.28625401854515076,0.39364713430404663,-0.5823947787284851,-9.655316352844238
1745668038.3143919,-0.007095748092979193,-0.021924348548054695,-0.2861562967300415,0.5324230790138245,-0.6009874939918518,-9.798957824707031
1745668038.314524,0.021947303786873817,-0.010192196816205978,-0.28700166940689087,0.29930418729782104,-0.6318895816802979,-9.907167434692383
1745668038.3146021,0.02327224239706993,-0.016924351453781128,-0.2849850058555603,0.5024813413619995,-0.541512131690979,-9.57840633392334
1745668038.3492792,0.012851151637732983,-0.017758794128894806,-0.28473806381225586,0.280306875705719,-0.6429601907730103,-9.78963851928711
1745668038.3510187,0.0311133973300457,-0.015716318041086197,-0.2859751284122467,0.46712613105773926,-0.6965139508247375,-9.872014045715332
1745668038.3562903,0.0131241949275136,-0.02209498919546604,-0.28509610891342163,0.3599478602409363,-0.6792657971382141,-9.795671463012695
1745668038.3597322,0.009754164144396782,-0.01408252865076065,-0.28626927733421326,0.40940871834754944,-0.9268894195556641,-9.930730819702148
1745668038.3903573,0.021595947444438934,-0.018941083922982216,-0.28603804111480713,0.43597888946533203,-0.6002005338668823,-9.709212303161621
1745668038.3910687,0.0033036046661436558,-0.008993463590741158,-0.28503063321113586,0.3618886172771454,-0.5417358875274658,-9.666101455688477
1745668038.3928268,0.01986176148056984,-0.018028879538178444,-0.2858126759529114,0.49707794189453125,-0.7976709604263306,-9.71558666229248
1745668038.3971984,0.024008743464946747,-0.016042429953813553,-0.28509461879730225,0.2614414095878601,-0.35798215866088867,-9.8457612991333
1745668038.4346983,0.026503240689635277,-0.012634286656975746,-0.2825527489185333,0.45344123244285583,-0.8431307077407837,-9.904184341430664
1745668038.4379961,0.03598761558532715,-0.018652137368917465,-0.28339076042175293,0.28750279545783997,-0.5354123711585999,-9.633954048156738
1745668038.4406295,0.038155004382133484,-0.012938061729073524,-0.28416088223457336,0.49492043256759644,-0.6980184316635132,-9.550490379333496
1745668038.4444284,0.02754915878176689,-0.02004365809261799,-0.2827097475528717,0.4700268805027008,-0.6867378354072571,-9.8394775390625
1745668038.4790757,0.033574074506759644,-0.009896610863506794,-0.28565746545791626,0.36622247099876404,-0.7141822576522827,-9.914995193481445
1745668038.479186,0.03018060326576233,-0.01480721216648817,-0.28373727202415466,0.5330299139022827,-0.7863911986351013,-9.572809219360352
1745668038.4828112,0.003769266651943326,-0.012568746693432331,-0.28511375188827515,0.22819256782531738,-0.745501697063446,-9.692367553710938
1745668038.4859629,0.02766861580312252,-0.014970796182751656,-0.2845894694328308,0.5070948600769043,-0.8458316922187805,-9.831555366516113
1745668038.490136,0.0042143394239246845,-0.015510765835642815,-0.2864301800727844,0.2972356975078583,-0.42735224962234497,-9.775349617004395
1745668038.5189054,0.016815820708870888,-0.006042328663170338,-0.28692179918289185,0.4704447388648987,-0.8150604963302612,-9.697824478149414
1745668038.5214128,0.023596111685037613,-0.019425997510552406,-0.2866446077823639,0.419013112783432,-0.48952779173851013,-9.564635276794434
1745668038.5250106,0.02302556298673153,-0.010364166460931301,-0.288419246673584,0.3463385999202728,-0.6567076444625854,-9.93966007232666
1745668038.5251179,0.028053492307662964,-0.017293598502874374,-0.2855556011199951,0.4718034863471985,-0.7616714239120483,-9.926881790161133
1745668038.5613298,0.02761051058769226,-0.013566744513809681,-0.2845515012741089,0.27704301476478577,-0.6539366841316223,-9.685518264770508
1745668038.5727222,0.029711037874221802,-0.01877131685614586,-0.2826082110404968,0.5275106430053711,-0.7980773448944092,-9.57801342010498
1745668038.5728064,0.009951693005859852,-0.020949292927980423,-0.28546831011772156,0.34151992201805115,-0.666477620601654,-9.872940063476562
1745668038.572849,0.04132944718003273,-0.010819906368851662,-0.28653448820114136,0.46595683693885803,-0.5996273159980774,-9.774460792541504
1745668038.576336,-0.0010109662543982267,-0.016064634546637535,-0.28919559717178345,0.445662260055542,-0.590442955493927,-9.638437271118164
1745668038.6061995,0.02619091235101223,-0.01475206296890974,-0.2905036509037018,0.4067412316799164,-0.8207999467849731,-9.813253402709961
1745668038.6095405,0.01775548979640007,-0.023383328691124916,-0.2884674668312073,0.5071784257888794,-0.7257404327392578,-9.795634269714355
1745668038.6127803,0.009246798232197762,-0.01261198054999113,-0.2867943346500397,0.24652060866355896,-0.7722089290618896,-9.869860649108887
1745668038.6161134,0.02788335084915161,-0.012508800253272057,-0.28607818484306335,0.4755621552467346,-0.6954751014709473,-9.528913497924805
1745668038.6463132,0.013040075078606606,-0.016433078795671463,-0.2837952971458435,0.32004106044769287,-0.5464064478874207,-9.530961036682129
1745668038.6484096,0.032803747802972794,-0.011091533116996288,-0.2848575711250305,0.43385210633277893,-0.6051597595214844,-9.871731758117676
1745668038.6527457,0.022573688998818398,-0.019130367785692215,-0.28553932905197144,0.3832036554813385,-0.6899551749229431,-10.003082275390625
1745668038.6556675,0.04187653586268425,-0.009700517170131207,-0.2869572639465332,0.3234218955039978,-0.5877374410629272,-9.752748489379883
1745668038.6587586,0.01775062270462513,-0.017827080562710762,-0.28465333580970764,0.477280855178833,-0.7686305642127991,-9.573517799377441
1745668038.6920917,0.036301907151937485,-0.015085381455719471,-0.2854650318622589,0.31703951954841614,-0.7416244745254517,-9.716333389282227
1745668038.6986775,0.02676646038889885,-0.009630662389099598,-0.28476518392562866,0.579551100730896,-0.6793924570083618,-9.69788646697998
1745668038.6988502,0.006425578147172928,-0.013856349512934685,-0.28641119599342346,0.3665696680545807,-0.7770235538482666,-9.8820219039917
1745668038.6989508,0.044204968959093094,-0.011636035516858101,-0.2849682867527008,0.46773844957351685,-0.5900815725326538,-9.74515151977539
1745668038.7383204,0.014524710364639759,-0.014662345871329308,-0.28046566247940063,0.5065690279006958,-0.8412408828735352,-9.758804321289062
1745668038.7398305,0.013606038875877857,-0.021612942218780518,-0.27655845880508423,0.39537912607192993,-0.7877413034439087,-9.933206558227539
1745668038.7436266,0.018893947824835777,-0.013745265081524849,-0.2762705683708191,0.28955745697021484,-0.6639358401298523,-9.85094928741455
1745668038.74648,0.017972005531191826,-0.021933171898126602,-0.2770689129829407,0.45336657762527466,-0.8258504867553711,-9.612210273742676
1745668038.7778585,0.004051412455737591,-0.019235076382756233,-0.2776358127593994,0.3136937916278839,-0.5871804356575012,-9.696020126342773
1745668038.7795324,0.026478782296180725,-0.02035353146493435,-0.2765771448612213,0.5646328926086426,-0.8865381479263306,-9.838560104370117
1745668038.781397,0.005519743077456951,-0.016899649053812027,-0.2789241671562195,0.31055933237075806,-0.5001071095466614,-9.80317497253418
1745668038.7854664,0.00983984861522913,-0.012321085669100285,-0.2777419090270996,0.47448453307151794,-0.9321521520614624,-9.753660202026367
1745668038.8199353,0.021096784621477127,-0.026718204841017723,-0.27744442224502563,0.43332117795944214,-0.606060802936554,-9.630552291870117
1745668038.8229053,0.004607195965945721,-0.01756933704018593,-0.27812591195106506,0.38457244634628296,-0.7172335386276245,-9.895659446716309
1745668038.825993,0.021440966054797173,-0.023337608203291893,-0.27344971895217896,0.5158750414848328,-0.8933635950088501,-9.894948959350586
1745668038.8271673,0.011918896809220314,-0.016826774924993515,-0.27476727962493896,0.28998351097106934,-0.5682671666145325,-9.610203742980957
1745668038.829759,0.015203142538666725,-0.019497763365507126,-0.27404195070266724,0.5022833943367004,-0.8379009962081909,-9.60328197479248
1745668038.8633497,0.010814711451530457,-0.023831091821193695,-0.2743626534938812,0.2797066271305084,-0.5819125175476074,-9.874089241027832
1745668038.8644078,0.022888248786330223,-0.015749584883451462,-0.27464625239372253,0.4244643747806549,-0.8033157587051392,-9.945625305175781
1745668038.8675725,0.00432378938421607,-0.02116735279560089,-0.2760864496231079,0.41988688707351685,-0.630876362323761,-9.627599716186523
1745668038.8697474,0.017363671213388443,-0.018047407269477844,-0.27466946840286255,0.35747188329696655,-0.9023831486701965,-9.689142227172852
1745668038.9066274,0.01694757118821144,-0.022126056253910065,-0.2738047242164612,0.5304950475692749,-0.7104735374450684,-9.739023208618164
1745668038.911006,-0.008045944385230541,-0.01259100716561079,-0.27448463439941406,0.3453788161277771,-0.739565372467041,-9.894518852233887
1745668038.9117992,0.02713237702846527,-0.01541410107165575,-0.2729834020137787,0.47113314270973206,-0.7978096604347229,-9.625301361083984
1745668038.9145565,-0.00656450679525733,-0.02028811350464821,-0.2726321220397949,0.2963391840457916,-0.5787246823310852,-9.663009643554688
1745668038.916761,0.01628938689827919,-0.014862125739455223,-0.27590838074684143,0.43719974160194397,-0.7706169486045837,-9.925172805786133
1745668038.9524605,0.006335745099931955,-0.02294425666332245,-0.2755178213119507,0.41380709409713745,-0.6711838245391846,-9.841573715209961
1745668038.9540873,0.007517997175455093,-0.017271829769015312,-0.2740207612514496,0.298161119222641,-0.7344205379486084,-9.872392654418945
1745668038.9561791,0.009343110024929047,-0.014907291159033775,-0.2717645466327667,0.5388110280036926,-0.6560713052749634,-9.796236038208008
1745668038.9936466,-0.010109147056937218,-0.020540282130241394,-0.27338534593582153,0.30063357949256897,-0.8278719782829285,-9.830480575561523
1745668038.9979408,0.029735129326581955,-0.015004684217274189,-0.273070752620697,0.4240550100803375,-0.6386705636978149,-9.614985466003418
1745668038.999673,-0.015808159485459328,-0.020614054054021835,-0.2711777091026306,0.4235212206840515,-0.6831179261207581,-9.722841262817383
1745668039.0025337,0.02039864845573902,-0.010415352880954742,-0.27281245589256287,0.2999524176120758,-0.7003449201583862,-9.867254257202148
1745668039.0042512,0.006708219647407532,-0.01847240887582302,-0.27249985933303833,0.4816530644893646,-0.6421681642532349,-9.64055347442627
1745668039.0374367,0.002997534815222025,-0.015483766794204712,-0.27468982338905334,0.2751278281211853,-0.7067610025405884,-9.752065658569336
1745668039.0411103,0.01396107953041792,-0.018106987699866295,-0.27374663949012756,0.515816330909729,-0.8176262974739075,-9.801838874816895
1745668039.0452542,-0.0010226448066532612,-0.02173498645424843,-0.2731083035469055,0.35345548391342163,-0.7649742364883423,-9.860822677612305
1745668039.0475779,0.009637882001698017,-0.010749009437859058,-0.27204927802085876,0.4292687773704529,-0.7535704374313354,-9.726903915405273
1745668039.0819173,-0.011651337146759033,-0.021130237728357315,-0.2694816589355469,0.4126339852809906,-0.9202204942703247,-9.670820236206055
1745668039.085286,0.01515008695423603,-0.01187800895422697,-0.26916778087615967,0.31395989656448364,-0.5250498652458191,-9.580810546875
1745668039.0854294,0.013228106312453747,-0.020810820162296295,-0.2706141173839569,0.42268332839012146,-0.603225588798523,-9.689367294311523
1745668039.0885365,-0.007197200320661068,-0.011030629277229309,-0.2738581597805023,0.30108699202537537,-0.48425284028053284,-9.716015815734863
1745668039.0896292,0.01765367202460766,-0.01443473994731903,-0.27245479822158813,0.5033943057060242,-0.8046982884407043,-9.705324172973633
1745668039.1244855,0.009067827835679054,-0.017389491200447083,-0.2740634083747864,0.28880709409713745,-0.362771600484848,-9.746193885803223
1745668039.1268935,0.015631526708602905,-0.011622114107012749,-0.273870050907135,0.4940040111541748,-0.8875488042831421,-9.912195205688477
1745668039.1282876,0.011010963469743729,-0.02103310264647007,-0.27362579107284546,0.33166471123695374,-0.6348150968551636,-9.749317169189453
1745668039.1286647,0.01646433025598526,-0.013392888009548187,-0.2720121145248413,0.4005270004272461,-0.7509838342666626,-9.620136260986328
1745668039.1632965,0.0007884969236329198,-0.020305287092924118,-0.2704527974128723,0.49319571256637573,-0.777828574180603,-9.705592155456543
1745668039.165989,0.0024341687094420195,-0.012016805820167065,-0.2700212001800537,0.2783181071281433,-0.677404522895813,-9.8973388671875
1745668039.168796,0.015773514285683632,-0.0147411422803998,-0.27195844054222107,0.5189302563667297,-0.6408546566963196,-9.657145500183105
1745668039.1714778,-0.011290055699646473,-0.015128539875149727,-0.2729739248752594,0.20746394991874695,-0.6336867213249207,-9.768376350402832
1745668039.1743982,0.02718428336083889,-0.013783836737275124,-0.2699209153652191,0.4695725440979004,-0.754366934299469,-9.754734992980957
1745668039.2089977,0.001493180519901216,-0.020764648914337158,-0.2724834680557251,0.341947078704834,-0.5021458864212036,-9.71944522857666
1745668039.214437,0.018484432250261307,-0.005491883959621191,-0.2704369127750397,0.3383394479751587,-0.7838538885116577,-9.825826644897461
1745668039.2164714,0.020208459347486496,-0.01665392890572548,-0.2706229090690613,0.4345526099205017,-0.561636209487915,-9.548114776611328
1745668039.2207627,0.012664136476814747,-0.008631226606667042,-0.2706574499607086,0.30296117067337036,-0.6311712265014648,-9.791183471679688
1745668039.2516508,0.024106089025735855,-0.013967459090054035,-0.26969480514526367,0.5241631269454956,-0.7492021322250366,-9.883173942565918
1745668039.2559407,0.011735336855053902,-0.013905918225646019,-0.2710682153701782,0.26352986693382263,-0.6161004304885864,-9.868019104003906
1745668039.2577543,0.027269059792160988,-0.00978858582675457,-0.2703142464160919,0.4416152834892273,-0.712569534778595,-9.67204761505127
1745668039.2631707,-0.0006169796106405556,-0.01885514333844185,-0.2706194519996643,0.34074389934539795,-0.7050883769989014,-9.630885124206543
1745668039.2939095,0.0361214242875576,-0.008224790915846825,-0.27106761932373047,0.36210161447525024,-0.6294732689857483,-9.677068710327148
1745668039.3042567,0.0009628332918509841,-0.012110942974686623,-0.27032551169395447,0.4844469428062439,-0.6495878100395203,-9.777605056762695
1745668039.3084118,0.02104680798947811,-0.008788286708295345,-0.2716684341430664,0.27139848470687866,-0.7768222093582153,-10.00469970703125
1745668039.3146331,0.041853904724121094,-0.007462664041668177,-0.26953554153442383,0.44924384355545044,-0.6704738736152649,-9.736373901367188
1745668039.3376327,0.009777429513633251,-0.012499360367655754,-0.27080634236335754,0.40185874700546265,-0.6724538207054138,-9.746955871582031
1745668039.3403492,0.02912026271224022,-0.004537318833172321,-0.27099013328552246,0.3469112813472748,-0.6631065607070923,-9.761420249938965
1745668039.3430345,0.009897164069116116,-0.018305478617548943,-0.2702964246273041,0.4959716796875,-0.8136202692985535,-9.80643367767334
1745668039.3464966,0.022226925939321518,-0.010620122775435448,-0.27062293887138367,0.3112533688545227,-0.688068687915802,-9.919648170471191
1745668039.350124,0.0030333069153130054,-0.012196189723908901,-0.27025291323661804,0.5191988348960876,-0.7279805541038513,-9.748955726623535
1745668039.3794198,0.015499892644584179,-0.015674572438001633,-0.2709087133407593,0.28860291838645935,-0.7584642171859741,-9.637788772583008
1745668039.3831723,0.02311750315129757,-0.0069999187253415585,-0.26802247762680054,0.4438011646270752,-0.524508535861969,-9.558362007141113
1745668039.387687,-0.0026157773099839687,-0.01306919939815998,-0.26967090368270874,0.3534505367279053,-0.7687739133834839,-9.929800987243652
1745668039.397855,0.045831285417079926,-0.007790838368237019,-0.2683038115501404,0.2752559781074524,-0.3972814381122589,-9.854693412780762
1745668039.4210596,0.013886409811675549,-0.012973718345165253,-0.27106451988220215,0.4618569016456604,-0.6754947304725647,-9.731650352478027
1745668039.4236686,0.04498228803277016,-0.010873096995055676,-0.272918701171875,0.28873640298843384,-0.5043240785598755,-9.703140258789062
1745668039.4250734,0.03330819681286812,-0.012533123604953289,-0.2706218659877777,0.5308108329772949,-0.7732197046279907,-9.680021286010742
1745668039.4283488,0.02264488860964775,-0.017496220767498016,-0.2683289647102356,0.48247194290161133,-0.7870250344276428,-9.741243362426758
1745668039.4321713,0.024411970749497414,-0.019031452015042305,-0.2719866931438446,0.2573396563529968,-0.6293465495109558,-9.686290740966797
1745668039.4698076,0.022152196615934372,-0.02026602253317833,-0.270413339138031,0.5069936513900757,-0.8700051307678223,-9.800586700439453
1745668039.4699116,0.004292959813028574,-0.018692556768655777,-0.26983097195625305,0.3096466660499573,-0.632520854473114,-9.914929389953613
1745668039.470805,0.02967788651585579,-0.017068983986973763,-0.27088266611099243,0.5019403100013733,-0.8710015416145325,-9.656750679016113
1745668039.4724286,0.012078115716576576,-0.020172826945781708,-0.2696506381034851,0.4105178713798523,-0.5285986065864563,-9.49450397491455
1745668039.5072286,0.010523654520511627,-0.012891583144664764,-0.27022862434387207,0.3697739839553833,-0.7753670811653137,-9.96291732788086
1745668039.509324,0.03736402839422226,-0.021568212658166885,-0.2700127959251404,0.42304477095603943,-0.6066364049911499,-9.872076034545898
1745668039.5108318,0.01736803725361824,-0.01351604051887989,-0.2706044316291809,0.25341102480888367,-0.5690494775772095,-9.733174324035645
1745668039.5131652,0.04133051633834839,-0.01861649937927723,-0.26891589164733887,0.486680805683136,-0.7622551321983337,-9.603086471557617
1745668039.5149882,0.02883966639637947,-0.019776783883571625,-0.26847848296165466,0.25793448090553284,-0.4931684136390686,-9.722884178161621
1745668039.5515637,0.037993766367435455,-0.012964742258191109,-0.269910991191864,0.5001965761184692,-0.8107218742370605,-9.810380935668945
1745668039.5526545,0.0231374092400074,-0.021578405052423477,-0.27236542105674744,0.4300817847251892,-0.7478207945823669,-9.767866134643555
1745668039.5627189,0.032060492783784866,-0.01486139465123415,-0.2696310877799988,0.40546250343322754,-0.8375891447067261,-9.825838088989258
1745668039.5627968,0.013040912337601185,-0.023679690435528755,-0.2695787847042084,0.5055446028709412,-0.7404042482376099,-9.77241325378418
1745668039.596593,0.016421139240264893,-0.016522638499736786,-0.2708507478237152,0.2602877616882324,-0.8806878924369812,-9.847757339477539
1745668039.598022,0.032789357006549835,-0.016338417306542397,-0.26649728417396545,0.49425816535949707,-0.6482954621315002,-9.48971176147461
1745668039.600724,-0.0026528798043727875,-0.020166810601949692,-0.26825302839279175,0.2986287474632263,-0.6717538237571716,-9.750262260437012
1745668039.6035788,0.04311845451593399,-0.013453640043735504,-0.2692192792892456,0.3756077289581299,-0.666885495185852,-9.85804557800293
1745668039.6378317,0.012923454865813255,-0.020021650940179825,-0.2704761028289795,0.34603187441825867,-0.5345731973648071,-9.782130241394043
1745668039.6396797,0.03342728316783905,-0.011848918162286282,-0.2724767327308655,0.3830024302005768,-0.7777358293533325,-9.807796478271484
1745668039.6428504,0.02295038476586342,-0.024213552474975586,-0.27051305770874023,0.5155428647994995,-0.7982504367828369,-9.704812049865723
1745668039.6453938,0.02413145825266838,-0.016231730580329895,-0.2699239253997803,0.3723611533641815,-0.782922089099884,-9.819432258605957
1745668039.6808162,-0.003114354331046343,-0.01953817345201969,-0.26918697357177734,0.27698713541030884,-0.7587725520133972,-9.958589553833008
1745668039.686083,0.043454449623823166,-0.013673719950020313,-0.2700551748275757,0.30420446395874023,-0.5340284109115601,-9.741189002990723
1745668039.6883926,0.007455720100551844,-0.021060708910226822,-0.27363258600234985,0.4672064185142517,-0.6561037302017212,-9.567121505737305
1745668039.691956,0.030815374106168747,-0.012978697195649147,-0.26912567019462585,0.31967413425445557,-0.8079332113265991,-9.802774429321289
1745668039.6942527,0.026997864246368408,-0.01686612330377102,-0.26887792348861694,0.51065593957901,-0.726233959197998,-9.770698547363281
1745668039.7248495,0.013062347657978535,-0.01425492949783802,-0.2684066891670227,0.30752119421958923,-0.8328975439071655,-9.858777046203613
1745668039.7271423,0.03235376998782158,-0.01571683958172798,-0.2655197083950043,0.5019320845603943,-0.7798662185668945,-9.687633514404297
1745668039.7294154,0.0065239607356488705,-0.02442295104265213,-0.26786568760871887,0.41415295004844666,-0.7606521844863892,-9.830724716186523
1745668039.7326999,0.02443891204893589,-0.014396445825695992,-0.2671908736228943,0.38258638978004456,-0.6477963924407959,-9.87048053741455
1745668039.7667673,0.001280640484765172,-0.01899450086057186,-0.2702665328979492,0.4359000623226166,-0.8189535140991211,-9.669699668884277
1745668039.7694817,0.028473014011979103,-0.01635923609137535,-0.26948055624961853,0.2977883219718933,-0.5822001099586487,-9.497376441955566
1745668039.770669,-0.003211692441254854,-0.018029434606432915,-0.26859578490257263,0.46463173627853394,-0.7832099199295044,-9.806673049926758
1745668039.7749712,0.004530230537056923,-0.012152629904448986,-0.26754385232925415,0.320473849773407,-0.5562022924423218,-9.499058723449707
1745668039.8111439,0.013279810547828674,-0.021151918917894363,-0.2651313245296478,0.5147104859352112,-0.9649547338485718,-9.621938705444336
1745668039.8135555,0.01637640967965126,-0.019273318350315094,-0.2663464844226837,0.24267251789569855,-0.379893958568573,-9.893196105957031
1745668039.8135831,0.014002819545567036,-0.013342839665710926,-0.2675860822200775,0.4813680648803711,-0.8706411123275757,-9.991869926452637
1745668039.8159106,0.018673673272132874,-0.020397130399942398,-0.2667405605316162,0.3305485248565674,-0.6004678606987,-9.608732223510742
1745668039.8572702,0.018615949898958206,-0.01980510726571083,-0.267829567193985,0.4534914493560791,-0.8260939717292786,-9.609511375427246
1745668039.8590066,0.008845184929668903,-0.02596934512257576,-0.2667207419872284,0.447700560092926,-0.7802914381027222,-9.855606079101562
1745668039.8595314,0.0064375074580311775,-0.011448264122009277,-0.26658421754837036,0.3435525596141815,-0.8203607797622681,-9.916241645812988
1745668039.8627908,0.013057619333267212,-0.0196203775703907,-0.26528581976890564,0.49879875779151917,-0.7413090467453003,-9.502784729003906
1745668039.8971112,-0.012160745449364185,-0.017692092806100845,-0.2682186961174011,0.24560849368572235,-0.6025441884994507,-9.677369117736816
1745668039.8972201,0.015986036509275436,-0.017987247556447983,-0.2672640383243561,0.5311292409896851,-0.8729395866394043,-9.959946632385254
1745668039.898702,0.004184085410088301,-0.022222137078642845,-0.2686452865600586,0.3137664496898651,-0.4531223177909851,-9.807781219482422
1745668039.9008203,0.009751690551638603,-0.011143346317112446,-0.2685534358024597,0.41615286469459534,-0.8927542567253113,-9.696542739868164
1745668039.90254,0.016250044107437134,-0.021618898957967758,-0.2674204707145691,0.36379536986351013,-0.6059433221817017,-9.526598930358887
1745668039.938816,0.01040495652705431,-0.011985613033175468,-0.2681446671485901,0.3325045704841614,-0.7092860341072083,-9.772454261779785
1745668039.9422956,0.01098436489701271,-0.016919564455747604,-0.26734209060668945,0.5144082903862,-0.8572908639907837,-9.855901718139648
1745668039.9450948,0.008411847054958344,-0.017662499099969864,-0.2666412889957428,0.30836546421051025,-0.627125084400177,-9.840863227844238
1745668039.947119,0.013341166079044342,-0.01914726011455059,-0.2679207921028137,0.4901456832885742,-0.8351842761039734,-9.759491920471191
1745668039.9827673,-0.00873756967484951,-0.01800227165222168,-0.2682446837425232,0.30841419100761414,-0.6526088118553162,-9.67467975616455
1745668039.9835904,0.019780993461608887,-0.014002889394760132,-0.2670423090457916,0.4789635241031647,-0.8457307815551758,-9.61862564086914
1745668039.9859202,-0.011865819804370403,-0.01768207922577858,-0.2690379321575165,0.36408430337905884,-0.6193400621414185,-9.68233585357666
1745668039.9905975,0.0007110547157935798,-0.011199298314750195,-0.26984676718711853,0.3006957173347473,-0.8106921911239624,-9.93617057800293
1745668039.994377,0.013381438329815865,-0.01797393523156643,-0.26939404010772705,0.4385185241699219,-0.5871515870094299,-9.682060241699219
1745668040.0267975,0.018183398991823196,-0.008454004302620888,-0.2694389820098877,0.4422440528869629,-0.8196133375167847,-9.682490348815918
1745668040.0289502,-0.002168720355257392,-0.021924814209342003,-0.2680125832557678,0.39293646812438965,-0.7999589443206787,-9.707521438598633
1745668040.0312235,0.01470061857253313,-0.011984686367213726,-0.26773005723953247,0.3606954514980316,-0.7746504545211792,-9.9029541015625
1745668040.0347905,-0.009335450828075409,-0.017315220087766647,-0.26901373267173767,0.4557221829891205,-0.6448456645011902,-9.82555103302002
1745668040.067837,0.0028852217365056276,-0.015517264604568481,-0.2711764872074127,0.253589928150177,-0.7618303298950195,-9.706465721130371
1745668040.0714455,0.009707901626825333,-0.015982788056135178,-0.2704070806503296,0.5686736106872559,-0.5986596941947937,-9.468999862670898
1745668040.074835,-0.020132262259721756,-0.01756295934319496,-0.2740642726421356,0.3702848255634308,-0.7838231325149536,-9.93617057800293
1745668040.0785122,0.018632540479302406,-0.01265018992125988,-0.2690998911857605,0.39785322546958923,-0.7699567675590515,-9.936336517333984
1745668040.079278,-0.01004908885806799,-0.017998263239860535,-0.2701464295387268,0.34672844409942627,-0.7116668820381165,-9.684948921203613
1745668040.1127675,0.010756934061646461,-0.010980247519910336,-0.2668142318725586,0.3479103147983551,-0.727931797504425,-9.631861686706543
1745668040.1152842,0.0009857325349003077,-0.02144502103328705,-0.2697817385196686,0.49643152952194214,-0.7299084067344666,-9.734621047973633
1745668040.1185248,0.008088083937764168,-0.012371242977678776,-0.2704848051071167,0.3133333623409271,-0.5670433640480042,-9.943594932556152
1745668040.12066,0.004736126400530338,-0.013428011909127235,-0.27007338404655457,0.4805234372615814,-0.7350935935974121,-9.696394920349121
1745668040.1552224,0.027269303798675537,-0.004490692634135485,-0.26951271295547485,0.32370954751968384,-0.5613081455230713,-9.81617546081543
1745668040.1576698,0.01925678923726082,-0.01609797030687332,-0.27094995975494385,0.48860806226730347,-0.827441394329071,-9.618339538574219
1745668040.157949,0.01392911933362484,-0.01299736462533474,-0.2684952914714813,0.33197152614593506,-0.5672324299812317,-9.751801490783691
1745668040.1596422,0.016828730702400208,-0.015470747835934162,-0.2683834731578827,0.5123786926269531,-1.0821945667266846,-9.88868236541748
1745668040.1998074,0.014719870872795582,-0.00921292882412672,-0.26901838183403015,0.33077627420425415,-0.5152926445007324,-9.61268424987793
1745668040.2028313,-0.0034671262837946415,-0.007760194130241871,-0.2647707462310791,0.5379785299301147,-0.9156347513198853,-9.667533874511719
1745668040.204684,0.016804911196231842,-0.019795751199126244,-0.2676289677619934,0.3069603443145752,-0.5956968069076538,-9.80943775177002
1745668040.2074745,0.009526195004582405,-0.007865178398787975,-0.2690035104751587,0.36367353796958923,-0.582704484462738,-9.91167163848877
1745668040.2395601,0.013789253309369087,-0.013775276951491833,-0.26717185974121094,0.450877845287323,-0.7825739979743958,-9.716362953186035
1745668040.243151,0.01891927793622017,-0.015479100868105888,-0.26855602860450745,0.2772376239299774,-0.5917699933052063,-9.557428359985352
1745668040.2440681,0.014816771261394024,-0.014685575850307941,-0.26788362860679626,0.5038145780563354,-0.8647648692131042,-9.780725479125977
1745668040.2461734,0.0077199786901474,-0.011495182290673256,-0.26543015241622925,0.2592037618160248,-0.6172615885734558,-9.902473449707031
1745668040.2475674,0.016989249736070633,-0.009291992522776127,-0.26506078243255615,0.5223208069801331,-0.9076205492019653,-9.729476928710938
1745668040.2842526,-0.00048229246749542654,-0.019373586401343346,-0.26781487464904785,0.40222781896591187,-0.5057321786880493,-9.591643333435059
1745668040.2866037,0.0021680735517293215,-0.014763015322387218,-0.26815447211265564,0.3593559265136719,-0.8508731722831726,-9.935600280761719
1745668040.2876642,0.015168331563472748,-0.017856810241937637,-0.2685783803462982,0.4205302596092224,-0.5949697494506836,-9.771682739257812
1745668040.2914171,-0.004923965781927109,-0.010309728793799877,-0.2702096700668335,0.3463975787162781,-0.5493505597114563,-9.62602710723877
1745668040.326709,0.015539986081421375,-0.01748276874423027,-0.2695516049861908,0.5177332758903503,-0.8801625967025757,-9.650858879089355
1745668040.3312485,0.007084972225129604,-0.01745240017771721,-0.26628464460372925,0.24227361381053925,-0.4390338957309723,-9.848434448242188
1745668040.3329284,0.01559232734143734,-0.011757861822843552,-0.26593875885009766,0.44494447112083435,-0.8839347958564758,-9.919087409973145
1745668040.3354461,0.014844931662082672,-0.02123386040329933,-0.264609158039093,0.31898337602615356,-0.6384426355361938,-9.672076225280762
1745668040.3383691,0.020673584192991257,-0.01539295632392168,-0.2662094235420227,0.39567533135414124,-0.65874844789505,-9.649011611938477
1745668040.3754501,-0.005422377027571201,-0.018496859818696976,-0.26763230562210083,0.3955994248390198,-0.5172487497329712,-9.61169719696045
1745668040.37552,0.007109394762665033,-0.012184018269181252,-0.26728320121765137,0.4531098008155823,-0.8509807586669922,-9.64657211303711
1745668040.3755684,0.011887239292263985,-0.020861154422163963,-0.26672691106796265,0.4496460556983948,-0.5632125735282898,-9.71705436706543
1745668040.4125793,0.005027059465646744,-0.01066737063229084,-0.2675759792327881,0.276196151971817,-0.6122984886169434,-9.982385635375977
1745668040.4138286,0.021387863904237747,-0.017578406259417534,-0.2647531032562256,0.48165541887283325,-0.7376469373703003,-9.727384567260742
1745668040.4149797,0.015500560402870178,-0.022452598437666893,-0.26607006788253784,0.2680422067642212,-0.5527335405349731,-9.637635231018066
1745668040.4230106,0.027274996042251587,-0.016489315778017044,-0.26551350951194763,0.4815044403076172,-0.7297967672348022,-9.755900382995605
1745668040.42308,0.004619682673364878,-0.01917872577905655,-0.26810145378112793,0.35539644956588745,-0.6809470057487488,-9.867853164672852
1745668040.4556112,0.03609586879611015,-0.01221370231360197,-0.2663653492927551,0.44796618819236755,-0.7120166420936584,-9.65640926361084
1745668040.45758,-0.0020948927849531174,-0.021353716030716896,-0.2682296633720398,0.48566675186157227,-0.7253676056861877,-9.622298240661621
1745668040.459462,0.01291611511260271,-0.016462624073028564,-0.2674795985221863,0.29214590787887573,-0.8430078625679016,-9.978965759277344
1745668040.4623206,0.018815381452441216,-0.019571980461478233,-0.26694679260253906,0.5141363143920898,-0.6777846813201904,-9.73257064819336
1745668040.499841,-0.005226121284067631,-0.015889927744865417,-0.26690492033958435,0.2689831554889679,-0.6904597878456116,-9.677255630493164
1745668040.50447,0.0265024546533823,-0.014696942642331123,-0.2655351161956787,0.4422372281551361,-0.635839581489563,-9.637990951538086
1745668040.517507,0.005674602929502726,-0.021566355600953102,-0.271300345659256,0.4877275824546814,-0.8908670544624329,-9.883328437805176
1745668040.51761,0.025197062641382217,-0.011537127196788788,-0.2688027024269104,0.2878827452659607,-0.40473198890686035,-9.792880058288574
1745668040.517659,0.005333258770406246,-0.016200633719563484,-0.26909077167510986,0.5773686766624451,-0.9196954965591431,-9.700090408325195
1745668040.5419426,0.01484735868871212,-0.02330595627427101,-0.2666662335395813,0.3034144937992096,-0.5940868258476257,-9.799246788024902
1745668040.5432153,0.016715604811906815,-0.01836371421813965,-0.26899608969688416,0.46437230706214905,-0.7744441032409668,-9.931137084960938
1745668040.5449026,0.011014994233846664,-0.021680396050214767,-0.26737427711486816,0.3101394772529602,-0.6810652017593384,-9.810364723205566
1745668040.5473042,0.008009006269276142,-0.013964960351586342,-0.2697456479072571,0.3951413035392761,-0.6865049600601196,-9.553523063659668
1745668040.588464,0.0212513729929924,-0.024706240743398666,-0.26704245805740356,0.4770871102809906,-0.7564338445663452,-9.602871894836426
1745668040.5885725,0.0030056932009756565,-0.013682210817933083,-0.26917359232902527,0.25637996196746826,-0.4901750981807709,-9.975691795349121
1745668040.5954053,0.017810387536883354,-0.018981575965881348,-0.269065260887146,0.509426474571228,-0.9288020133972168,-9.994893074035645
1745668040.598811,0.022252950817346573,-0.021398574113845825,-0.26939865946769714,0.24707642197608948,-0.39399200677871704,-9.576025009155273
1745668040.60213,0.011178078129887581,-0.01627369038760662,-0.26894158124923706,0.4758569300174713,-0.8545597195625305,-9.640512466430664
1745668040.627709,0.0258253812789917,-0.02068142779171467,-0.2701081931591034,0.3561582863330841,-0.6038921475410461,-9.814183235168457
1745668040.6320302,0.019884899258613586,-0.012005211785435677,-0.26869919896125793,0.42285194993019104,-0.6901076436042786,-9.798894882202148
1745668040.6343799,0.013654584996402264,-0.019800566136837006,-0.2683200538158417,0.45759057998657227,-0.8265233039855957,-9.705301284790039
1745668040.6395683,0.013772398233413696,-0.01802211068570614,-0.2682531476020813,0.24965277314186096,-0.6372931003570557,-9.82552433013916
1745668040.6722615,0.01722666621208191,-0.020717283710837364,-0.26832345128059387,0.49320703744888306,-0.8337349891662598,-9.856788635253906
1745668040.6817799,-0.003428506897762418,-0.017073817551136017,-0.26973623037338257,0.2768799662590027,-0.5848163962364197,-9.742729187011719
1745668040.6819735,0.0221053846180439,-0.019271112978458405,-0.2697839140892029,0.47977215051651,-0.8629217147827148,-9.574289321899414
1745668040.6820943,0.0005983837181702256,-0.019502481445670128,-0.2700575292110443,0.3595236837863922,-0.5146958231925964,-9.690994262695312
1745668040.7127626,0.004848035983741283,-0.011570241302251816,-0.2708591818809509,0.373004287481308,-0.786634624004364,-9.98746109008789
1745668040.71707,0.020262546837329865,-0.021617600694298744,-0.268918514251709,0.4475380778312683,-0.6816586256027222,-9.750383377075195
1745668040.722445,0.02832946740090847,-0.013456304557621479,-0.27017754316329956,0.3237822651863098,-0.6913806200027466,-10.011892318725586
1745668040.7241712,0.01192227192223072,-0.018394876271486282,-0.26859426498413086,0.43883028626441956,-0.6307873725891113,-9.67808723449707
1745668040.7578535,0.016726501286029816,-0.015977155417203903,-0.27012741565704346,0.27748844027519226,-0.8425898551940918,-9.601929664611816
1745668040.7611065,0.03057248331606388,-0.020148692652583122,-0.270188570022583,0.5734232068061829,-0.7348638772964478,-9.594423294067383
1745668040.7656329,-0.005325899459421635,-0.014976337552070618,-0.26963794231414795,0.3509923815727234,-0.6712819337844849,-10.045816421508789
1745668040.7676687,0.03190955892205238,-0.007383803837001324,-0.26750272512435913,0.4123559892177582,-0.8310089111328125,-9.830816268920898
1745668040.7748256,0.010378098115324974,-0.020846882835030556,-0.2672663927078247,0.38081732392311096,-0.5786935091018677,-9.464632987976074
1745668040.802824,0.02102653495967388,-0.014378334395587444,-0.2668759226799011,0.37601226568222046,-0.7507182955741882,-9.805277824401855
1745668040.8073633,0.018734924495220184,-0.02088228426873684,-0.26959699392318726,0.4070986807346344,-0.702210009098053,-10.025869369506836
1745668040.8090641,0.021471288055181503,-0.011176724918186665,-0.2671387195587158,0.30068129301071167,-0.6345836520195007,-9.778793334960938
1745668040.812352,0.0142974853515625,-0.01715945452451706,-0.26760733127593994,0.5304774641990662,-0.8376823663711548,-9.475286483764648
1745668040.8469057,0.006493712309747934,-0.02140236273407936,-0.26807165145874023,0.31004345417022705,-0.8332989811897278,-9.757702827453613
1745668040.847184,0.018391812220215797,-0.014600515365600586,-0.2668602168560028,0.5147756338119507,-0.651580810546875,-9.936407089233398
1745668040.84983,-0.014302685856819153,-0.017139863222837448,-0.2677095830440521,0.3096245229244232,-0.8796666860580444,-9.91362476348877
1745668040.8523362,0.011307349428534508,-0.011853347532451153,-0.2705131769180298,0.3325076699256897,-0.49056369066238403,-9.6002197265625
1745668040.8572392,0.008918777108192444,-0.015355202369391918,-0.27108797430992126,0.5192445516586304,-0.9774797558784485,-9.873537063598633
1745668040.8901432,0.02229977771639824,-0.013929051347076893,-0.2716403305530548,0.2821032404899597,-0.44268798828125,-9.820455551147461
1745668040.891849,0.00020133265934418887,-0.008704518899321556,-0.26870542764663696,0.5249241590499878,-0.8269678354263306,-9.702914237976074
1745668040.8951662,0.02086460217833519,-0.01614096574485302,-0.2679116725921631,0.3382278084754944,-0.674821674823761,-9.620959281921387
1745668040.897773,0.01966674067080021,-0.009694699198007584,-0.26910966634750366,0.3940235376358032,-0.502313494682312,-9.776308059692383
1745668040.92904,0.015085387043654919,-0.01732904650270939,-0.26829665899276733,0.39370638132095337,-0.757104754447937,-9.991933822631836
1745668040.9333932,0.03434985876083374,-0.008280603215098381,-0.27018672227859497,0.2623383402824402,-0.470597505569458,-9.69843578338623
1745668040.9351456,0.024558858945965767,-0.015525703318417072,-0.26897069811820984,0.5735981464385986,-0.8572242856025696,-9.484415054321289
1745668040.9371352,0.02386954240500927,-0.015401436015963554,-0.2698705494403839,0.2839314639568329,-0.6389647126197815,-9.808610916137695
1745668040.9393766,0.025613363832235336,-0.008574972860515118,-0.26851505041122437,0.4844755530357361,-0.9248344302177429,-10.005264282226562
1745668040.9738152,0.01875646784901619,-0.013403981924057007,-0.2682533860206604,0.3611082136631012,-0.5553105473518372,-9.655048370361328
1745668040.980735,0.007231608033180237,-0.009393800050020218,-0.26761487126350403,0.3748829960823059,-0.8612321019172668,-9.616021156311035
1745668040.9817333,0.027252931147813797,-0.020180951803922653,-0.2708692252635956,0.4428858160972595,-0.714516818523407,-9.710790634155273
1745668040.9874895,0.009440523572266102,-0.008059647865593433,-0.2699224352836609,0.2978881895542145,-0.4636496603488922,-9.929106712341309
1745668041.014745,0.020339904353022575,-0.008986378088593483,-0.27036890387535095,0.48166361451148987,-0.9299882650375366,-9.805498123168945
1745668041.0340269,0.022951405495405197,-0.013134608045220375,-0.27201104164123535,0.26829642057418823,-0.38614365458488464,-9.496350288391113
1745668041.0341704,0.0171987172216177,-0.01181360799819231,-0.26984962821006775,0.522720217704773,-0.914389431476593,-9.782358169555664
1745668041.0342326,0.021749187260866165,-0.01728641614317894,-0.2706226408481598,0.3561413288116455,-0.6479808688163757,-10.003744125366211
1745668041.0592968,0.023385103791952133,-0.007893858477473259,-0.2692134380340576,0.4414655566215515,-0.8012754321098328,-9.873769760131836
1745668041.0617795,0.01415680069476366,-0.01743622124195099,-0.269247829914093,0.4660979211330414,-0.7277977466583252,-9.541383743286133
1745668041.061903,0.011675708927214146,-0.012013803236186504,-0.2677289545536041,0.35229435563087463,-0.7112122774124146,-9.688907623291016
1745668041.0652006,0.022585254162549973,-0.0154286352917552,-0.2701624929904938,0.45438605546951294,-0.6353572607040405,-9.774134635925293
1745668041.1028516,0.016159089282155037,-0.008613748475909233,-0.2722035348415375,0.3628559708595276,-0.6628089547157288,-9.671821594238281
1745668041.1042206,0.0221136175096035,-0.016517598181962967,-0.2695538103580475,0.5187409520149231,-0.7900093197822571,-9.649508476257324
1745668041.1067445,0.01766829565167427,-0.015112119726836681,-0.2702389359474182,0.2754610478878021,-0.6110938191413879,-9.905393600463867
1745668041.1089776,0.03023478016257286,-0.01340833492577076,-0.2692622244358063,0.4909314215183258,-0.7779759168624878,-9.905418395996094
1745668041.1110735,0.005096058361232281,-0.015466454438865185,-0.2721092700958252,0.2962992191314697,-0.6099158525466919,-9.69638729095459
1745668041.1456883,0.036053795367479324,-0.013009381480515003,-0.27212873101234436,0.46529650688171387,-0.7796915173530579,-9.546796798706055
1745668041.147844,0.011827684938907623,-0.017054323107004166,-0.2719309329986572,0.45398062467575073,-0.5670047998428345,-9.616722106933594
1745668041.1492255,0.015187090262770653,-0.009913720190525055,-0.27150726318359375,0.34930822253227234,-0.8555533289909363,-10.061509132385254
1745668041.1525166,0.032689169049263,-0.017677495256066322,-0.26976844668388367,0.4800761342048645,-0.7008730173110962,-9.818208694458008
1745668041.1868954,0.008994459174573421,-0.014739766716957092,-0.2705156207084656,0.2798455059528351,-0.6598239541053772,-9.683684349060059
1745668041.1906064,0.03443540260195732,-0.013970968313515186,-0.2694346308708191,0.5346712470054626,-0.8156790733337402,-9.669991493225098
1745668041.1950326,0.018614497035741806,-0.017477205023169518,-0.269458144903183,0.34360331296920776,-0.5575190782546997,-9.736258506774902
1745668041.1955135,0.03194856643676758,-0.010023611597716808,-0.270049512386322,0.4620859622955322,-0.7354335784912109,-9.77220344543457
1745668041.229715,0.028104353696107864,-0.012068092823028564,-0.2681076228618622,0.28953924775123596,-0.6337804794311523,-9.923473358154297
1745668041.2321744,0.01764407753944397,-0.020611386746168137,-0.2693193852901459,0.5174387097358704,-0.8894411325454712,-9.657873153686523
1745668041.234573,0.016526322811841965,-0.02157115936279297,-0.2704344391822815,0.30201205611228943,-0.6902337074279785,-9.694605827331543
1745668041.2354684,0.007655163761228323,-0.016832668334245682,-0.2671470046043396,0.4783031940460205,-0.7877379059791565,-9.792798042297363
1745668041.2365725,0.01710447669029236,-0.022574136033654213,-0.26769694685935974,0.3647734522819519,-0.7718647718429565,-9.779291152954102
1745668041.2757227,0.013226529583334923,-0.011968018487095833,-0.26956382393836975,0.35946229100227356,-0.5213503837585449,-9.612749099731445
1745668041.283528,-0.0005443021655082703,-0.02105112187564373,-0.27205008268356323,0.4244059920310974,-0.9368313550949097,-9.833149909973145
1745668041.2856717,0.03015352413058281,-0.01835852861404419,-0.26814717054367065,0.2282080203294754,-0.4636583924293518,-9.81844425201416
1745668041.2896316,0.004306600894778967,-0.019126232713460922,-0.26964980363845825,0.4684992730617523,-0.8507323265075684,-9.783391952514648
1745668041.3164296,0.025341400876641273,-0.01722715236246586,-0.26855769753456116,0.27810099720954895,-0.6196090579032898,-9.686136245727539
1745668041.3187013,0.02057093009352684,-0.017709797248244286,-0.2684725522994995,0.527126669883728,-0.7828719615936279,-9.607781410217285
1745668041.3210518,0.010196328163146973,-0.02160976454615593,-0.2700713276863098,0.39967283606529236,-0.7475094795227051,-9.797703742980957
1745668041.3229485,0.01735028438270092,-0.013603674247860909,-0.26830166578292847,0.3905710279941559,-0.7740622758865356,-9.899564743041992
1745668041.325095,0.007577560842037201,-0.022611528635025024,-0.2683045268058777,0.4155415892601013,-0.8427362442016602,-9.785913467407227
1745668041.359448,0.00609436072409153,-0.012933442369103432,-0.2697896361351013,0.2736213207244873,-0.5153414607048035,-9.654788970947266
1745668041.3614848,0.00503170769661665,-0.023664245381951332,-0.27138879895210266,0.48668569326400757,-0.9665667414665222,-9.735696792602539
1745668041.363995,0.01578013226389885,-0.017433423548936844,-0.271334707736969,0.29821890592575073,-0.42714881896972656,-9.67166519165039
1745668041.3666708,-0.004618209786713123,-0.014549093320965767,-0.27157604694366455,0.47985678911209106,-0.8658218383789062,-9.861149787902832
1745668041.4032807,0.017931202426552773,-0.01815446838736534,-0.2721153199672699,0.265013724565506,-0.7170048952102661,-9.769342422485352
1745668041.40473,0.0107454564422369,-0.012106831185519695,-0.27153947949409485,0.4363921284675598,-0.6246896982192993,-9.6716947555542
1745668041.4133852,0.0063561624847352505,-0.02093483880162239,-0.27031806111335754,0.4512324333190918,-0.8860510587692261,-9.843165397644043
1745668041.4135067,0.021088171750307083,-0.013016417622566223,-0.2690277695655823,0.2918674647808075,-0.5576625466346741,-9.815214157104492
1745668041.4448545,0.010908898897469044,-0.018758025020360947,-0.27065902948379517,0.5516409873962402,-0.8202710151672363,-9.655997276306152
1745668041.448001,0.0005013095214962959,-0.014578145928680897,-0.27267080545425415,0.3323267102241516,-0.9336948394775391,-9.82211971282959
1745668041.4491029,0.01936744712293148,-0.02165346033871174,-0.27255114912986755,0.41384369134902954,-0.7185798287391663,-9.628840446472168
1745668041.451841,-0.00010106116678798571,-0.010990768671035767,-0.272474467754364,0.3441654145717621,-0.49151691794395447,-9.701375007629395
1745668041.4527547,0.012228598818182945,-0.017445033416152,-0.2724084258079529,0.528073251247406,-0.9425374269485474,-9.86772632598877
1745668041.4912748,0.016475725919008255,-0.014249837026000023,-0.2718537449836731,0.29603081941604614,-0.3829178214073181,-9.739174842834473
1745668041.4950893,0.010265713557600975,-0.01457455474883318,-0.27037593722343445,0.4754478335380554,-0.9022254943847656,-9.798053741455078
1745668041.506651,0.020412195473909378,-0.020536990836262703,-0.2721925377845764,0.274296373128891,-0.6082794070243835,-9.782491683959961
1745668041.506757,0.02285635471343994,-0.013068894855678082,-0.2705227732658386,0.4436052739620209,-0.7586555480957031,-9.742825508117676
1745668041.5321698,0.010874579660594463,-0.02136683464050293,-0.27097994089126587,0.43613871932029724,-0.8010629415512085,-9.742981910705566
1745668041.535373,0.013903873972594738,-0.013332578353583813,-0.27056682109832764,0.32710400223731995,-0.7275300025939941,-9.798589706420898
1745668041.536787,0.022077102214097977,-0.01676402986049652,-0.2695919871330261,0.480762779712677,-0.7313791513442993,-9.618633270263672
1745668041.5376003,-0.0016987196868285537,-0.012905910611152649,-0.27204275131225586,0.27936822175979614,-0.5536109805107117,-9.751829147338867
1745668041.54045,0.01896037347614765,-0.016923289746046066,-0.27120441198349,0.5400604009628296,-0.9410905838012695,-9.905355453491211
1745668041.5806072,0.01173814944922924,-0.01784382201731205,-0.27381110191345215,0.49757179617881775,-0.6582313776016235,-9.680407524108887
1745668041.5825405,0.002664044965058565,-0.019062494859099388,-0.2735653817653656,0.27839434146881104,-0.7190384864807129,-9.715127944946289
1745668041.58561,0.018096502870321274,-0.017216788604855537,-0.2727871537208557,0.4536168575286865,-0.7384483218193054,-9.783147811889648
1745668041.590527,0.006358298473060131,-0.02648298069834709,-0.2722281813621521,0.3976368010044098,-0.732413649559021,-9.880330085754395
1745668041.618338,0.018660278990864754,-0.01324867457151413,-0.27280139923095703,0.37002691626548767,-0.6304817199707031,-9.762748718261719
1745668041.62041,0.0006784655270166695,-0.023596370592713356,-0.2738027274608612,0.5047500729560852,-0.9263321757316589,-9.620692253112793
1745668041.6234806,0.024313529953360558,-0.01917402073740959,-0.2718507647514343,0.33187761902809143,-0.5767508745193481,-9.593968391418457
1745668041.626797,-0.00822676531970501,-0.0199078768491745,-0.2718999981880188,0.48037680983543396,-0.8257800936698914,-9.946331977844238
1745668041.6717815,0.017398284748196602,-0.020088430494070053,-0.27263590693473816,0.30175143480300903,-0.7266697883605957,-9.944868087768555
1745668041.6719387,0.01378440298140049,-0.01832072250545025,-0.27380436658859253,0.4445187449455261,-0.5603329539299011,-9.486845016479492
1745668041.6720212,-0.004194692242890596,-0.025626156479120255,-0.27323368191719055,0.39171919226646423,-0.8789987564086914,-9.671713829040527
1745668041.6722448,0.027336571365594864,-0.016135964542627335,-0.27473244071006775,0.3875104784965515,-0.5703452825546265,-9.796093940734863
1745668041.7055175,-0.004070400260388851,-0.02176780067384243,-0.2739834189414978,0.5048123002052307,-0.8711652755737305,-9.845911026000977
1745668041.7093887,0.015813538804650307,-0.016098031774163246,-0.27421605587005615,0.279376745223999,-0.6964813470840454,-9.71936321258545
1745668041.7157536,0.007774998899549246,-0.02157214656472206,-0.27015283703804016,0.4912496507167816,-0.8360637426376343,-9.657925605773926
1745668041.7165828,0.007597276475280523,-0.022669676691293716,-0.2722959816455841,0.25980544090270996,-0.642863929271698,-9.847135543823242
1745668041.74647,0.006465038750320673,-0.015623609535396099,-0.27209874987602234,0.47785115242004395,-0.7182955145835876,-9.788908004760742
1745668041.7486246,0.014589408412575722,-0.02437937818467617,-0.273552268743515,0.424650102853775,-0.7192399501800537,-9.637348175048828
1745668041.7489972,0.012024428695440292,-0.011968916282057762,-0.2742766737937927,0.37229880690574646,-0.5279141664505005,-9.61196231842041
1745668041.7514248,-0.0019526019459590316,-0.024193938821554184,-0.27435439825057983,0.45501017570495605,-1.0011045932769775,-9.944746017456055
1745668041.753523,0.024898802861571312,-0.017046239227056503,-0.2728944420814514,0.25455594062805176,-0.5461887717247009,-9.826542854309082
1745668041.7895699,-0.0036732919979840517,-0.02063375525176525,-0.2703836262226105,0.4989401400089264,-0.8923200368881226,-9.676875114440918
1745668041.7932098,0.01626584492623806,-0.021444234997034073,-0.27080854773521423,0.27804404497146606,-0.6017535924911499,-9.672825813293457
1745668041.7976983,0.011305783875286579,-0.023135840892791748,-0.27269861102104187,0.40192466974258423,-0.6739481091499329,-9.823369979858398
1745668041.79792,0.0234770979732275,-0.015873165801167488,-0.2719450294971466,0.3519402742385864,-0.624181866645813,-9.805089950561523
1745668041.8365626,0.014696699567139149,-0.021895024925470352,-0.2709774971008301,0.4364646375179291,-0.8857313394546509,-9.780794143676758
1745668041.8367429,0.01930277980864048,-0.01658673956990242,-0.2704508900642395,0.26046591997146606,-0.5515783429145813,-9.691746711730957
1745668041.8415008,0.010989775881171227,-0.022424612194299698,-0.2701861262321472,0.45780879259109497,-1.002728819847107,-9.743650436401367
1745668041.844265,0.02651510015130043,-0.018668582662940025,-0.2689324915409088,0.29177841544151306,-0.4668973982334137,-9.665300369262695
1745668041.8475964,0.005780286155641079,-0.014090570621192455,-0.27352312207221985,0.5581040978431702,-0.793793797492981,-9.720965385437012
1745668041.8786087,0.02381300926208496,-0.021137701347470284,-0.2717553377151489,0.33927372097969055,-0.7756220102310181,-9.82397747039795
1745668041.8836358,0.015578916296362877,-0.015243133530020714,-0.27147677540779114,0.34981000423431396,-0.6471615433692932,-9.840124130249023
1745668041.8905807,0.010682324878871441,-0.019502922892570496,-0.2688077688217163,0.35355982184410095,-0.919481635093689,-9.80750846862793
1745668041.8948245,0.020078018307685852,-0.015958677977323532,-0.27026572823524475,0.22820167243480682,-0.5765172243118286,-9.630526542663574
1745668041.9197547,0.013481391593813896,-0.018157949671149254,-0.2693825960159302,0.5554019212722778,-0.8025787472724915,-9.585342407226562
1745668041.9224076,0.010406775400042534,-0.017698196694254875,-0.2693742513656616,0.2892230153083801,-0.5407267808914185,-9.89063835144043
1745668041.9239993,0.025229448452591896,-0.016323234885931015,-0.27009618282318115,0.4841080605983734,-0.5476614236831665,-9.76124382019043
1745668041.9252717,-0.01365881972014904,-0.016098659485578537,-0.2704724073410034,0.3395823836326599,-0.7750279903411865,-9.938650131225586
1745668041.9630322,0.031851910054683685,-0.009786879643797874,-0.2696473002433777,0.3476753830909729,-0.7718250155448914,-9.656452178955078
1745668041.9646392,-0.0038963265251368284,-0.02143135294318199,-0.26734089851379395,0.48248419165611267,-0.7746338248252869,-9.60041618347168
1745668041.967313,0.0184708870947361,-0.014774519018828869,-0.26745709776878357,0.3058677613735199,-0.7391178011894226,-9.94752311706543
1745668041.968279,0.012278150767087936,-0.018369147554039955,-0.267853319644928,0.5108402967453003,-0.7238878011703491,-9.82502555847168
1745668041.9714918,0.007899736054241657,-0.01472230814397335,-0.2667025923728943,0.3115027844905853,-0.6645077466964722,-9.637229919433594
1745668042.0062785,0.014546265825629234,-0.014866197481751442,-0.2672852873802185,0.45735830068588257,-0.6860114336013794,-9.622227668762207
1745668042.0080664,-0.0013998675858601928,-0.021788109093904495,-0.2686557471752167,0.31457775831222534,-0.7797428369522095,-9.91866397857666
1745668042.0109246,0.02165192924439907,-0.012225788086652756,-0.2714812159538269,0.3671799600124359,-0.5301697850227356,-9.763448715209961
1745668042.0135312,-0.011257137171924114,-0.018452588468790054,-0.26946642994880676,0.4016665518283844,-0.9034923315048218,-9.685125350952148
1745668042.0483453,0.03236214071512222,-0.016328832134604454,-0.26824137568473816,0.31529951095581055,-0.615953803062439,-9.677106857299805
1745668042.0507822,0.0012270528823137283,-0.019465772435069084,-0.2677741050720215,0.564313530921936,-0.7070150375366211,-9.769919395446777
1745668042.0542855,0.020290423184633255,-0.011156727559864521,-0.2667110562324524,0.2910281717777252,-0.7855820059776306,-9.906099319458008
1745668042.0566182,0.027109185233712196,-0.015959452837705612,-0.2634041905403137,0.40457582473754883,-0.6497994065284729,-9.57927131652832
1745668042.058993,0.011164575815200806,-0.020156139507889748,-0.2608196437358856,0.14571991562843323,-0.8620283007621765,-9.747526168823242
1745668042.092336,0.02365233562886715,-0.01591598615050316,-0.2584463655948639,0.18677353858947754,-0.7778943777084351,-9.767858505249023
1745668042.0950317,-0.0018404911970719695,-0.024113768711686134,-0.2568572759628296,0.09629835933446884,-1.0063045024871826,-9.85875129699707
1745668042.0965333,0.003107750788331032,-0.014648815616965294,-0.25599542260169983,0.0624987967312336,-0.5717067718505859,-9.631265640258789
1745668042.1004155,-0.02330712415277958,-0.01964634843170643,-0.25712716579437256,0.3266698122024536,-0.9111288189888,-9.633702278137207
1745668042.1381109,-0.006820255424827337,-0.024855345487594604,-0.25454968214035034,0.21808099746704102,-0.5212970972061157,-9.795965194702148
1745668042.1407776,-0.014668588526546955,-0.020108040422201157,-0.2542925775051117,0.4252045750617981,-0.8199432492256165,-9.928149223327637
1745668042.142991,-0.01780748926103115,-0.025943513959646225,-0.24926945567131042,0.304220587015152,-0.6583309173583984,-9.856414794921875
1745668042.1476748,0.002053991425782442,-0.020810658112168312,-0.24681170284748077,0.34346985816955566,-0.8171030282974243,-9.628244400024414
1745668042.1515195,-0.003849867032840848,-0.032399680465459824,-0.2375468909740448,0.21213297545909882,-0.6323174834251404,-9.684274673461914
1745668042.1801488,0.01066542137414217,-0.022644665092229843,-0.2387237250804901,0.09216734021902084,-0.512292742729187,-9.820752143859863
1745668042.1838403,0.017587341368198395,-0.023616330698132515,-0.2386884242296219,0.2422449141740799,-0.4759148061275482,-9.69808578491211
1745668042.1907737,0.012617615982890129,-0.02671050652861595,-0.24284727871418,0.10324150323867798,-0.4694518446922302,-9.667922019958496
1745668042.20047,0.030009428039193153,-0.026954244822263718,-0.24303928017616272,0.37365803122520447,-0.6638308167457581,-9.745650291442871
1745668042.2209232,-0.0005651612882502377,-0.0301873330026865,-0.24462318420410156,0.2168796956539154,-0.8409914970397949,-9.957436561584473
1745668042.2235255,0.014099650084972382,-0.021523069590330124,-0.23821036517620087,0.3532336354255676,-1.066427230834961,-9.751090049743652
1745668042.2256293,-0.027601826936006546,-0.03317683935165405,-0.23434869945049286,0.38370341062545776,-1.0083707571029663,-9.565610885620117
1745668042.232536,-0.012723788619041443,-0.025654107332229614,-0.22780267894268036,0.2454773187637329,-0.9244602918624878,-9.767619132995605
1745668042.2634046,-0.025800567120313644,-0.027347296476364136,-0.22846660017967224,0.36614716053009033,-0.643140435218811,-9.795940399169922
1745668042.2651584,-0.016312262043356895,-0.028759995475411415,-0.22883549332618713,0.038034871220588684,-0.5546515583992004,-9.849985122680664
1745668042.2665443,0.0009725280106067657,-0.026358449831604958,-0.22617611289024353,0.21708405017852783,-0.4205782413482666,-9.61241340637207
1745668042.2689133,-0.03500022739171982,-0.00988675095140934,-0.20589371025562286,0.5404376983642578,-0.4673120081424713,-9.567839622497559
1745668042.307722,-0.01639682427048683,-0.013030285015702248,-0.20995905995368958,0.10552358627319336,-0.3969063460826874,-10.458752632141113
1745668042.3100615,0.011790978722274303,0.006726059131324291,-0.21062691509723663,0.4348330497741699,-0.19408245384693146,-9.745291709899902
1745668042.3133793,-0.021827934309840202,-0.009917723014950752,-0.21676580607891083,0.31173455715179443,-0.43581146001815796,-9.383354187011719
1745668042.3171375,0.02768222615122795,-0.015178988687694073,-0.21904274821281433,0.381671279668808,-0.3891489505767822,-9.660545349121094
1745668042.3204675,-0.013611694797873497,-0.0049029081128537655,-0.2176879346370697,0.28859180212020874,-0.6896830201148987,-10.273184776306152
1745668042.3499646,-0.0039165448397397995,0.0020399040076881647,-0.216801717877388,0.25518521666526794,-0.7980453372001648,-9.802392959594727
1745668042.3520498,-0.004375788848847151,-0.008050491102039814,-0.21331262588500977,0.5251002311706543,-0.7865827679634094,-9.264913558959961
1745668042.3524582,-0.01793619990348816,-0.019230183213949203,-0.21086254715919495,0.21772213280200958,-0.6201343536376953,-9.952281951904297
1745668042.3550632,0.0035697270650416613,0.0034640412777662277,-0.20901384949684143,0.29970669746398926,-0.6476960778236389,-10.29150104522705
1745668042.3939168,-0.014702821150422096,-0.004713632632046938,-0.20895929634571075,0.15205000340938568,-0.5633515119552612,-9.619707107543945
1745668042.3984683,0.012053919024765491,-0.005356228444725275,-0.21058836579322815,0.21065513789653778,-0.5622383952140808,-9.269098281860352
1745668042.4007466,-0.012250803411006927,-0.008797368966042995,-0.21022264659404755,0.26648837327957153,-0.6856435537338257,-9.883514404296875
1745668042.4044654,-0.000143091005156748,-0.00019125528342556208,-0.20800432562828064,0.12610633671283722,-0.7387140393257141,-10.260062217712402
1745668042.409546,-0.013746239244937897,0.0013517070328816772,-0.20669707655906677,0.41864219307899475,-0.6839163899421692,-9.52971076965332
1745668042.4373212,-0.03614936023950577,-0.006785464473068714,-0.20679619908332825,0.3481874465942383,-0.7273706793785095,-9.462699890136719
1745668042.4406688,-0.0061089275404810905,-0.0036498222034424543,-0.20572929084300995,0.5186571478843689,-0.5322840809822083,-9.898576736450195
1745668042.4454904,-0.048595983535051346,-0.005192806012928486,-0.2060507833957672,0.2714119255542755,-0.5899637937545776,-10.20039176940918
1745668042.447646,-0.003101745154708624,0.004499607253819704,-0.20751814544200897,0.3760037422180176,-0.5611125826835632,-9.617276191711426
1745668042.4883702,-0.02839849516749382,-0.007628545165061951,-0.20387379825115204,0.32662010192871094,-0.32481369376182556,-9.359786987304688
1745668042.490542,-0.008301042020320892,-0.005487610585987568,-0.20557959377765656,0.10157255828380585,-0.5358040928840637,-10.066202163696289
1745668042.4932117,0.018640074878931046,0.0020407424308359623,-0.20349740982055664,0.3440040647983551,-0.23025846481323242,-9.877339363098145
1745668042.4967153,0.0029368684627115726,-0.001370905665680766,-0.20630982518196106,0.15476620197296143,-0.45925721526145935,-9.641443252563477
1745668042.5292072,0.04444300755858421,0.009236037731170654,-0.18920238316059113,-0.1466386616230011,-1.0685408115386963,-9.972214698791504
1745668042.529384,-0.02279224619269371,-0.009750699624419212,-0.17823034524917603,0.4631738066673279,-1.3595579862594604,-9.138402938842773
1745668042.5294368,-0.028025900945067406,-0.020830493420362473,-0.1705126017332077,-0.5034324526786804,-1.04246985912323,-10.218629837036133
1745668042.529493,-0.0737343281507492,0.001427738694474101,-0.16892585158348083,0.20962822437286377,-0.5300453305244446,-9.784528732299805
1745668042.5650742,-0.058488357812166214,0.005391374696046114,-0.1701827049255371,0.10460998117923737,-0.5554080009460449,-9.332916259765625
1745668042.568105,-0.09417230635881424,-0.02996722422540188,-0.1689653843641281,0.5607510805130005,-0.4882284998893738,-9.650339126586914
1745668042.5710747,-0.057279132306575775,-0.03398779034614563,-0.16089153289794922,0.3592630922794342,-0.7830098271369934,-10.710664749145508
1745668042.5717137,-0.08310122787952423,-0.0003977359738200903,-0.14872634410858154,-0.16679352521896362,-0.28990644216537476,-10.244047164916992
1745668042.5752347,-0.04271862655878067,-0.014331059530377388,-0.13554415106773376,0.10804875195026398,-0.9667547345161438,-8.663983345031738
1745668042.6102817,-0.04171813651919365,-0.021735232323408127,-0.12062525749206543,0.47073793411254883,0.26397496461868286,-8.738289833068848
1745668042.6125016,-0.028560712933540344,-0.023065956309437752,-0.11253462731838226,0.4944865107536316,-0.5058886408805847,-11.242351531982422
1745668042.6151123,0.030346477404236794,-0.005526903085410595,-0.11334948241710663,-0.005597659852355719,0.26637178659439087,-10.538932800292969
1745668042.6177616,-0.02254416048526764,0.0042356327176094055,-0.10795203596353531,0.5330036878585815,-0.8384392857551575,-8.445581436157227
1745668042.6512568,-0.10534151643514633,0.029590150341391563,0.06669685989618301,-0.2935963273048401,-1.0362844467163086,-9.002447128295898
1745668042.6536953,-0.13006120920181274,-0.019776955246925354,0.07334031164646149,0.7230257391929626,-1.383682370185852,-9.957330703735352
1745668042.656132,-0.16375860571861267,0.00988252554088831,0.07371360808610916,0.3950958847999573,-0.7783487439155579,-10.981377601623535
1745668042.6570785,-0.18782344460487366,0.005207681097090244,0.07285356521606445,0.23816819489002228,-0.993625283241272,-10.064896583557129
1745668042.659348,-0.21203628182411194,-0.0024634741712361574,0.07334928214550018,0.5868167877197266,-0.43568772077560425,-8.216325759887695
1745668042.696466,-0.22021178901195526,-0.005717304069548845,0.07404354214668274,0.08625751733779907,-0.34824395179748535,-9.892369270324707
1745668042.7044818,-0.21271750330924988,-0.029034549370408058,0.0699501782655716,-0.019605625420808792,0.2936594784259796,-10.85975170135498
1745668042.705027,-0.19399239122867584,0.019077112898230553,0.0656062513589859,-0.4000071883201599,0.28957754373550415,-9.85859203338623
1745668042.7074828,-0.18126466870307922,-0.022387512028217316,0.062017954885959625,-0.3933781683444977,0.45170658826828003,-8.515024185180664
1745668042.7368863,-0.13079319894313812,-0.020198728889226913,0.06023517996072769,-0.18883587419986725,0.6205738186836243,-9.364883422851562
1745668042.7393684,-0.11084018647670746,-0.010824612341821194,0.057536251842975616,-0.06507941335439682,0.5632143616676331,-10.892621040344238
1745668042.7401106,-0.08313624560832977,-0.013491745106875896,0.06365546584129333,0.2321535348892212,-0.7337740659713745,-10.252930641174316
1745668042.7442687,-0.04604722559452057,-0.018968934193253517,0.07637010514736176,0.005241402890533209,0.04780217260122299,-8.775467872619629
1745668042.7792974,-0.1368165761232376,-0.04099096730351448,0.08165240287780762,-0.041551798582077026,-1.0261762142181396,-9.72012996673584
1745668042.7855449,-0.047844819724559784,-0.022996380925178528,0.08715479075908661,0.06278251111507416,-0.3555237650871277,-10.319897651672363
1745668042.7856178,-0.17670738697052002,-0.016076207160949707,0.0796486958861351,-0.0007262587314471602,-0.2952522337436676,-10.004098892211914
1745668042.7875164,-0.12510152161121368,-0.04194885864853859,0.07568614184856415,0.015695970505475998,-0.6099538207054138,-9.172417640686035
1745668042.7895997,-0.19265881180763245,-0.036397065967321396,0.074007049202919,-0.08485884219408035,-0.2553912401199341,-9.61497688293457
1745668042.8231444,-0.21729309856891632,-0.038805313408374786,0.07439032942056656,-0.15386375784873962,-0.9503483772277832,-10.568792343139648
1745668042.8253014,-0.19190490245819092,-0.03207436949014664,0.0797232836484909,0.13199284672737122,-0.1662609577178955,-9.610830307006836
1745668042.8265955,-0.25574254989624023,-0.03528768569231033,0.081571064889431,0.0048925550654530525,-0.34023189544677734,-9.377700805664062
1745668042.8290436,-0.17257891595363617,-0.03772226348519325,0.08478404581546783,0.24581296741962433,0.2482011318206787,-9.540071487426758
1745668042.865787,-0.20843930542469025,-0.0430055633187294,0.08400040119886398,0.4569036066532135,0.3140471875667572,-10.190491676330566
1745668042.8681056,-0.06915626674890518,-0.04070825129747391,0.07720670849084854,0.1530674397945404,-0.05405783653259277,-9.664677619934082
1745668042.8706825,-0.057257045060396194,-0.039535243064165115,0.07731907069683075,0.04784825071692467,0.3647417426109314,-10.109366416931152
1745668042.874645,-0.08185509592294693,-0.010766916908323765,0.0723193809390068,-0.040484558790922165,-0.34780552983283997,-9.96428108215332
1745668042.9098408,-0.04321322590112686,-0.023385850712656975,0.06432990729808807,0.2856871485710144,0.49196019768714905,-8.858699798583984
1745668042.9124212,-0.1345408707857132,-0.03275211900472641,0.05899428203701973,0.7884396314620972,-0.6924804449081421,-9.8358793258667
1745668042.9140985,-0.06838493794202805,-0.02695305086672306,0.05240734666585922,0.4783688485622406,0.11404095590114594,-10.722855567932129
1745668042.9151623,-0.141765758395195,-0.01981397345662117,0.05512797087430954,0.3733574151992798,-0.9006609916687012,-10.294677734375
1745668042.9184697,-0.099600650370121,-0.028044749051332474,0.06094677001237869,0.07244504243135452,-0.48095256090164185,-8.941790580749512
1745668042.95334,-0.17912498116493225,-0.02427537739276886,0.06765235215425491,0.365566223859787,-0.651459813117981,-9.342950820922852
1745668042.956845,-0.11937805265188217,-0.0341513492166996,0.06668677926063538,0.23266848921775818,0.17375780642032623,-10.581851959228516
1745668042.9592302,-0.1254168152809143,-0.010236214846372604,0.05208846181631088,-0.16717630624771118,1.0285358428955078,-10.365951538085938
1745668042.9598603,-0.09043258428573608,-0.007409163750708103,0.03653358668088913,0.7120205760002136,0.28881797194480896,-8.793916702270508
1745668042.9946384,-0.051341306418180466,-0.035259224474430084,0.02558985725045204,0.5487385988235474,0.9083955883979797,-9.31824016571045
1745668042.9977129,0.058820970356464386,0.045967478305101395,-0.1135459914803505,0.5455812811851501,0.3329145312309265,-9.930368423461914
1745668043.0004702,0.07930587232112885,0.036145973950624466,-0.12132935225963593,0.5335038304328918,0.10204647481441498,-9.773432731628418
1745668043.0050268,0.07564814388751984,0.045374758541584015,-0.12354618310928345,0.4258216917514801,0.18086688220500946,-9.678644180297852
1745668043.007661,0.07081200182437897,0.0339801050722599,-0.12476098537445068,0.5751380324363708,-0.4670787751674652,-9.812925338745117
1745668043.0399668,0.08604017645120621,0.038456134498119354,-0.12275081872940063,0.4087262749671936,0.12688086926937103,-9.713665962219238
1745668043.0427678,0.05938603729009628,0.04258418455719948,-0.12778614461421967,0.679938018321991,-0.28843238949775696,-9.792181968688965
1745668043.0472345,0.08225267380475998,0.036525774747133255,-0.13117608428001404,0.4183349609375,0.21900805830955505,-9.74830150604248
1745668043.0509417,0.07552509009838104,0.041544172912836075,-0.13747426867485046,0.5183869004249573,0.022030917927622795,-9.738725662231445
1745668043.0848615,0.07644884288311005,0.03347418084740639,-0.14103376865386963,0.4196338653564453,-0.11764580011367798,-9.773350715637207
1745668043.087831,0.08463321626186371,0.0386926531791687,-0.14108845591545105,0.37271401286125183,-0.1792186051607132,-9.770281791687012
1745668043.0926821,0.07679916173219681,0.03227346017956734,-0.1402042955160141,0.4906551241874695,-0.41807812452316284,-9.770849227905273
1745668043.0970137,0.06709063053131104,0.0414562001824379,-0.1406366229057312,0.365713506937027,-0.021695157513022423,-9.671834945678711
1745668043.1258252,0.08074606209993362,0.03589220345020294,-0.14213071763515472,0.6438325047492981,-0.34026867151260376,-9.54458236694336
1745668043.126954,0.06603441387414932,0.03550060838460922,-0.1454939842224121,0.4992090165615082,0.24994154274463654,-9.758583068847656
1745668043.128732,0.07296332716941833,0.034903090447187424,-0.1517268568277359,0.652470588684082,-0.24372021853923798,-10.176104545593262
1745668043.130624,0.09157621115446091,0.025769302621483803,-0.15572205185890198,0.4802722930908203,0.1280490607023239,-9.805360794067383
1745668043.1343136,0.07566313445568085,0.03518320247530937,-0.15592606365680695,0.4724191725254059,-0.10301387310028076,-9.454889297485352
1745668043.1686864,0.08852341026067734,0.02269216813147068,-0.1577771008014679,0.5547578930854797,-0.19745568931102753,-9.574356079101562
1745668043.1730983,0.08115217834711075,0.02922060526907444,-0.15726135671138763,0.40668144822120667,0.096673384308815,-9.923510551452637
1745668043.17598,0.09488561749458313,0.029821699485182762,-0.1615777462720871,0.6067758798599243,-0.11473965644836426,-9.884750366210938
1745668043.1782815,0.0923747718334198,0.01930766925215721,-0.16602250933647156,0.45300188660621643,0.13266156613826752,-9.637869834899902
1745668043.2101622,0.11496075242757797,0.020160604268312454,-0.16618970036506653,0.6618154644966125,-0.24751751124858856,-9.798235893249512
1745668043.212093,0.09271671622991562,0.016778793185949326,-0.1704796999692917,0.45587247610092163,-0.06635044515132904,-9.897970199584961
1745668043.2154818,0.1049756407737732,0.011741125024855137,-0.1763899028301239,0.6175814867019653,-0.14179471135139465,-10.025700569152832
1745668043.22526,0.07279656082391739,0.01892920956015587,-0.18314683437347412,0.44862523674964905,-0.03960896283388138,-9.778315544128418
1745668043.2540658,0.09998275339603424,0.014758484438061714,-0.1864156872034073,0.6315815448760986,-0.3108383119106293,-9.496493339538574
1745668043.2564049,0.07131984829902649,0.004758913069963455,-0.186819925904274,0.5521748065948486,-0.1892976462841034,-9.622228622436523
1745668043.2581084,0.0862632766366005,0.01578715071082115,-0.18493957817554474,0.500008225440979,-0.3395439088344574,-9.953989028930664
1745668043.2592745,0.07462532073259354,0.006256415043026209,-0.18413953483104706,0.5200901031494141,-0.26877862215042114,-9.788141250610352
1745668043.261775,0.09120776504278183,0.009877477772533894,-0.18674954771995544,0.4270530641078949,-0.15653905272483826,-9.65218734741211
1745668043.2968009,0.08625759184360504,0.0018606691155582666,-0.18860800564289093,0.6359950304031372,0.01756562665104866,-9.655644416809082
1745668043.300275,0.09027370810508728,0.00019764303578995168,-0.19432277977466583,0.36276867985725403,-0.13670209050178528,-9.975488662719727
1745668043.3029838,0.11482292413711548,0.007522455416619778,-0.19717054069042206,0.5938242673873901,0.007715672254562378,-9.587608337402344
1745668043.3057923,0.07557355612516403,-0.0006368126487359405,-0.19888272881507874,0.4711998403072357,-0.3024967610836029,-9.598114013671875
1745668043.338669,0.11906100809574127,0.0007173223420977592,-0.19875425100326538,0.459599107503891,-0.28358903527259827,-9.715472221374512
1745668043.341117,0.08048127591609955,-0.004899195395410061,-0.2001161277294159,0.6236281991004944,-0.38028502464294434,-9.895262718200684
