timestamp,angular_vel_x,angular_vel_y,angular_vel_z,linear_acc_x,linear_acc_y,linear_acc_z
1745729005.972917,0.012423072941601276,-0.0278768427670002,-0.2799436151981354,0.4110450744628906,-0.7049847841262817,-10.003808975219727
1745729005.973145,0.019945885986089706,-0.019654622301459312,-0.2805936634540558,0.42646557092666626,-0.921069324016571,-9.76111125946045
1745729005.9771357,0.00853717140853405,-0.030997220426797867,-0.2805591821670532,0.41763609647750854,-0.7658255696296692,-9.561073303222656
1745729005.979906,0.019049648195505142,-0.02716851606965065,-0.28006505966186523,0.34770646691322327,-0.9072890281677246,-9.755292892456055
1745729005.979945,0.008517350070178509,-0.022594448179006577,-0.27996009588241577,0.46427544951438904,-0.7302151322364807,-9.90697956085205
1745729006.0177686,0.024008655920624733,-0.025408435612916946,-0.27924349904060364,0.35533639788627625,-0.8653959035873413,-9.681718826293945
1745729006.0178719,0.0036092898808419704,-0.02744172513484955,-0.27755460143089294,0.4873380661010742,-0.9300683736801147,-9.61800765991211
1745729006.0210807,0.015025140717625618,-0.029000231996178627,-0.2759435772895813,0.3193030059337616,-0.732434093952179,-9.8742036819458
1745729006.0228095,0.011443717405200005,-0.023448636755347252,-0.2780565023422241,0.3947596848011017,-0.9480644464492798,-9.955694198608398
1745729006.057835,0.004188187886029482,-0.027161622419953346,-0.27687016129493713,0.3677593171596527,-0.6416910290718079,-9.577284812927246
1745729006.0600471,0.010014193132519722,-0.027475887909531593,-0.27791351079940796,0.43605703115463257,-0.9415181279182434,-9.748849868774414
1745729006.0611942,0.008443647995591164,-0.028057213872671127,-0.2779700756072998,0.42384594678878784,-0.6301046013832092,-9.82652473449707
1745729006.0627856,0.018416522070765495,-0.02535986341536045,-0.2775740325450897,0.33696985244750977,-0.803920567035675,-9.81497859954834
1745729006.1020927,0.006104239262640476,-0.024607688188552856,-0.2780347168445587,0.4994276463985443,-0.9694868326187134,-9.60983657836914
1745729006.1036296,0.02034909278154373,-0.022920014336705208,-0.2793475389480591,0.26034945249557495,-0.5916582345962524,-9.626132011413574
1745729006.1053278,0.011573756113648415,-0.00838662963360548,-0.27562636137008667,0.2782471776008606,-0.7340284585952759,-9.663755416870117
1745729006.1104782,0.002265189541503787,-0.01296429056674242,-0.2759849429130554,0.4852772653102875,-0.8759208917617798,-9.624735832214355
1745729006.1120594,0.010908632539212704,-0.013855050317943096,-0.2753809094429016,0.31987184286117554,-0.7620603442192078,-9.936739921569824
1745729006.1450117,0.007758107967674732,-0.005583189427852631,-0.2757064700126648,0.41921061277389526,-0.8436391949653625,-9.837553024291992
1745729006.1480448,0.0017117857933044434,-0.012635519728064537,-0.2764337956905365,0.3675347864627838,-0.6996757984161377,-9.535017967224121
1745729006.1484928,0.004917825106531382,-0.008704439736902714,-0.2779906690120697,0.3995591700077057,-0.9279670715332031,-9.709718704223633
1745729006.1503131,0.0002532832440920174,-0.011078966781497002,-0.2766210436820984,0.46146124601364136,-0.6511971354484558,-9.934598922729492
1745729006.188203,0.0004363359767012298,-0.006518088281154633,-0.27662891149520874,0.28821220993995667,-0.8987601399421692,-9.934427261352539
1745729006.1899898,-0.0042920783162117004,-0.006298238877207041,-0.2769123613834381,0.48062863945961,-0.8442726135253906,-9.574655532836914
1745729006.19244,0.004676810931414366,-0.011166003532707691,-0.27741509675979614,0.2902926802635193,-0.6689683198928833,-9.666275978088379
1745729006.1940658,-0.00494026392698288,-0.011004447937011719,-0.27592331171035767,0.47593745589256287,-0.8617892265319824,-9.961963653564453
1745729006.1956108,0.01444579940289259,-0.006582959555089474,-0.2765866816043854,0.3585110306739807,-0.4382396638393402,-9.83255672454834
1745729006.2316794,0.008247713558375835,-0.007602360099554062,-0.27747291326522827,0.4368506968021393,-1.006160020828247,-9.670282363891602
1745729006.2327583,0.010855711065232754,-0.013447235338389874,-0.27672940492630005,0.37948277592658997,-0.5187700390815735,-9.588470458984375
1745729006.233919,0.014962507411837578,-0.008611529134213924,-0.27603164315223694,0.3438923954963684,-0.8698705434799194,-9.977325439453125
1745729006.2351196,0.009857704862952232,-0.004950132220983505,-0.27599677443504333,0.47941407561302185,-0.7296457886695862,-9.799668312072754
1745729006.2724173,0.017733946442604065,-0.009668434970080853,-0.2777673304080963,0.3262650966644287,-0.6780680418014526,-9.576537132263184
1745729006.278554,0.003599661635234952,-0.012068343348801136,-0.27677273750305176,0.5305882692337036,-0.9111075401306152,-9.800178527832031
1745729006.278602,0.023828057572245598,-0.0075337812304496765,-0.2759621739387512,0.2911481261253357,-0.5437206029891968,-9.873136520385742
1745729006.2786622,0.012972816824913025,-0.0060400147922337055,-0.2809930741786957,0.44514650106430054,-0.9472495317459106,-9.791704177856445
1745729006.279895,0.017185401171445847,-0.01384144276380539,-0.27782100439071655,0.3780251145362854,-0.6280099749565125,-9.524261474609375
1745729006.3192906,0.019578395411372185,-0.00655103987082839,-0.2807924449443817,0.34334757924079895,-0.7841438055038452,-9.735984802246094
1745729006.320321,0.013733677566051483,-0.015071012079715729,-0.27812063694000244,0.454678475856781,-0.6915667653083801,-9.724996566772461
1745729006.3244846,0.016503870487213135,-0.009241759777069092,-0.2787114679813385,0.4188369810581207,-0.829907238483429,-9.816915512084961
1745729006.324627,0.01257584523409605,-0.014685600996017456,-0.28006264567375183,0.3909177780151367,-0.5968421101570129,-9.671404838562012
1745729006.3602762,0.022032249718904495,-0.00943715125322342,-0.27890723943710327,0.3516268730163574,-0.8779417872428894,-9.592168807983398
1745729006.360326,0.009071758016943932,-0.010912607423961163,-0.2789216637611389,0.443274587392807,-0.7394392490386963,-9.654351234436035
1745729006.3617997,0.026067450642585754,-0.013572251424193382,-0.281751811504364,0.4424772262573242,-0.7980879545211792,-9.851465225219727
1745729006.3628697,0.009671103209257126,-0.010956999845802784,-0.28051483631134033,0.4732206463813782,-0.9279200434684753,-9.829553604125977
1745729006.4033291,0.016925709322094917,-0.014563919976353645,-0.27753177285194397,0.3640327751636505,-0.7706161141395569,-9.690912246704102
1745729006.4054008,0.006728290114551783,-0.014069588854908943,-0.27845561504364014,0.4139614999294281,-0.9995834231376648,-9.709113121032715
1745729006.4087741,-0.0016550023574382067,-0.016073668375611305,-0.2775183618068695,0.39450961351394653,-0.6032373905181885,-9.717065811157227
1745729006.4133537,0.01762772910296917,-0.011095046997070312,-0.28074589371681213,0.3937680125236511,-0.9206606149673462,-9.724041938781738
1745729006.4443493,0.0016137569909915328,-0.013484622351825237,-0.28111132979393005,0.42388075590133667,-0.63554447889328,-9.609601020812988
1745729006.4459372,0.014197717420756817,-0.014912942424416542,-0.2813146710395813,0.3922123312950134,-0.7342780828475952,-9.727879524230957
1745729006.4472458,0.006106776185333729,-0.01294450182467699,-0.2817760109901428,0.504754900932312,-0.8780659437179565,-9.769797325134277
1745729006.4482217,0.013452309183776379,-0.025051508098840714,-0.2878097593784332,0.4763377606868744,-0.6944965124130249,-9.725751876831055
1745729006.4874122,0.02487853728234768,-0.0325041189789772,-0.28821903467178345,0.329093873500824,-0.672350287437439,-9.581212043762207
1745729006.488994,0.021263975650072098,-0.02797781489789486,-0.2907025218009949,0.4507769048213959,-0.8754528164863586,-9.718523979187012
1745729006.4908721,0.01594465970993042,-0.031194746494293213,-0.28813856840133667,0.4166872501373291,-0.7465336322784424,-9.914341926574707
1745729006.4932892,0.02515537478029728,-0.02460338920354843,-0.28561097383499146,0.36705517768859863,-0.9636768102645874,-9.82518196105957
1745729006.5002604,0.00869073811918497,-0.031074892729520798,-0.28709912300109863,0.4596884846687317,-0.7068101167678833,-9.553895950317383
1745729006.5304723,0.018774183467030525,-0.03147692233324051,-0.2889273166656494,0.41704854369163513,-0.8459924459457397,-9.806119918823242
1745729006.5318246,0.012296950444579124,-0.028969788923859596,-0.2879788875579834,0.49417486786842346,-0.7462390661239624,-9.91943359375
1745729006.5322428,0.017676927149295807,-0.031289298087358475,-0.2899077534675598,0.3149596154689789,-0.637980580329895,-9.800192832946777
1745729006.53333,0.011006401851773262,-0.030286049470305443,-0.2900311052799225,0.42556601762771606,-0.9634248614311218,-9.634799003601074
1745729006.5758345,0.018036970868706703,-0.030293995514512062,-0.28992709517478943,0.35159915685653687,-0.5286647081375122,-9.666791915893555
1745729006.577287,0.018886839970946312,-0.029473742470145226,-0.2896299660205841,0.4487656056880951,-0.9759198427200317,-9.93560791015625
1745729006.578595,0.01136276125907898,-0.03213489055633545,-0.28792786598205566,0.44683170318603516,-0.6725810170173645,-9.756381034851074
1745729006.5807528,0.018747657537460327,-0.029905784875154495,-0.2871098816394806,0.3402329385280609,-0.9302508234977722,-9.766885757446289
1745729006.6175058,0.010581882670521736,-0.031134124845266342,-0.2858801484107971,0.42127305269241333,-0.7484942674636841,-9.739405632019043
1745729006.6208162,0.01933268830180168,-0.03237675875425339,-0.28834500908851624,0.313591867685318,-0.6007503271102905,-9.798788070678711
1745729006.6208847,0.010216976515948772,-0.029531950131058693,-0.2867223620414734,0.4809650480747223,-0.9404484629631042,-9.859058380126953
1745729006.6231282,0.027634143829345703,-0.029928062111139297,-0.2890768349170685,0.3089497983455658,-0.4926990568637848,-9.708602905273438
1745729006.623961,0.01684684306383133,-0.02754954993724823,-0.2904847264289856,0.3829115331172943,-0.8315800428390503,-9.688852310180664
1745729006.6661592,0.02176087722182274,-0.02902911603450775,-0.2875045835971832,0.41770440340042114,-0.7076147794723511,-9.661399841308594
1745729006.666242,0.029624054208397865,-0.023681964725255966,-0.2909371852874756,0.3158321976661682,-0.8036343455314636,-9.800984382629395
1745729006.6663198,0.01672348752617836,-0.026836061850190163,-0.2869115173816681,0.5123542547225952,-0.8537744283676147,-9.809496879577637
1745729006.6664078,0.022417768836021423,-0.02393493615090847,-0.28571024537086487,0.35949939489364624,-0.6477078199386597,-9.667839050292969
1745729006.71368,0.021404825150966644,-0.020597726106643677,-0.28888076543807983,0.32369691133499146,-0.8515976667404175,-9.77542781829834
1745729006.7138515,0.012422037310898304,-0.026670292019844055,-0.2865069508552551,0.5261590480804443,-0.6966520547866821,-9.817323684692383
1745729006.713952,0.026836305856704712,-0.020460840314626694,-0.2869524359703064,0.3682709336280823,-0.8311967849731445,-9.847959518432617
1745729006.714011,0.011149746365845203,-0.020707733929157257,-0.286915123462677,0.4029900133609772,-0.8472471237182617,-9.76696491241455
1745729006.7479699,0.02827812358736992,-0.023046469315886497,-0.2833687663078308,0.3570159077644348,-0.7176374197006226,-9.755289077758789
1745729006.7500367,0.01367194950580597,-0.021084237843751907,-0.2828168272972107,0.43119025230407715,-0.885293185710907,-9.845826148986816
1745729006.7515054,0.03049437142908573,-0.024428868666291237,-0.28451675176620483,0.3457528054714203,-0.5201365351676941,-9.783197402954102
1745729006.7553177,0.02093806117773056,-0.018775921314954758,-0.2857624590396881,0.3493550717830658,-0.8885189294815063,-9.805870056152344
1745729006.7880745,0.02073165588080883,-0.022060837596654892,-0.28619644045829773,0.35513171553611755,-0.6208341717720032,-9.676128387451172
1745729006.789015,0.033846158534288406,-0.017592422664165497,-0.2889736294746399,0.33618274331092834,-0.8480606079101562,-9.752450942993164
1745729006.790169,0.013313829898834229,-0.020326178520917892,-0.284641295671463,0.4179437756538391,-0.8611275553703308,-9.751891136169434
1745729006.792221,0.028466518968343735,-0.016531754285097122,-0.28514429926872253,0.33821114897727966,-0.8013074994087219,-9.787740707397461
1745729006.8368592,0.017961937934160233,-0.011664609424769878,-0.27217596769332886,0.47955411672592163,-1.032854437828064,-9.831019401550293
1745729006.8370063,0.010668519884347916,-0.014116546139121056,-0.2701105773448944,0.4086983799934387,-0.6357578039169312,-9.766542434692383
1745729006.837085,0.02064782939851284,-0.014093940146267414,-0.2719202935695648,0.3377736508846283,-0.9763438105583191,-9.855649948120117
1745729006.8371606,0.0059740133583545685,-0.0162581205368042,-0.27116894721984863,0.3895532786846161,-0.762140154838562,-9.719877243041992
1745729006.8375998,0.012195348739624023,-0.012914787046611309,-0.27284687757492065,0.2789681553840637,-0.727638304233551,-9.662485122680664
1745729006.8760877,0.015298167243599892,-0.013045236468315125,-0.2732781767845154,0.49935775995254517,-0.9636961221694946,-9.668668746948242
1745729006.8779106,0.011166713200509548,-0.01561121828854084,-0.27414488792419434,0.32787761092185974,-0.5537954568862915,-9.605070114135742
1745729006.8821988,0.009106595069169998,-0.015002201311290264,-0.27206310629844666,0.5298000574111938,-1.0527303218841553,-9.864531517028809
1745729006.883883,0.011855455115437508,-0.015404785051941872,-0.2705754339694977,0.38522660732269287,-0.6618836522102356,-9.745786666870117
1745729006.9197295,0.009044241160154343,-0.015215704217553139,-0.27288803458213806,0.3467758297920227,-0.9302612543106079,-9.70274543762207
1745729006.9220016,0.008743592537939548,-0.018316108733415604,-0.27057328820228577,0.48989859223365784,-0.7492939829826355,-9.713780403137207
1745729006.9255767,0.014377614483237267,-0.01841665990650654,-0.2677556276321411,0.2973030209541321,-0.8248664736747742,-9.890053749084473
1745729006.927684,0.01000234019011259,-0.01957767829298973,-0.27082687616348267,0.4743650555610657,-0.8162372708320618,-9.70704460144043
1745729006.9277415,0.008448773995041847,-0.021602977067232132,-0.2701598107814789,0.3221716582775116,-0.7681759595870972,-9.596043586730957
1745729006.9712021,0.009092466905713081,-0.019126947969198227,-0.269538551568985,0.448528528213501,-1.0169458389282227,-9.69437313079834
1745729006.971342,0.009549148380756378,-0.021206608042120934,-0.27121084928512573,0.3653717339038849,-0.5785607099533081,-9.712717056274414
1745729006.9714215,-0.0038216114044189453,-0.01776636764407158,-0.269722580909729,0.4146457314491272,-1.0374826192855835,-9.880290985107422
1745729006.971501,0.01053948886692524,-0.023917386308312416,-0.2700628638267517,0.4762970507144928,-0.7099459767341614,-9.643475532531738
1745729007.0071442,0.0055859265848994255,-0.02407648041844368,-0.2690608501434326,0.30802541971206665,-0.7960971593856812,-9.718116760253906
1745729007.0101578,-4.7045574319781736e-05,-0.022111058235168457,-0.26732608675956726,0.4454846978187561,-0.9184790849685669,-9.762380599975586
1745729007.0102224,0.01931491494178772,-0.019226301461458206,-0.26995760202407837,0.2773112952709198,-0.5198782086372375,-9.638862609863281
1745729007.013122,0.001029878156259656,-0.02150079235434532,-0.2690599262714386,0.49363797903060913,-0.9586570858955383,-9.641510009765625
1745729007.0464802,0.012039142660796642,-0.025035228580236435,-0.27115681767463684,0.3538956046104431,-0.5708813071250916,-9.66454029083252
1745729007.0486522,0.0026410396676510572,-0.021039120852947235,-0.26840242743492126,0.32104945182800293,-0.8703187704086304,-9.64497184753418
1745729007.0501893,0.00266639469191432,-0.028603237122297287,-0.2682286202907562,0.490309476852417,-0.913412868976593,-9.68925952911377
1745729007.0533707,0.012936350889503956,-0.025019634515047073,-0.2673336863517761,0.272592693567276,-0.5449441075325012,-9.736749649047852
1745729007.089817,-0.00587120745331049,-0.022887974977493286,-0.26826173067092896,0.48842841386795044,-0.9618724584579468,-9.814600944519043
1745729007.0922027,0.02069544605910778,-0.025274792686104774,-0.26887816190719604,0.2711213529109955,-0.5640614628791809,-9.611404418945312
1745729007.092365,-0.00261899852193892,-0.024053534492850304,-0.26902979612350464,0.3621625006198883,-0.8830548524856567,-9.773438453674316
1745729007.0927975,0.01522053312510252,-0.02708863839507103,-0.2681194841861725,0.3610249161720276,-0.6652156114578247,-9.834753036499023
1745729007.094843,0.010617541149258614,-0.022710110992193222,-0.2672334611415863,0.3012249171733856,-0.9021188616752625,-9.803546905517578
1745729007.134037,0.005978037603199482,-0.029855037108063698,-0.26599761843681335,0.4718216061592102,-0.761609673500061,-9.654131889343262
1745729007.1350496,0.007660673465579748,-0.02735014818608761,-0.2657117545604706,0.3237597644329071,-0.8452708125114441,-9.748201370239258
1745729007.1374362,-0.0029693241231143475,-0.025392968207597733,-0.2662314176559448,0.45184382796287537,-0.9295350909233093,-9.773874282836914
1745729007.1378849,0.012772063724696636,-0.02643449231982231,-0.2638689875602722,0.3288846015930176,-0.6269113421440125,-9.635796546936035
1745729007.177464,-0.015951287001371384,-0.026456844061613083,-0.2632342278957367,0.3929070830345154,-1.005475401878357,-9.866198539733887
1745729007.1789463,-0.007963098585605621,-0.02534509263932705,-0.23253285884857178,0.2563743591308594,-0.7315689325332642,-9.598251342773438
1745729007.179485,-0.005310698412358761,-0.015804287046194077,-0.2301712930202484,0.27891868352890015,-0.6546210646629333,-9.616835594177246
1745729007.1817925,-0.02355252578854561,-0.02470751479268074,-0.2320113629102707,0.3781636357307434,-0.7624669075012207,-9.984947204589844
1745729007.1840127,0.0123249851167202,-0.019533958286046982,-0.23183052241802216,0.18273332715034485,-0.625898003578186,-9.966272354125977
1745729007.2205875,-0.019154464825987816,-0.019610915333032608,-0.2320379763841629,0.28387168049812317,-0.6936937570571899,-9.615676879882812
1745729007.223411,0.0028280795086175203,-0.021015137434005737,-0.23019912838935852,0.18959157168865204,-0.7508341073989868,-9.572267532348633
1745729007.2248187,-0.010078078135848045,-0.020082637667655945,-0.2312764674425125,0.27423182129859924,-0.8146710395812988,-9.895334243774414
1745729007.23258,-0.00425418745726347,-0.021147355437278748,-0.22809112071990967,0.2724514603614807,-0.64369797706604,-9.970498085021973
1745729007.263518,-0.008335337974131107,-0.01258707232773304,-0.22808551788330078,0.25380751490592957,-0.8069881200790405,-9.747271537780762
1745729007.2640054,-0.011830588802695274,-0.024982530623674393,-0.22781726717948914,0.3140152096748352,-0.7115795612335205,-9.600522994995117
1745729007.2655754,-0.0038695447146892548,-0.020264197140932083,-0.22856147587299347,0.2600954473018646,-0.7912400960922241,-9.872452735900879
1745729007.2666953,-0.024953188374638557,-0.02198546752333641,-0.22388331592082977,0.33852067589759827,-0.7316229343414307,-10.001852989196777
1745729007.3047047,0.008249595761299133,-0.017269380390644073,-0.2228202521800995,0.19929519295692444,-0.6350663900375366,-9.65821647644043
1745729007.3068423,-0.02149241417646408,-0.018959717825055122,-0.22626321017742157,0.2938465178012848,-0.7573291659355164,-9.512350082397461
1745729007.3097513,0.0008008001605048776,-0.022960063070058823,-0.22113828361034393,0.2863692343235016,-0.6135848164558411,-9.846742630004883
1745729007.3109994,0.0017960885306820273,-0.018096324056386948,-0.22039401531219482,0.21821017563343048,-0.7379772067070007,-9.991800308227539
1745729007.3119092,-0.008489337749779224,-0.019195202738046646,-0.22017419338226318,0.08980655670166016,-0.7285932302474976,-9.781366348266602
1745729007.349248,0.011461837217211723,-0.01762792468070984,-0.21356943249702454,0.10318727791309357,-0.9292930364608765,-9.50730037689209
1745729007.352006,-0.026975741609930992,-0.027495479211211205,-0.2115386426448822,0.021805498749017715,-0.8400520086288452,-9.824872016906738
1745729007.3539717,-0.008678600192070007,-0.0190820824354887,-0.20897693932056427,-0.0561932697892189,-0.7056049108505249,-9.983080863952637
1745729007.3565784,-0.035242725163698196,-0.0185803584754467,-0.21024295687675476,0.11565615981817245,-0.8250643014907837,-9.619712829589844
1745729007.3914733,-0.026426667347550392,-0.030006760731339455,-0.20700494945049286,0.11840415000915527,-0.4696449637413025,-9.512752532958984
1745729007.3979726,-0.03460226580500603,-0.030522655695676804,-0.20788653194904327,0.28326719999313354,-0.8591769933700562,-10.044585227966309
1745729007.3980434,-0.01134137250483036,-0.034562647342681885,-0.1856454312801361,0.024953681975603104,-0.5881279706954956,-9.986442565917969
1745729007.3980994,-0.029031571000814438,-0.02950580045580864,-0.1877722442150116,0.16639986634254456,-0.48745018243789673,-10.094677925109863
1745729007.4352207,-0.010067246854305267,-0.03015970252454281,-0.18902325630187988,-0.060925133526325226,-0.5451948046684265,-9.615581512451172
1745729007.4368794,-0.015694867819547653,-0.03421495854854584,-0.18887504935264587,0.15180018544197083,-0.6682416200637817,-9.357624053955078
1745729007.4396882,-0.031852126121520996,-0.04058537632226944,-0.18732929229736328,0.1270647644996643,-0.7485707402229309,-9.990867614746094
1745729007.4399989,-0.02279871329665184,-0.02986680343747139,-0.18620827794075012,0.1454540342092514,-1.011070966720581,-10.162336349487305
1745729007.4406624,-0.0443318709731102,-0.03440675511956215,-0.18039658665657043,0.21244028210639954,-0.8631990551948547,-9.485418319702148
1745729007.479585,-0.04778119549155235,-0.034540291875600815,-0.1745859682559967,0.11495108902454376,-0.915264904499054,-9.418113708496094
1745729007.481218,-0.06306289881467819,-0.03938731551170349,-0.1734340488910675,0.27905845642089844,-0.6764634847640991,-9.900103569030762
1745729007.4854257,-0.039444826543331146,-0.0335472896695137,-0.17548850178718567,0.04937095195055008,-0.509170651435852,-10.148982048034668
1745729007.4912913,-0.05250418186187744,-0.025814244523644447,-0.17396079003810883,0.08910006284713745,-0.6413189172744751,-9.662511825561523
1745729007.5201266,-0.03918442130088806,-0.041044093668460846,-0.16711893677711487,0.08846453577280045,-0.6528657078742981,-9.299186706542969
1745729007.5223165,-0.03845971077680588,-0.035847559571266174,-0.16177718341350555,0.12097220122814178,-0.6606189012527466,-9.928399085998535
1745729007.5238233,0.014576899819076061,-0.015509585849940777,-0.16323551535606384,0.18573978543281555,-0.7075515389442444,-8.961773872375488
1745729007.525099,-0.0033987879287451506,-0.004243779461830854,-0.1598023772239685,0.26383885741233826,-0.8574775457382202,-9.98906135559082
1745729007.5278988,-0.021601339802145958,0.0011393021559342742,-0.15899334847927094,0.3613709509372711,-0.9012953042984009,-10.4710054397583
1745729007.565405,-0.009715426713228226,0.0025526925455778837,-0.16042748093605042,0.19652947783470154,-0.5447397232055664,-9.532880783081055
1745729007.5690703,-0.0245440024882555,-0.0003108566743321717,-0.15911871194839478,0.2648399770259857,-0.6346515417098999,-9.204894065856934
1745729007.5697327,-0.025952255353331566,-0.007695765234529972,-0.16195371747016907,0.10973284393548965,-0.40939927101135254,-9.98893928527832
1745729007.5717902,-0.014683656394481659,0.0020685610361397266,-0.16188380122184753,0.2221006155014038,-0.7357471585273743,-10.320887565612793
1745729007.6164322,-0.0229138545691967,0.004435637034475803,-0.16214331984519958,0.16938690841197968,-0.46796268224716187,-9.54383659362793
1745729007.616508,-0.016514364629983902,0.0041855089366436005,-0.1574786901473999,0.10415861755609512,-0.7716379165649414,-9.309222221374512
1745729007.6165807,-0.015356955118477345,-0.0011094680521637201,-0.15804965794086456,0.35882270336151123,-0.3260584771633148,-9.66472053527832
1745729007.6166594,-0.013425277546048164,0.004775877110660076,-0.16094905138015747,0.3327682614326477,-0.46119147539138794,-10.349888801574707
1745729007.6503422,-0.0012620730558410287,0.0063074128702282906,-0.15927733480930328,0.39396047592163086,-0.4596632421016693,-9.936615943908691
1745729007.6508646,0.00285484385676682,-0.0003129602409899235,-0.1636824905872345,0.2242598980665207,-0.23639452457427979,-9.344943046569824
1745729007.6523583,-0.0004481932264752686,0.0046362378634512424,-0.16386844217777252,0.24712605774402618,-0.6500807404518127,-9.706785202026367
1745729007.6530313,-0.0007334653055295348,-0.0017754327272996306,-0.16258689761161804,0.23652717471122742,-0.41531214118003845,-10.017892837524414
1745729007.655441,0.005893482826650143,0.008150303736329079,-0.16225431859493256,0.23794341087341309,-0.5802768468856812,-9.891504287719727
1745729007.6952252,-0.002759359311312437,0.004186912905424833,-0.16299603879451752,0.1936708688735962,-0.44064679741859436,-9.452595710754395
1745729007.697313,0.010884324088692665,0.0011700494214892387,-0.15982341766357422,0.10023816674947739,-0.6230499148368835,-9.670902252197266
1745729007.7034225,-0.0024913973174989223,0.00038514434709213674,-0.1589146852493286,0.41174212098121643,-0.627855122089386,-9.998048782348633
1745729007.7035518,-0.0038016822654753923,-0.00029966645524837077,-0.15659266710281372,0.04221244528889656,-0.7563856840133667,-10.160593032836914
1745729007.7354667,-0.004918420687317848,0.005366537719964981,-0.15401652455329895,0.1268945187330246,-0.7376534938812256,-9.483570098876953
1745729007.7395828,-0.025993382558226585,0.0014264530036598444,-0.15066370368003845,0.14373686909675598,-0.6173868775367737,-9.335119247436523
1745729007.7409546,-0.020204151049256325,-0.0010264880256727338,-0.15201300382614136,0.2383851557970047,-0.6942759156227112,-9.940206527709961
1745729007.7433913,-0.026492690667510033,-0.003333123866468668,-0.1523057222366333,0.3443324863910675,-0.5118492841720581,-9.390634536743164
1745729007.7790956,-0.01995318941771984,-0.005169800482690334,-0.14745813608169556,0.13701477646827698,-0.44289714097976685,-9.826833724975586
1745729007.779497,-0.017869679257273674,-0.0034020182210952044,-0.1488790661096573,0.34691277146339417,-0.6344262361526489,-10.15595817565918
1745729007.7801375,-0.004760824143886566,0.0013691795757040381,-0.14460615813732147,0.09387724101543427,-0.17727063596248627,-9.656296730041504
1745729007.7808065,-0.005020075477659702,0.0007844070787541568,-0.14435401558876038,0.21012389659881592,-0.5229659676551819,-9.390015602111816
1745729007.7819602,0.002917576115578413,-0.010645930655300617,-0.1449190080165863,0.30036064982414246,-0.30207720398902893,-9.72789192199707
1745729007.8239367,0.010250143706798553,-0.0014094554353505373,-0.14804157614707947,0.21832175552845,-0.5013872385025024,-10.256082534790039
1745729007.82603,-0.0009085202473215759,-0.0025934346485882998,-0.146529883146286,0.26496273279190063,-0.6450613737106323,-9.891087532043457
1745729007.8277864,0.0027459776028990746,-0.002844287781044841,-0.1442391574382782,0.10905085504055023,-0.5642058253288269,-9.310145378112793
1745729007.830026,-0.02680070698261261,-0.011189785785973072,-0.14276064932346344,0.37297511100769043,-0.9506070017814636,-9.65886116027832
1745729007.865973,-0.020151976495981216,-0.005370753351598978,-0.14101170003414154,0.243387371301651,-0.5899273157119751,-10.11120891571045
1745729007.8677926,-0.036575645208358765,-0.002269650576636195,-0.14076140522956848,0.32577425241470337,-0.744340717792511,-9.999102592468262
1745729007.8690453,-0.03568602353334427,-0.01026800274848938,-0.13839800655841827,0.13965509831905365,-0.4141756594181061,-9.450605392456055
1745729007.8707938,-0.04542989283800125,0.011049467138946056,-0.02736777439713478,0.5114506483078003,-0.2905166745185852,-9.760881423950195
1745729007.9088886,-0.006357356905937195,-0.006682101637125015,-0.024264123290777206,0.22768668830394745,-0.37139686942100525,-8.89285945892334
1745729007.9117217,-0.05911186337471008,-0.003443211317062378,-0.018353169783949852,0.401155948638916,-0.515457272529602,-9.638601303100586
1745729007.9150822,-0.0649675652384758,0.011375455185770988,-0.016214003786444664,0.1907443255186081,-0.8006011843681335,-10.545072555541992
1745729007.9188092,-0.0680672749876976,0.01873343624174595,-0.010980787687003613,0.3373296558856964,-0.43035489320755005,-9.550044059753418
1745729007.920365,-0.11372406780719757,0.004376450087875128,-0.004547598771750927,0.4300769865512848,-0.6639654636383057,-9.035293579101562
1745729007.9511807,-0.0803048387169838,0.007471902761608362,0.0030080724973231554,0.3810257911682129,-0.32890525460243225,-9.924335479736328
1745729007.9597797,-0.10734587907791138,0.015809733420610428,0.010602673515677452,0.5804013013839722,-0.5838498473167419,-10.673454284667969
1745729007.959852,-0.07332523912191391,0.023135896772146225,0.01811777986586094,0.246613547205925,-0.4872540831565857,-9.744668960571289
1745729007.9598973,-0.10252895206212997,0.021410100162029266,0.02992607094347477,0.3259151577949524,-0.6190938353538513,-8.942033767700195
1745729007.9949477,-0.09408301115036011,0.009420907124876976,0.038862649351358414,0.21973001956939697,-0.4765632748603821,-9.704501152038574
1745729007.996461,-0.09354662150144577,0.031383413821458817,0.045741911977529526,0.4161962568759918,-0.41393089294433594,-10.360963821411133
1745729007.9976175,-0.11479537189006805,0.027929553762078285,0.045427046716213226,0.5512798428535461,-0.06586416065692902,-9.850859642028809
1745729008.000381,-0.10259068012237549,0.01511353999376297,0.043925024569034576,0.4808956980705261,-0.276674747467041,-9.493860244750977
1745729008.0374825,-0.12468920648097992,0.019409505650401115,0.046336375176906586,0.6006821990013123,-0.2513086795806885,-9.860580444335938
1745729008.0385587,-0.12471248209476471,0.027484465390443802,0.05140627175569534,0.4150344729423523,-0.3725323975086212,-10.269920349121094
1745729008.040052,-0.12272026389837265,0.022368324920535088,0.05971810966730118,0.5959525108337402,-0.5492258071899414,-9.620872497558594
1745729008.0403595,-0.1240481287240982,0.02247326262295246,0.07276953756809235,0.3116222321987152,-0.15324439108371735,-9.34308910369873
1745729008.0420706,-0.10726247727870941,0.02681276574730873,0.07967981696128845,0.33296939730644226,-0.23556175827980042,-9.945375442504883
1745729008.0803878,-0.09362150728702545,0.028934311121702194,0.08451388776302338,0.3403758406639099,0.24517512321472168,-9.9224214553833
1745729008.0823386,-0.0744311586022377,0.030114274471998215,0.08409307897090912,0.3643038868904114,-0.05738348886370659,-9.796806335449219
1745729008.082775,-0.07433369010686874,0.026040738448500633,0.08555670082569122,0.3725663721561432,-0.15408754348754883,-9.68794059753418
1745729008.0849242,-0.06726488471031189,0.03403087705373764,0.09069839119911194,0.18290849030017853,-0.4846435487270355,-9.811452865600586
1745729008.1263347,-0.09967134147882462,0.03361551836133003,0.09675826877355576,0.46500086784362793,-0.6230918765068054,-9.702011108398438
1745729008.1278644,-0.11704987287521362,0.028928106650710106,0.10495293140411377,0.4111468195915222,-0.7356012463569641,-9.723237037658691
1745729008.1313307,-0.13531972467899323,0.03867994248867035,0.10939134657382965,0.6199169158935547,-0.6658233404159546,-9.817901611328125
1745729008.1331048,-0.16686822474002838,0.03484828397631645,0.1107228621840477,0.4092227816581726,-0.3510737121105194,-9.918496131896973
1745729008.1352332,-0.1415611058473587,0.032078422605991364,0.12032647430896759,0.613071084022522,-0.33749112486839294,-9.744948387145996
1745729008.1677535,-0.16524170339107513,0.024076182395219803,0.11703331768512726,0.5647027492523193,0.2814071774482727,-9.805442810058594
1745729008.1678512,-0.1307690590620041,0.012189457193017006,0.11046767234802246,-0.24922779202461243,0.22478356957435608,-10.414613723754883
1745729008.1708734,-0.11543981730937958,0.02915579453110695,0.10463310778141022,-0.2083260715007782,0.4306800961494446,-9.395172119140625
1745729008.171926,-0.06968939304351807,0.015978563576936722,0.09804724901914597,-0.3612540364265442,0.6199339628219604,-9.085511207580566
1745729008.2086058,-0.07296035438776016,0.0053957304917275906,0.09056921303272247,-0.4535593092441559,-0.02722707949578762,-10.14914608001709
1745729008.2121103,-0.029430801048874855,0.025110241025686264,0.09072212129831314,-0.28719910979270935,-0.37572959065437317,-10.145463943481445
1745729008.2232473,-0.05764765292406082,0.03742210194468498,0.09309212863445282,-0.05990474298596382,-0.684665322303772,-9.111457824707031
1745729008.2233372,-0.07438118010759354,0.0033212420530617237,0.09694673120975494,0.26591628789901733,-0.8533272743225098,-9.247746467590332
1745729008.2527103,-0.06898865848779678,-0.022583287209272385,0.06127743050456047,0.33937764167785645,0.12261702120304108,-9.345245361328125
1745729008.2543712,-0.070338673889637,-0.04710807278752327,0.05549289658665657,0.19862058758735657,0.01504281722009182,-9.902023315429688
1745729008.2550528,-0.04467903450131416,-0.020156020298600197,0.05419274419546127,0.3256318271160126,-0.2183610498905182,-10.105758666992188
1745729008.2573488,-0.09102046489715576,-0.015556884929537773,0.051144737750291824,0.11038374900817871,-0.043148256838321686,-9.60994815826416
1745729008.2577004,-0.06757523119449615,-0.03234534338116646,0.050790220499038696,0.3249439299106598,-0.3261875808238983,-9.413139343261719
1745729008.2969778,-0.09011582285165787,-0.035097189247608185,0.04387408494949341,0.5155343413352966,0.3620387315750122,-9.904770851135254
1745729008.2981496,-0.08585784584283829,-0.015229353681206703,0.03913841396570206,0.06049274280667305,-0.12594562768936157,-10.561463356018066
1745729008.3002555,-0.07959017902612686,-0.02265145257115364,0.034478120505809784,0.17860856652259827,0.2285994589328766,-9.355443954467773
1745729008.3013372,-0.09833148866891861,-0.029995005577802658,0.02700907550752163,0.3182747960090637,0.03405321389436722,-9.121644973754883
1745729008.3394887,-0.08776900917291641,-0.026566941291093826,0.024203166365623474,0.4619287848472595,0.09969127923250198,-10.2799072265625
1745729008.3401628,-0.08045931905508041,-0.02300073392689228,0.01964893378317356,0.17939582467079163,0.5524915456771851,-10.5368013381958
1745729008.342254,-0.03935902565717697,-0.008621422573924065,0.012497304938733578,0.6301552057266235,0.22345390915870667,-9.202985763549805
1745729008.3449464,-0.04663648456335068,-0.02581295371055603,0.0077016837894916534,0.6019461750984192,0.6126105785369873,-9.207319259643555
1745729008.345561,-0.015337030403316021,-0.033877093344926834,0.004081798251718283,0.5071888566017151,0.18543419241905212,-10.621526718139648
1745729008.3875446,-0.005640799645334482,-0.00832900870591402,0.0020677894353866577,0.4059654772281647,0.17099101841449738,-10.381786346435547
1745729008.3876266,-0.007280468940734863,-0.006230180151760578,0.0003699475491885096,0.01134529896080494,0.1716112345457077,-9.121134757995605
1745729008.3876858,-0.016049573197960854,-0.023109588772058487,-0.007422186434268951,0.4432774484157562,-0.16360211372375488,-8.959601402282715
1745729008.3877428,-0.02131657674908638,-0.01881881058216095,-0.013147572986781597,0.33276817202568054,0.4818713665008545,-10.358610153198242
1745729008.4249141,-0.00964912585914135,0.002601071959361434,-0.02516872249543667,0.38577812910079956,0.0011482298141345382,-10.627660751342773
1745729008.426161,-0.03723562881350517,-0.004871218465268612,-0.03153220936655998,0.46162477135658264,0.08452628552913666,-9.149296760559082
1745729008.4277008,-0.011948931962251663,-0.0105644715949893,-0.03139124810695648,0.4814378619194031,-0.11908592283725739,-9.139581680297852
1745729008.4277816,-0.03845011070370674,-0.0065160528756678104,-0.03081974945962429,0.3849813640117645,0.04242485761642456,-10.408174514770508
1745729008.4659038,-0.018129225820302963,0.01070446241647005,-0.02962132729589939,0.23257049918174744,-0.032141488045454025,-10.379212379455566
1745729008.4680076,0.00589551730081439,0.015359592624008656,-0.031952399760484695,0.39171266555786133,0.4567950665950775,-9.00722599029541
1745729008.4714055,-0.005733543075621128,-0.005686895456165075,-0.037123292684555054,0.16524989902973175,0.6605651378631592,-9.297476768493652
1745729008.4807022,0.0298345647752285,0.00711462739855051,-0.045423366129398346,0.31074628233909607,0.41897526383399963,-10.526705741882324
1745729008.4807541,0.053072042763233185,0.017972679808735847,-0.05704651027917862,0.2780052125453949,0.7014789581298828,-10.277501106262207
1745729008.5130908,0.04719819873571396,0.011624803766608238,-0.058294929563999176,0.32231467962265015,-0.05393786355853081,-9.298826217651367
1745729008.5205774,0.040521230548620224,0.0020560072734951973,-0.05760191008448601,0.45739203691482544,0.06621651351451874,-9.377185821533203
1745729008.5241542,0.05082244798541069,0.011265715584158897,-0.05832887813448906,0.3836480677127838,-0.15891961753368378,-10.406610488891602
1745729008.5242133,0.033353663980960846,0.024363432079553604,-0.05740925669670105,0.4459039568901062,-0.024205511435866356,-10.163724899291992
1745729008.5548368,0.042366962879896164,0.014625604264438152,-0.06050456687808037,0.37592369318008423,0.05635563284158707,-9.310934066772461
1745729008.555958,0.03655748814344406,0.009087683632969856,-0.0636463612318039,0.49068379402160645,0.14816710352897644,-9.59638786315918
1745729008.557295,0.038504213094711304,0.012163611128926277,-0.07143640518188477,0.13720594346523285,0.28815793991088867,-10.384218215942383
1745729008.5573652,0.06412911415100098,0.02749452367424965,-0.07547725737094879,0.16145020723342896,0.1338566541671753,-10.019335746765137
1745729008.559853,0.043742965906858444,0.018856748938560486,-0.07506828010082245,0.3528701364994049,0.1556803286075592,-9.171117782592773
1745729008.596247,0.031533751636743546,-0.03627573326230049,-0.022826239466667175,0.25424155592918396,0.08349119126796722,-9.185432434082031
1745729008.5988555,0.028664637356996536,-0.02020176686346531,-0.018616367131471634,0.48297587037086487,0.17928804457187653,-10.059389114379883
1745729008.6005192,0.023731619119644165,-0.023199688643217087,-0.020457500591874123,0.25558966398239136,-0.0710061714053154,-10.515340805053711
1745729008.6403584,0.04022200405597687,-0.017444495111703873,-0.011512571945786476,0.3816828727722168,-0.1624004989862442,-9.430683135986328
1745729008.6415737,0.004577449522912502,-0.022860225290060043,-0.00988689623773098,0.5025571584701538,-0.04110482335090637,-9.119058609008789
1745729008.6425874,0.017779355868697166,-0.0295880027115345,-0.01045189332216978,0.3525606393814087,0.16302268207073212,-10.123420715332031
1745729008.6448824,0.0001878932089312002,-0.026613567024469376,-0.012328244745731354,0.4827730655670166,0.01813908852636814,-10.473956108093262
1745729008.6524477,0.03529871255159378,-0.01690540835261345,-0.012821519747376442,0.23905830085277557,0.3665700852870941,-9.572622299194336
1745729008.682099,0.008356397971510887,-0.024247940629720688,-0.013068780303001404,0.18485918641090393,0.005089795682579279,-9.24376106262207
1745729008.6838195,0.04250156879425049,-0.034735314548015594,-0.006677630357444286,0.18789486587047577,0.007216340396553278,-9.929327964782715
1745729008.6874838,0.045842546969652176,-0.01408316008746624,-0.001034670160152018,0.31703484058380127,0.01968478038907051,-10.225601196289062
1745729008.687524,0.03802022710442543,-0.014730664901435375,-4.315374462748878e-05,0.12072919309139252,-0.06062456965446472,-9.743734359741211
1745729008.7274506,0.06588442623615265,-0.020741699263453484,0.004407494328916073,0.16543535888195038,0.030447745695710182,-9.218164443969727
1745729008.7275176,0.03284847363829613,-0.02293211594223976,0.001857354654930532,0.4071478247642517,-0.19879689812660217,-9.823822021484375
1745729008.7294006,0.037376537919044495,-0.016338273882865906,-0.0006842633592896163,0.16074316203594208,-0.12939241528511047,-10.340682983398438
1745729008.7315912,0.007024087943136692,-0.005736718885600567,0.003234285395592451,0.26131904125213623,-0.8216297030448914,-9.769383430480957
1745729008.733998,-0.015609273687005043,0.001219061785377562,0.015385732054710388,0.5532207489013672,-0.45285797119140625,-8.90002727508545
1745729008.7810674,-0.04990064352750778,-0.012127642519772053,0.03070252574980259,0.8300970196723938,-0.8133429288864136,-9.896387100219727
1745729008.7811396,-0.0728759616613388,0.0014732489362359047,0.041457850486040115,0.8703451156616211,-0.48455366492271423,-10.496325492858887
1745729008.7815454,-0.0654011070728302,0.019925858825445175,0.05503605678677559,1.1053141355514526,-0.1384086012840271,-9.555258750915527
1745729008.781618,-0.10189159214496613,-0.008407563902437687,0.061866648495197296,1.042628526687622,0.2569863200187683,-9.315986633300781
1745729008.8181071,-0.044808950275182724,-0.01046591904014349,0.062366925179958344,0.8543577194213867,0.7600768208503723,-10.217859268188477
1745729008.8200126,-0.05062365531921387,0.009810710325837135,0.0638912245631218,0.6031605005264282,0.7263730764389038,-10.581939697265625
1745729008.8200727,0.06956502795219421,0.007217650301754475,0.07326722890138626,0.34883102774620056,0.687504231929779,-10.101634979248047
1745729008.8210785,0.11452718079090118,0.02818973921239376,0.07895046472549438,0.5439663529396057,0.49307918548583984,-10.695364952087402
1745729008.8560748,0.10310935974121094,0.029002021998167038,0.0823424905538559,0.64654141664505,-0.23409974575042725,-9.581403732299805
1745729008.857312,0.12270660698413849,0.026097353547811508,0.09328503161668777,0.5895071625709534,-0.39533501863479614,-8.961496353149414
1745729008.8596752,0.05019789934158325,0.02457249164581299,0.1017361506819725,0.7111185193061829,-1.0515491962432861,-10.108850479125977
1745729008.8627467,0.03918091580271721,0.03781907260417938,0.11169485747814178,0.4298437237739563,-0.8675950765609741,-10.351277351379395
1745729008.899128,-0.03620562702417374,0.04879264906048775,0.11787648499011993,0.5432884693145752,-1.1225645542144775,-9.350821495056152
1745729008.909817,-0.07182639092206955,0.03246736526489258,0.11992659419775009,0.4083784520626068,-0.5150526165962219,-9.129578590393066
1745729008.9099035,-0.11330275237560272,0.040932826697826385,0.12104718387126923,0.4925146996974945,-0.578460156917572,-10.225297927856445
1745729008.9105165,-0.13422194123268127,0.050388045608997345,0.12034983932971954,0.516618549823761,-0.13602593541145325,-10.32278823852539
1745729008.9108932,-0.1228141039609909,0.05128942057490349,0.12486656755208969,0.4215036928653717,0.06239200755953789,-9.354130744934082
1745729008.9406824,-0.12994827330112457,0.042844366282224655,0.13457968831062317,0.510818362236023,0.07470983266830444,-9.222577095031738
1745729008.9419003,-0.09393336623907089,0.04700244218111038,0.14389505982398987,0.522758424282074,0.35655081272125244,-10.165983200073242
1745729008.9430535,-0.10192761570215225,0.030573707073926926,0.253150075674057,0.4393748342990875,0.5455318689346313,-10.124433517456055
1745729008.9441822,-0.08746541291475296,0.03767358139157295,0.2547137141227722,0.5495588183403015,0.27010661363601685,-9.770926475524902
1745729008.9828784,-0.08139662444591522,0.03129670396447182,0.2568736672401428,0.5920745134353638,0.5919800400733948,-9.29814338684082
1745729008.9865255,-0.0716852992773056,0.026874635368585587,0.2581304609775543,0.5688601732254028,0.3380083739757538,-9.742806434631348
1745729008.986583,-0.07218114286661148,0.021526945754885674,0.2603170871734619,0.7758868932723999,0.23661074042320251,-10.171765327453613
1745729008.9960296,-0.06999878585338593,0.0294056236743927,0.2585245966911316,0.5745679140090942,0.2260202169418335,-9.864371299743652
1745729008.996089,-0.08674999326467514,0.02543563023209572,0.2638288736343384,0.5922002196311951,-0.05865476280450821,-9.335599899291992
1745729009.0281782,-0.09200884401798248,0.014487788081169128,0.2694564163684845,0.4642925262451172,0.1707330197095871,-9.518989562988281
1745729009.0293255,-0.10347811132669449,0.01933412440121174,0.2709104120731354,0.6763604283332825,0.008974033407866955,-10.038652420043945
1745729009.0305326,-0.11045566946268082,0.018316907808184624,0.27181366086006165,0.6485337615013123,0.2967917323112488,-9.884313583374023
1745729009.0334048,-0.10192073881626129,0.017438407987356186,0.27331027388572693,0.4958898425102234,0.2957637906074524,-9.528843879699707
1745729009.0756133,-0.11363116651773453,0.004937690682709217,0.27661460638046265,0.6144242286682129,0.20095905661582947,-9.649693489074707
1745729009.07573,-0.09793923795223236,0.012588800862431526,0.2759893238544464,0.5008483529090881,0.27433937788009644,-9.973453521728516
1745729009.075788,-0.11481461673974991,0.015281148254871368,0.28151679039001465,0.61419278383255,0.14762094616889954,-9.783297538757324
1745729009.0773244,-0.10648629814386368,0.004830616060644388,0.28444522619247437,0.45622795820236206,0.2884986400604248,-9.490156173706055
1745729009.07936,-0.11047554016113281,0.004997286945581436,0.2858760952949524,0.7117854356765747,0.2835918068885803,-9.66685676574707
1745729009.116064,-0.1092330813407898,0.0045939162373542786,0.2874646782875061,0.5978230834007263,0.5315477252006531,-9.980308532714844
1745729009.1175938,-0.10163506120443344,0.007672436535358429,0.28643327951431274,0.5519217252731323,0.3423805236816406,-9.857047080993652
1745729009.1269312,-0.10693671554327011,-0.0034615143667906523,0.2863186001777649,0.6903505921363831,0.4597949981689453,-9.506608963012695
1745729009.129213,-0.1043936237692833,-0.00030172179685905576,0.29064854979515076,0.5111890435218811,0.29139572381973267,-9.750741958618164
1745729009.1621687,-0.10321778059005737,0.0009279256919398904,0.29188957810401917,0.6526972055435181,0.31976979970932007,-9.842087745666504
1745729009.1642158,-0.10256858170032501,-0.004907304886728525,0.293654203414917,0.5078875422477722,0.4171265959739685,-9.733863830566406
1745729009.1643026,-0.09923623502254486,-0.00533144548535347,0.2963457405567169,0.6805564165115356,0.2859066128730774,-9.659096717834473
1745729009.164351,-0.09576628357172012,-0.01460025180131197,0.2994036376476288,0.6320250630378723,0.41346055269241333,-9.764374732971191
1745729009.2007575,-0.0964035764336586,-0.00982993096113205,0.2991897463798523,0.48747357726097107,0.23526780307292938,-9.703038215637207
1745729009.2020564,-0.1100301593542099,-0.011891936883330345,0.30080148577690125,0.5683258771896362,0.1947983056306839,-9.651803970336914
1745729009.2039938,-0.10728871822357178,-0.016537316143512726,0.3073584735393524,0.5202533006668091,0.283761203289032,-9.785634994506836
1745729009.2052708,-0.1224634200334549,-0.015924276784062386,0.3068793714046478,0.7225608825683594,0.257683128118515,-9.820151329040527
1745729009.242665,-0.11154365539550781,-0.017164533957839012,0.3062698245048523,0.567985475063324,0.4738137125968933,-9.756219863891602
1745729009.2427511,-0.12516722083091736,-0.016638582572340965,0.3063473105430603,0.5995647311210632,0.31543853878974915,-9.78881549835205
1745729009.2443132,-0.12192022800445557,-0.026156386360526085,0.30917081236839294,0.5289865136146545,0.45075955986976624,-9.729472160339355
1745729009.2458124,-0.10974858701229095,-0.017703354358673096,0.31152576208114624,0.5274367928504944,0.36649271845817566,-9.700387001037598
1745729009.2509391,-0.12333428859710693,-0.022785795852541924,0.31442025303840637,0.5555592775344849,0.4518325924873352,-9.770408630371094
1745729009.285593,-0.10383614152669907,-0.021376950666308403,0.31589269638061523,0.473480224609375,0.5826039910316467,-9.776944160461426
1745729009.2872636,-0.10757158696651459,-0.02769145928323269,0.31703925132751465,0.671715259552002,0.46965280175209045,-9.726312637329102
1745729009.2884061,-0.09558423608541489,-0.021541664376854897,0.31567102670669556,0.5076785683631897,0.6308115720748901,-9.771398544311523
1745729009.2884548,-0.12060322612524033,-0.04679675027728081,0.3148987889289856,0.3051478862762451,1.1346286535263062,-9.825948715209961
1745729009.32846,-0.07868337631225586,-0.04522982984781265,0.3117784261703491,0.2855765223503113,0.5554853081703186,-10.155037879943848
1745729009.3302782,-0.0743241161108017,-0.04243970662355423,0.3145267069339752,0.5389355421066284,1.0343174934387207,-9.63039779663086
1745729009.3321795,-0.08147977292537689,-0.03907881677150726,0.31652337312698364,0.2419355809688568,0.5322121381759644,-9.741232872009277
1745729009.3411105,-0.05896855518221855,-0.04995119199156761,0.31651178002357483,0.4828125536441803,0.5370456576347351,-9.763273239135742
1745729009.3412032,-0.08050146698951721,-0.04124877601861954,0.31535106897354126,0.28077468276023865,0.8313485383987427,-9.873851776123047
1745729009.3709722,-0.07597848773002625,-0.03990413621068001,0.3132891058921814,0.4399675726890564,0.3251482844352722,-9.867838859558105
1745729009.3720782,-0.08469747751951218,-0.043773941695690155,0.3115014433860779,0.31861793994903564,0.7760546803474426,-9.628068923950195
1745729009.3749533,-0.09137888252735138,-0.04401681572198868,0.30899617075920105,0.3338097631931305,0.38011112809181213,-9.917970657348633
1745729009.377124,-0.11225678771734238,-0.04566248133778572,0.31088119745254517,0.35663479566574097,0.5824736952781677,-9.858856201171875
1745729009.414455,-0.08588205277919769,-0.03860246390104294,0.310629278421402,0.3177297115325928,0.5268527269363403,-9.733988761901855
1745729009.4167824,-0.11932100355625153,-0.04184761643409729,0.31322479248046875,0.38252806663513184,0.6312772035598755,-9.725563049316406
1745729009.4179187,-0.0908263772726059,-0.03919953852891922,0.3129045069217682,0.2156941443681717,0.6118065714836121,-9.891885757446289
1745729009.4216502,-0.09284740686416626,-0.03513973206281662,0.3139209747314453,0.4836961627006531,0.9032567739486694,-9.677202224731445
1745729009.4242175,-0.09427563846111298,-0.04094087332487106,0.3120783567428589,0.2695896625518799,0.8816158175468445,-9.890567779541016
1745729009.4573379,-0.0657927542924881,-0.04126829653978348,0.3091963231563568,0.32571837306022644,0.7959778904914856,-9.917191505432129
1745729009.457754,-0.08622711896896362,-0.036044470965862274,0.3093883991241455,0.31237199902534485,0.830052375793457,-9.718531608581543
1745729009.4604664,-0.06757959723472595,-0.03473740071058273,0.30849969387054443,0.29255470633506775,0.6812130808830261,-9.613240242004395
1745729009.4610484,-0.08320842683315277,-0.039981868118047714,0.3081083297729492,0.43273648619651794,0.6674672961235046,-9.788533210754395
1745729009.50987,-0.06834212690591812,-0.038058094680309296,0.30880069732666016,0.2942763566970825,0.7536412477493286,-10.045580863952637
1745729009.5099196,-0.08594739437103271,-0.029922137036919594,0.30826276540756226,0.5008858442306519,0.5714738965034485,-9.79722785949707
1745729009.5099769,-0.06318829953670502,-0.03477402403950691,0.3095054030418396,0.3122939169406891,0.9156093597412109,-9.548466682434082
1745729009.5100148,-0.08239521086215973,-0.04018517583608627,0.31026020646095276,0.3443271219730377,0.4548719525337219,-9.922938346862793
1745729009.5444114,-0.07364968955516815,-0.03636094555258751,0.310059130191803,0.34409135580062866,0.4984307289123535,-9.470510482788086
1745729009.5457034,-0.07274572551250458,-0.02839444950222969,0.3129163980484009,0.41322535276412964,0.7725299000740051,-9.808781623840332
1745729009.5493457,-0.0909542590379715,-0.022911101579666138,0.31529679894447327,0.5873020887374878,0.3354262709617615,-10.240657806396484
1745729009.5513778,-0.0837048664689064,-0.022221529856324196,0.3187175691127777,0.5140623450279236,0.7616044282913208,-9.61850643157959
1745729009.5522854,-0.09971815347671509,-0.022875163704156876,0.3211171627044678,0.7211208343505859,0.44713443517684937,-9.42457389831543
1745729009.5873175,-0.10242899507284164,-0.028320416808128357,0.32639679312705994,0.6127129197120667,0.9690514802932739,-9.921405792236328
1745729009.5874467,-0.09368416666984558,-0.01794697530567646,0.32445913553237915,0.5747776627540588,0.7070818543434143,-10.29924201965332
1745729009.589247,-0.07908330857753754,-0.020785542204976082,0.3269234299659729,0.4916314482688904,1.3494716882705688,-9.542935371398926
1745729009.5903444,-0.0759955570101738,-0.023909319192171097,0.32330089807510376,0.24746599793434143,1.0409495830535889,-9.402972221374512
1745729009.6296837,-0.0441313162446022,-0.025909218937158585,0.32416921854019165,0.5226643681526184,1.1178643703460693,-9.877054214477539
1745729009.6298482,-0.03422104939818382,-0.013466201722621918,0.32400426268577576,0.3434479534626007,1.246826171875,-10.165058135986328
1745729009.6313288,-0.021816447377204895,-0.015278088860213757,0.3259982466697693,0.4395710825920105,0.5945166945457458,-9.717135429382324
1745729009.674768,-0.04181549698114395,-0.010308859869837761,0.35319000482559204,0.383102685213089,0.7760388851165771,-9.508041381835938
1745729009.6757522,-0.05285276100039482,-0.020238248631358147,0.35116952657699585,0.46903443336486816,0.9816001057624817,-9.819921493530273
1745729009.6760464,-0.034736424684524536,-0.009162887930870056,0.35038572549819946,0.44250231981277466,0.718316912651062,-10.01998233795166
1745729009.6783714,-0.05333054065704346,-0.011046791449189186,0.35022565722465515,0.49132734537124634,0.7797484397888184,-9.633232116699219
1745729009.6789489,-0.05396605655550957,-0.012947596609592438,0.35246455669403076,0.34369945526123047,0.7436276078224182,-9.470670700073242
1745729009.718136,-0.05512592941522598,-0.01646004058420658,0.3513079583644867,0.6433888673782349,0.6195060610771179,-9.65598201751709
1745729009.7212408,-0.06645862013101578,-0.014364001341164112,0.3517230153083801,0.5669552087783813,0.9457321166992188,-10.020442962646484
1745729009.7342174,-0.059682440012693405,-0.01267094723880291,0.3519633412361145,0.439121812582016,0.7283170223236084,-9.885454177856445
1745729009.7440076,-0.06204751878976822,-0.017000705003738403,0.3520461618900299,0.35258370637893677,0.9675439596176147,-9.346643447875977
1745729009.7641377,-0.057592906057834625,-0.014628146775066853,0.3523377478122711,0.4455581307411194,0.8735945820808411,-9.526118278503418
1745729009.7642107,-0.059374529868364334,-0.015750175341963768,0.3537819981575012,0.5611852407455444,0.9605334401130676,-10.00098991394043
1745729009.7642684,-0.03517182916402817,-0.012071939185261726,0.3548731207847595,0.38534092903137207,1.1244381666183472,-9.90974235534668
1745729009.7643256,-0.04498589038848877,-0.01876714453101158,0.35405153036117554,0.5397093892097473,0.787557065486908,-9.544158935546875
1745729009.8027132,-0.024049976840615273,-0.019913213327527046,0.35486671328544617,0.38978955149650574,1.1061615943908691,-9.517932891845703
1745729009.8053443,-0.037544507533311844,-0.01410730928182602,0.35506105422973633,0.5152359008789062,0.7582107782363892,-9.945154190063477
1745729009.8064113,-0.03150507062673569,-0.02079065889120102,0.35376089811325073,0.4415876865386963,0.8730685114860535,-9.912713050842285
1745729009.8090472,-0.03338060528039932,-0.017198871821165085,0.3531908392906189,0.5238244533538818,0.8124433755874634,-9.55829906463623
1745729009.8091402,-0.04962174594402313,-0.022025156766176224,0.3546924293041229,0.4731784462928772,0.7966378927230835,-9.588447570800781
1745729009.845469,-0.03640124201774597,-0.01773381233215332,0.3535013794898987,0.3339432179927826,0.7870824337005615,-9.854538917541504
1745729009.8468845,-0.056075386703014374,-0.021595831960439682,0.35275059938430786,0.5812968611717224,0.7258628606796265,-9.779878616333008
1745729009.84865,-0.049275849014520645,-0.015418763272464275,0.35587090253829956,0.40443485975265503,0.9040620923042297,-9.615251541137695
1745729009.8505597,-0.05026845261454582,-0.019418878480792046,0.3568004071712494,0.5296432375907898,0.7762565612792969,-9.636664390563965
1745729009.8902788,-0.0533256009221077,-0.024618763476610184,0.35480108857154846,0.4284416139125824,1.0470491647720337,-9.90066909790039
1745729009.8903825,-0.04019175097346306,-0.026361292228102684,0.3556303381919861,0.6024637222290039,0.9439849853515625,-9.931750297546387
1745729009.9003034,-0.03487539291381836,-0.01736261323094368,0.35702213644981384,0.3918823003768921,0.9732149839401245,-9.940784454345703
1745729009.9004755,-0.03988071158528328,-0.01849687099456787,0.3567968010902405,0.5289544463157654,0.8534302711486816,-9.523905754089355
1745729009.900557,-0.03474665805697441,-0.026824194937944412,0.35704147815704346,0.44022470712661743,1.0124716758728027,-9.592872619628906
1745729009.9336736,-0.036861810833215714,-0.024545155465602875,0.3573567271232605,0.5790947079658508,0.8071479797363281,-9.98628044128418
1745729009.9338338,-0.029198935255408287,-0.02418307028710842,0.3559238016605377,0.44464558362960815,1.0514103174209595,-9.900341987609863
1745729009.9358318,-0.031543560326099396,-0.02135281264781952,0.35539883375167847,0.3735186457633972,0.9013818502426147,-9.622172355651855
1745729009.938027,-0.03406780958175659,-0.029349351301789284,0.35792845487594604,0.4615303874015808,0.8754701614379883,-9.496219635009766
1745729009.9740567,-0.017739590257406235,-0.024911073967814445,0.35741907358169556,0.4002562165260315,1.0016330480575562,-9.814340591430664
1745729009.9757888,-0.04108356684446335,-0.02182825654745102,0.3557109236717224,0.5286041498184204,0.8000629544258118,-10.019742012023926
1745729009.9779181,-0.02307860180735588,-0.025225427001714706,0.3558482527732849,0.3547120690345764,1.0023529529571533,-9.627659797668457
1745729009.9801269,-0.03545244783163071,-0.027574077248573303,0.35647279024124146,0.510157585144043,0.7776079773902893,-9.479063987731934
1745729009.981402,-0.03881029784679413,-0.025920534506440163,0.35637497901916504,0.4419310986995697,0.917530357837677,-9.8157377243042
1745729010.0200565,-0.008916987106204033,-0.023220408707857132,0.3504001498222351,0.3806873857975006,0.9230666160583496,-9.833377838134766
1745729010.0214715,-0.015284793451428413,-0.027970140799880028,0.34966713190078735,0.4018271565437317,0.8970788717269897,-9.678937911987305
1745729010.024742,-0.0006689767469651997,-0.025095680728554726,0.3491966128349304,0.3877335488796234,0.9123826026916504,-9.608644485473633
1745729010.060482,-0.022294025868177414,-0.024735599756240845,0.35032984614372253,0.5306953191757202,0.8185734748840332,-9.850558280944824
1745729010.0662634,-0.005762696731835604,-0.02440216951072216,0.34921199083328247,0.3379846513271332,0.9373814463615417,-9.848321914672852
1745729010.0721116,-0.013465126976370811,-0.024955298751592636,0.35200148820877075,0.4914504885673523,0.7838209271430969,-9.613763809204102
1745729010.078347,-0.013326002284884453,-0.02382481098175049,0.3520020842552185,0.39225441217422485,0.987305760383606,-9.589560508728027
1745729010.0829406,-0.006590037140995264,-0.020662210881710052,0.3535795509815216,0.44628357887268066,0.7748439908027649,-9.915704727172852
1745729010.1040401,-0.012331860139966011,-0.02746749483048916,0.3510505259037018,0.36172160506248474,1.094888687133789,-9.828621864318848
1745729010.1135843,-0.0006247647106647491,-0.022586297243833542,0.35311150550842285,0.3571769893169403,0.8623820543289185,-9.657027244567871
1745729010.1139245,-0.0118388207629323,-0.025140132755041122,0.3510235548019409,0.44201549887657166,0.9618045091629028,-9.652277946472168
1745729010.1167364,-0.006073333323001862,-0.02231372520327568,0.35025444626808167,0.2943360209465027,0.9066189527511597,-9.864351272583008
1745729010.1487966,-0.006912154611200094,-0.02359970286488533,0.35064101219177246,0.5366478562355042,0.7733070254325867,-9.7627592086792
1745729010.1512032,-0.012289631180465221,-0.024192946031689644,0.35019177198410034,0.4055050313472748,0.9899963140487671,-9.665779113769531
1745729010.15252,-0.013219219632446766,-0.023479614406824112,0.35225847363471985,0.4465821385383606,0.7118858695030212,-9.779607772827148
1745729010.15317,-0.012939289212226868,-0.024972304701805115,0.35115405917167664,0.33898603916168213,0.9859684109687805,-9.778106689453125
1745729010.1554158,-0.008657002821564674,-0.018068743869662285,0.3536086082458496,0.4269578456878662,0.8410170674324036,-9.705106735229492
1745729010.1911428,-0.017623011022806168,-0.021495396271348,0.35338354110717773,0.4127463400363922,0.9565585255622864,-9.645566940307617
1745729010.1944754,0.0006864526076242328,-0.022215109318494797,0.35078954696655273,0.31719523668289185,1.059152364730835,-9.76118278503418
1745729010.198721,-0.015742924064397812,-0.024003716185688972,0.35096725821495056,0.481595516204834,0.8232232928276062,-9.87242317199707
1745729010.203787,0.005163532681763172,-0.01844111457467079,0.35205501317977905,0.3049074709415436,1.065565824508667,-9.728080749511719
1745729010.232446,-0.014080596156418324,-0.017954746261239052,0.3519664406776428,0.44378986954689026,0.818232536315918,-9.555169105529785
1745729010.2351801,-0.007203804794698954,-0.02829499915242195,0.352042019367218,0.5111229419708252,0.9226745367050171,-9.608114242553711
1745729010.2362466,0.002907260088250041,-0.020485689863562584,0.35327428579330444,0.35833480954170227,1.0322579145431519,-9.9945707321167
1745729010.2383604,0.0011443274561315775,-0.016982492059469223,0.3537847101688385,0.4377451539039612,0.8256456255912781,-9.858360290527344
1745729010.278845,0.004171336069703102,-0.02336110919713974,0.35137373208999634,0.3372860550880432,1.0818326473236084,-9.549392700195312
1745729010.2830071,0.004222373012453318,-0.02296392247080803,0.3530942499637604,0.4790397584438324,0.806297779083252,-9.670238494873047
1745729010.2875562,0.0005421731621026993,-0.024274036288261414,0.35240039229393005,0.4402616620063782,1.0207648277282715,-9.861953735351562
1745729010.2890317,0.002822487847879529,-0.018526455387473106,0.35267168283462524,0.4127991795539856,0.8051328659057617,-9.953956604003906
1745729010.318381,-0.0009889587527140975,-0.02488185465335846,0.35273316502571106,0.4634799361228943,0.9626299738883972,-9.605819702148438
1745729010.3228846,0.004918895196169615,-0.02101394534111023,0.3538740873336792,0.31907302141189575,0.937615692615509,-9.565618515014648
1745729010.3312135,-0.0024496063124388456,-0.0206759013235569,0.35316944122314453,0.478212833404541,0.8554540872573853,-9.80455493927002
1745729010.3313048,0.008123557083308697,-0.02007635124027729,0.35503190755844116,0.33064189553260803,1.0350896120071411,-9.93364429473877
1745729010.3320558,0.006248153746128082,-0.020655427128076553,0.3542380928993225,0.45310598611831665,0.9164763689041138,-9.623007774353027
1745729010.361005,0.011760051362216473,-0.02294023707509041,0.3510861098766327,0.35785168409347534,1.0567318201065063,-9.618245124816895
1745729010.3626947,0.008313179016113281,-0.017826121300458908,0.3541221022605896,0.3978475034236908,0.8770068883895874,-9.94879150390625
1745729010.3654928,0.001836319686844945,-0.028206627815961838,0.356501966714859,0.4424947202205658,0.8663183450698853,-9.922237396240234
1745729010.3662963,0.00788806565105915,-0.01860230043530464,0.36035725474357605,0.33641761541366577,0.8590259552001953,-9.646737098693848
1745729010.409479,-0.011066583916544914,-0.018896548077464104,0.3600301742553711,0.4699912965297699,0.6997779607772827,-9.488993644714355
1745729010.4128928,0.00394854974001646,-0.023285115137696266,0.36125582456588745,0.34757909178733826,0.9255011677742004,-9.786258697509766
1745729010.423906,-0.005586498416960239,-0.02105151116847992,0.3618757128715515,0.46409791707992554,0.8364557027816772,-9.909384727478027
1745729010.423974,0.0035133897326886654,-0.019534070044755936,0.36085107922554016,0.3407582640647888,0.9555739164352417,-9.693636894226074
1745729010.424012,0.0035716488491743803,-0.01963714510202408,0.36130833625793457,0.39973822236061096,0.8725778460502625,-9.595006942749023
1745729010.4483297,-0.005326216574758291,-0.022131044417619705,0.36067837476730347,0.362444132566452,0.893955409526825,-9.778239250183105
1745729010.4512022,0.008748841471970081,-0.018329313024878502,0.3608703017234802,0.3620317578315735,0.8061608076095581,-9.840612411499023
1745729010.4543788,-0.01305070798844099,-0.02132698893547058,0.3605358302593231,0.5409516096115112,0.8270717859268188,-9.700456619262695
1745729010.4544525,-0.00013945400132797658,-0.022728485986590385,0.3609426021575928,0.33058518171310425,0.8520410656929016,-9.687475204467773
1745729010.4923177,-0.010401785373687744,-0.024251628667116165,0.36163949966430664,0.4776199460029602,0.6969732046127319,-9.800748825073242
1745729010.4946766,-0.0030790565069764853,-0.023451343178749084,0.3624931871891022,0.4253283441066742,0.9780438542366028,-9.7632417678833
1745729010.4962118,-0.006205019541084766,-0.020305760204792023,0.36604514718055725,0.4709855020046234,0.7511557936668396,-9.722258567810059
1745729010.498773,-0.0008763741934671998,-0.027558717876672745,0.36363881826400757,0.37777966260910034,1.0930331945419312,-9.695157051086426
1745729010.500822,0.0020009023137390614,-0.026776889339089394,0.3623349666595459,0.4057700037956238,0.7863537669181824,-9.918278694152832
1745729010.5347283,0.006491229869425297,-0.023869695141911507,0.3620840609073639,0.37934625148773193,0.9981781840324402,-9.769789695739746
1745729010.5360687,0.006719725672155619,-0.02136622555553913,0.3647351861000061,0.28232666850090027,0.9070126414299011,-9.550220489501953
1745729010.5373724,0.003745153546333313,-0.029884517192840576,0.36210668087005615,0.5215641260147095,0.7113719582557678,-9.627826690673828
1745729010.537817,0.007133112754672766,-0.027854781597852707,0.36298054456710815,0.41608232259750366,1.0286623239517212,-9.95869255065918
1745729010.57802,0.0007961069932207465,-0.022085200995206833,0.36477988958358765,0.44849467277526855,0.650214433670044,-9.949729919433594
1745729010.5807178,0.008182959631085396,-0.025425290688872337,0.3639499545097351,0.2816132605075836,0.9505758285522461,-9.46943473815918
1745729010.5891874,0.003883164841681719,-0.0261848121881485,0.3645690977573395,0.4544367790222168,0.6981276273727417,-9.518293380737305
1745729010.589265,-0.006787943188101053,-0.030098553746938705,0.3633038401603699,0.4249109625816345,0.805219829082489,-9.577842712402344
1745729010.6199949,0.011968756094574928,-0.02640620991587639,0.36744847893714905,0.342905193567276,0.9881170392036438,-9.558004379272461
1745729010.6213307,-0.004929446615278721,-0.02598617598414421,0.3637489974498749,0.5282098054885864,0.7879003882408142,-9.836840629577637
1745729010.6214273,0.00014832289889454842,-0.030391249805688858,0.3634098768234253,0.36225181818008423,0.8877542614936829,-9.984170913696289
1745729010.6230009,0.0032383035868406296,-0.026086797937750816,0.36403098702430725,0.49555081129074097,0.7533363103866577,-9.737491607666016
1745729010.6231346,-0.001407276140525937,-0.03017449751496315,0.36579129099845886,0.4069077968597412,0.948599636554718,-9.518247604370117
1745729010.666146,0.006190174724906683,-0.02532673254609108,0.36525118350982666,0.327666312456131,0.8121415376663208,-9.74881649017334
1745729010.6662629,0.0016087337862700224,-0.03144901245832443,0.3670194149017334,0.5113192796707153,0.8381811380386353,-9.894970893859863
1745729010.667283,0.010883977636694908,-0.026712149381637573,0.365983784198761,0.3748883008956909,0.9783074259757996,-9.753610610961914
1745729010.6692674,0.0069120414555072784,-0.03106069006025791,0.3654462695121765,0.48632127046585083,0.7814966440200806,-9.632625579833984
1745729010.707396,0.007256978191435337,-0.032049186527729034,0.3649330735206604,0.31150972843170166,1.0219167470932007,-9.793774604797363
1745729010.7091322,0.007451807148754597,-0.02753842994570732,0.3648110330104828,0.4590676724910736,0.6454097032546997,-9.852566719055176
1745729010.7104933,0.006870510522276163,-0.031730420887470245,0.3658455014228821,0.3868170380592346,0.9183276891708374,-9.582240104675293
1745729010.7124338,0.01164260320365429,-0.029412129893898964,0.366771399974823,0.299567312002182,0.9572980999946594,-9.740156173706055
1745729010.7477443,0.008371965028345585,-0.026804134249687195,0.36743637919425964,0.47483474016189575,0.7663099765777588,-9.75872802734375
1745729010.7493398,0.009649011306464672,-0.027707600966095924,0.3669796586036682,0.2858150005340576,1.0130265951156616,-9.792745590209961
1745729010.7526777,0.006871119141578674,-0.025334089994430542,0.36466285586357117,0.37445810437202454,0.6176713705062866,-9.767008781433105
1745729010.755504,0.011606852523982525,-0.02720915712416172,0.36628296971321106,0.3835929036140442,0.8911513090133667,-9.535876274108887
1745729010.8001692,0.001016083057038486,-0.02312919870018959,0.36729395389556885,0.44958409667015076,0.6855615377426147,-9.810925483703613
1745729010.8134894,-0.004019441548734903,-0.031211653724312782,0.3665105402469635,0.43520432710647583,0.7542313933372498,-9.925359725952148
1745729010.813766,0.005862148944288492,-0.023030906915664673,0.3662106990814209,0.3225683569908142,0.8078502416610718,-9.718389511108398
1745729010.8139749,-0.015035745687782764,-0.024216774851083755,0.36741894483566284,0.48768967390060425,0.7085717916488647,-9.57569408416748
1745729010.8140473,0.0012261655647307634,-0.025564897805452347,0.367249071598053,0.26947149634361267,0.8628036379814148,-9.783537864685059
1745729010.8369246,-0.004847537260502577,-0.023411931470036507,0.36755985021591187,0.4323875904083252,0.7953711748123169,-9.821313858032227
1745729010.8392558,-0.0048935795202851295,-0.024713806807994843,0.36774444580078125,0.3397185206413269,0.8407992124557495,-9.772442817687988
1745729010.841783,0.0024585030041635036,-0.021355392411351204,0.36771032214164734,0.36639100313186646,0.7886510491371155,-9.694687843322754
1745729010.8438363,-0.013136522844433784,-0.02681541070342064,0.3667033612728119,0.36963552236557007,0.8599850535392761,-9.73261833190918
1745729010.8787713,0.003566977335140109,-0.0207554679363966,0.36765605211257935,0.35552069544792175,0.7460106015205383,-9.852537155151367
1745729010.880932,-0.011548226699233055,-0.021675530821084976,0.36611026525497437,0.5482624769210815,0.7750366926193237,-9.75220775604248
1745729010.8828835,-0.001069031422957778,-0.02308759279549122,0.3648843765258789,0.2983589768409729,0.856346607208252,-9.72981071472168
1745729010.8850393,-0.012090960517525673,-0.02167695015668869,0.36850857734680176,0.41487908363342285,0.6559735536575317,-9.755838394165039
1745729010.885995,-0.005171038676053286,-0.025264304131269455,0.36913007497787476,0.3664318025112152,0.9347036480903625,-9.683423042297363
1745729010.9222066,-0.013644719496369362,-0.01787438616156578,0.37014442682266235,0.4479399621486664,0.6976108551025391,-9.787368774414062
1745729010.9247766,-0.006278402172029018,-0.02426822856068611,0.3685144782066345,0.36231759190559387,0.9999297857284546,-9.748207092285156
1745729010.926451,-0.004482042510062456,-0.022157881408929825,0.36651304364204407,0.35915058851242065,0.709851861000061,-9.829187393188477
1745729010.9286995,-0.006065234076231718,-0.02352024056017399,0.366624653339386,0.43836498260498047,0.8657379150390625,-9.747526168823242
1745729010.964831,-0.0063024163246154785,-0.018386859446763992,0.3672647774219513,0.3121950030326843,0.817898154258728,-9.668256759643555
1745729010.9651346,-0.01384201180189848,-0.024585779756307602,0.3667147159576416,0.3775046467781067,0.9108180999755859,-9.841653823852539
1745729010.967055,-0.01659616082906723,-0.015321594662964344,0.3696924149990082,0.46827736496925354,0.6346035003662109,-9.784893989562988
1745729010.968819,-0.018975283950567245,-0.021566390991210938,0.3684692978858948,0.3208642899990082,0.9525594711303711,-9.599462509155273
1745729010.9709673,-0.013834106735885143,-0.02472224272787571,0.3675834536552429,0.4422841966152191,0.7187284231185913,-9.78935432434082
1745729011.017933,-0.02194901742041111,-0.02108215168118477,0.3686697483062744,0.43791574239730835,0.8887708783149719,-9.870245933532715
1745729011.0194027,-0.009418194182217121,-0.014876717701554298,0.3689035177230835,0.2765202522277832,0.8560190200805664,-9.710468292236328
1745729011.0194712,-0.024126160889863968,-0.02320188842713833,0.36640411615371704,0.49091148376464844,0.8060493469238281,-9.623557090759277
1745729011.019518,-0.007025217171758413,-0.022287018597126007,0.3688075840473175,0.34183138608932495,0.9098004102706909,-9.824350357055664
1745729011.0495348,-0.01090067159384489,-0.0198336374014616,0.36767834424972534,0.4976334571838379,0.7394073605537415,-9.832646369934082
1745729011.050766,-0.018388312309980392,-0.021332349628210068,0.36890116333961487,0.3235691785812378,0.9119974374771118,-9.751020431518555
1745729011.0521777,-0.004930658731609583,-0.022691652178764343,0.3679591715335846,0.45846429467201233,0.7372072339057922,-9.673240661621094
1745729011.0534532,-0.01716824620962143,-0.024235477671027184,0.367471307516098,0.42745718359947205,0.8580385446548462,-9.716341018676758
1745729011.094376,-0.0050898161716759205,-0.027427654713392258,0.365008682012558,0.28397107124328613,0.8881851434707642,-9.63627815246582
1745729011.0960631,-0.014882072806358337,-0.025521760806441307,0.3658023476600647,0.43050140142440796,0.6506940126419067,-9.69933032989502
1745729011.0961456,-0.020057758316397667,-0.027736980468034744,0.36476582288742065,0.3812994062900543,0.8456374406814575,-9.833882331848145
1745729011.0981958,-0.012823954224586487,-0.025075450539588928,0.364362895488739,0.44104114174842834,0.715842604637146,-9.803730964660645
1745729011.1374822,-0.02788456156849861,-0.0283865574747324,0.36529630422592163,0.3766403794288635,0.8124488592147827,-9.69278621673584
1745729011.1409984,-0.015599188394844532,-0.018854685127735138,0.3653966784477234,0.342620849609375,0.717842698097229,-9.675152778625488
1745729011.143164,-0.026701757684350014,-0.026644591242074966,0.36686891317367554,0.4798150062561035,0.7677833437919617,-9.758739471435547
1745729011.144372,-0.015940453857183456,-0.027479365468025208,0.3648686408996582,0.2877635359764099,0.9821125268936157,-9.792501449584961
1745729011.146815,-0.014871098101139069,-0.0271021518856287,0.3636547923088074,0.4623478949069977,0.6750076413154602,-9.764044761657715
1745729011.1793737,-0.0134273124858737,-0.02546248957514763,0.36458805203437805,0.2611777186393738,1.0888879299163818,-9.705835342407227
1745729011.1827426,-0.019260374829173088,-0.022686133161187172,0.36351341009140015,0.3442452549934387,0.6245089769363403,-9.773838996887207
1745729011.1828306,-0.007759584579616785,-0.030650561675429344,0.3628963530063629,0.4386846423149109,0.8621422052383423,-9.639921188354492
1745729011.1830187,-0.019544418901205063,-0.020152604207396507,0.3636694550514221,0.4408363699913025,0.7468829154968262,-9.837206840515137
1745729011.2241695,-0.025925079360604286,-0.029826948419213295,0.36364325881004333,0.43547043204307556,0.6853793263435364,-9.82741928100586
1745729011.225517,-0.016315748915076256,-0.02598743699491024,0.36275243759155273,0.2983074486255646,0.7768820524215698,-9.674796104431152
1745729011.2274773,-0.03209475800395012,-0.023417366668581963,0.365112841129303,0.5191046595573425,0.6784110069274902,-9.650189399719238
1745729011.2281244,-0.02607583999633789,-0.022065158933401108,0.3639677166938782,0.3029314875602722,0.8775394558906555,-9.776308059692383
1745729011.2295668,-0.021992666646838188,-0.025740230455994606,0.3662562966346741,0.4439469277858734,0.7587074041366577,-9.786471366882324
1745729011.2652671,-0.030217241495847702,-0.02918066456913948,0.3646552562713623,0.3726978898048401,0.9095832705497742,-9.796709060668945
1745729011.265937,-0.014412475749850273,-0.020332206040620804,0.36303016543388367,0.3325125575065613,0.8297075033187866,-9.813112258911133
1745729011.2682698,-0.026613470166921616,-0.02445368468761444,0.36337167024612427,0.38914912939071655,0.9003636240959167,-9.620786666870117
1745729011.2711077,-0.016831431537866592,-0.025647591799497604,0.3623286187648773,0.3374216556549072,0.7630162835121155,-9.71155834197998
1745729011.3132646,-0.026411717757582664,-0.028128081932663918,0.3633881211280823,0.5538699626922607,0.7742083072662354,-9.850212097167969
1745729011.3207352,-0.018943503499031067,-0.028543895110487938,0.36564183235168457,0.38279539346694946,0.9112583994865417,-9.571975708007812
1745729011.3222427,-0.01886899210512638,-0.022298816591501236,0.3651668429374695,0.4836820960044861,0.7648292779922485,-9.880885124206543
1745729011.3249676,-0.021367691457271576,-0.02349366992712021,0.36534029245376587,0.3881487250328064,0.9406423568725586,-9.906257629394531
1745729011.350834,-0.014858750626444817,-0.023210342973470688,0.3639914095401764,0.3287872076034546,0.83122718334198,-9.745882034301758
1745729011.3526893,-0.020784620195627213,-0.027605589479207993,0.36234569549560547,0.4443686604499817,0.8124114274978638,-9.601953506469727
1745729011.3545072,-0.017907720059156418,-0.021980907768011093,0.364215224981308,0.2866505980491638,0.8708125352859497,-9.718602180480957
1745729011.3562243,-0.028934231027960777,-0.023565497249364853,0.36241403222084045,0.46713390946388245,0.5914356112480164,-9.878402709960938
1745729011.3945756,-0.02218789793550968,-0.026827270165085793,0.36504924297332764,0.37344056367874146,0.9350943565368652,-9.762161254882812
1745729011.3963742,-0.02850377932190895,-0.022017791867256165,0.364988774061203,0.44152942299842834,0.6740368604660034,-9.698110580444336
1745729011.3993764,-0.027123024687170982,-0.025171156972646713,0.3665509819984436,0.33742138743400574,0.917468249797821,-9.716135025024414
1745729011.401832,-0.021550912410020828,-0.01892217807471752,0.3655192255973816,0.332335501909256,0.746254026889801,-9.868942260742188
1745729011.4047048,-0.030772676691412926,-0.02448374405503273,0.366788774728775,0.4278784692287445,0.8725500106811523,-9.667856216430664
1745729011.4482846,-0.014727041125297546,-0.021003376692533493,0.36536717414855957,0.33074066042900085,0.8414328694343567,-9.697550773620605
1745729011.448402,-0.01019778847694397,-0.02647208794951439,0.3701189458370209,0.3912386894226074,0.9075101017951965,-9.848091125488281
1745729011.448499,-0.015802469104528427,-0.021024273708462715,0.37032952904701233,0.4560508728027344,0.7158225178718567,-9.827099800109863
1745729011.448577,-0.02096472680568695,-0.017737066373229027,0.37204208970069885,0.37085720896720886,0.9114542007446289,-9.636430740356445
1745729011.479311,-0.006976612843573093,-0.02002715691924095,0.3705183267593384,0.3476792275905609,0.8170763254165649,-9.707297325134277
1745729011.4808185,-0.01662154123187065,-0.025350844487547874,0.3711943030357361,0.4410291612148285,0.978629469871521,-9.791227340698242
1745729011.4813118,-0.00017859981744550169,-0.01961526647210121,0.368794322013855,0.3107792139053345,0.9102242588996887,-9.892637252807617
1745729011.4834175,-0.01485549658536911,-0.021429385989904404,0.36720404028892517,0.4139536917209625,0.7828376293182373,-9.707785606384277
1745729011.4860895,-0.009666023775935173,-0.020360758528113365,0.36802786588668823,0.24549320340156555,0.8843024373054504,-9.594625473022461
1745729011.5245633,-0.00784772913902998,-0.023583615198731422,0.36960914731025696,0.4889658987522125,0.6530634164810181,-9.706605911254883
1745729011.5291345,-0.02159223146736622,-0.021173788234591484,0.36836495995521545,0.4758501946926117,0.941301167011261,-9.92163372039795
1745729011.5354493,-0.011017921380698681,-0.017781712114810944,0.3690987229347229,0.3536200523376465,0.7503048181533813,-9.846291542053223
1745729011.5654318,-0.017435211688280106,-0.02604794129729271,0.3684289753437042,0.3895993232727051,0.8536005020141602,-9.520005226135254
1745729011.5680819,-0.011748292483389378,-0.020557831972837448,0.36903637647628784,0.36963969469070435,0.8544527292251587,-9.655354499816895
1745729011.5700076,-0.02215704321861267,-0.019684793427586555,0.36963939666748047,0.41263991594314575,0.721878707408905,-9.972277641296387
1745729011.571742,-0.004622378386557102,-0.019082918763160706,0.3702549934387207,0.23587718605995178,1.0211817026138306,-9.74073314666748
1745729011.5727875,-0.01522710733115673,-0.021117717027664185,0.3675013482570648,0.4496692717075348,0.6578547358512878,-9.538137435913086
1745729011.6160548,-0.012484923005104065,-0.022971119731664658,0.3687378466129303,0.32951921224594116,1.0450702905654907,-9.726784706115723
1745729011.616124,-0.013572292402386665,-0.016195055097341537,0.3667912781238556,0.4032437205314636,0.7597413063049316,-9.946465492248535
1745729011.6161718,-0.01617693528532982,-0.024232277646660805,0.36689239740371704,0.4304885268211365,0.8218106031417847,-9.714797973632812
1745729011.618169,-0.01369243860244751,-0.020642029121518135,0.36516207456588745,0.3779148459434509,0.7869258522987366,-9.60641098022461
1745729011.654312,-0.025578051805496216,-0.01999557577073574,0.3700826168060303,0.418875515460968,0.6833022236824036,-9.72270393371582
1745729011.6546712,-0.015282782725989819,-0.018585626035928726,0.36852937936782837,0.2202451229095459,0.8756135702133179,-9.775428771972656
1745729011.658474,-0.018399272114038467,-0.02498137578368187,0.36571893095970154,0.3654201626777649,0.9448045492172241,-9.80531120300293
1745729011.65952,-0.002715549897402525,-0.01728816330432892,0.3641619086265564,0.3536812663078308,0.8152735829353333,-9.722740173339844
1745729011.6961167,-0.021263694390654564,-0.01929723657667637,0.3666158616542816,0.4291641116142273,0.8149636387825012,-9.57977294921875
1745729011.699184,-0.01625402644276619,-0.019917558878660202,0.36755579710006714,0.2963166832923889,0.7477129101753235,-9.811171531677246
1745729011.70133,-0.020192574709653854,-0.023331113159656525,0.3664414584636688,0.5582146644592285,0.7443223595619202,-9.822155952453613
1745729011.706261,-0.02154708281159401,-0.01871141418814659,0.36798810958862305,0.3560861647129059,0.9310428500175476,-9.720036506652832
1745729011.7440896,-0.02128993347287178,-0.017186442390084267,0.36612868309020996,0.43117594718933105,0.7237049341201782,-9.70493221282959
1745729011.748038,-0.01728532649576664,-0.026849064975976944,0.36598101258277893,0.3559354543685913,0.9712797403335571,-9.776957511901855
1745729011.7481892,-0.017410999163985252,-0.021358609199523926,0.3669620454311371,0.37630695104599,0.8039485216140747,-9.797067642211914
1745729011.7482738,-0.016223926097154617,-0.022800836712121964,0.36696311831474304,0.38732221722602844,0.8764370679855347,-9.694860458374023
1745729011.7483304,-0.01301663089543581,-0.02029860019683838,0.3676294684410095,0.28778308629989624,0.9258975982666016,-9.715808868408203
1745729011.7819924,-0.021901102736592293,-0.02460634522140026,0.36570316553115845,0.42805567383766174,0.7294618487358093,-9.710823059082031
1745729011.7822263,-0.0040900069288909435,-0.023375432938337326,0.36550095677375793,0.3726291060447693,0.9913604855537415,-9.678125381469727
1745729011.7844222,-0.02150377631187439,-0.02006429433822632,0.3639480471611023,0.4195437431335449,0.677993655204773,-9.628561019897461
1745729011.7856538,-0.017316853627562523,-0.027857232838869095,0.3646656572818756,0.3880120813846588,0.9420458674430847,-9.878182411193848
1745729011.825918,-0.01266922615468502,-0.021197086200118065,0.36138036847114563,0.38998764753341675,0.890326976776123,-9.892853736877441
1745729011.8284647,-0.012742872349917889,-0.026000503450632095,0.361837238073349,0.42251357436180115,0.884311854839325,-9.61347770690918
1745729011.828918,-0.010753628797829151,-0.02175007574260235,0.3606213629245758,0.30425843596458435,0.9300945401191711,-9.669044494628906
1745729011.8318655,-0.019823549315333366,-0.024646053090691566,0.3597807288169861,0.3817608952522278,0.7514030337333679,-9.86832046508789
1745729011.8717,-0.003842356149107218,-0.023616570979356766,0.35912007093429565,0.30271047353744507,0.9708248376846313,-9.734636306762695
1745729011.8718138,-0.025580381974577904,-0.021404704079031944,0.35981839895248413,0.5001524090766907,0.6802797317504883,-9.67341136932373
1745729011.8718677,-0.017585787922143936,-0.027288222685456276,0.3588021695613861,0.3547326922416687,0.9431225657463074,-9.730236053466797
1745729011.8719058,-0.01744517683982849,-0.025015469640493393,0.3602229654788971,0.4108278155326843,0.6696749925613403,-9.877730369567871
1745729011.8739839,-0.02618761733174324,-0.02344762347638607,0.36325493454933167,0.438495397567749,0.8564403653144836,-9.702215194702148
1745729011.917142,-0.015851112082600594,-0.017998894676566124,0.3619808852672577,0.3152613937854767,0.807019054889679,-9.6683349609375
1745729011.9172559,-0.020063254982233047,-0.030443241819739342,0.36420294642448425,0.43126529455184937,0.901462733745575,-9.681998252868652
1745729011.9173067,-0.009224697016179562,-0.02424902841448784,0.3620957136154175,0.31606775522232056,0.9680644273757935,-9.918739318847656
1745729011.9173534,-0.012963591143488884,-0.02174382284283638,0.3617745637893677,0.42829981446266174,0.8905501365661621,-9.832799911499023
1745729011.956068,-0.012155806645751,-0.023700660094618797,0.36021533608436584,0.2592623829841614,1.0022404193878174,-9.558003425598145
1745729011.9562266,-0.01243556197732687,-0.024756483733654022,0.36023229360580444,0.468993604183197,0.6477612257003784,-9.645959854125977
1745729011.9572365,-0.018405865877866745,-0.027862971648573875,0.35991376638412476,0.48958492279052734,0.9088129997253418,-9.90542984008789
1745729011.9594593,-0.011560378596186638,-0.019029470160603523,0.3616552948951721,0.3635854125022888,0.7103188633918762,-9.926259994506836
1745729011.9599426,-0.02306283637881279,-0.025651011615991592,0.361929714679718,0.35370510816574097,0.8355816006660461,-9.514856338500977
1745729011.9985478,-0.01017201878130436,-0.027452033013105392,0.36328500509262085,0.39362645149230957,0.8719770312309265,-9.54725456237793
1745729012.0028858,-0.022894594818353653,-0.024291379377245903,0.36326807737350464,0.503318190574646,0.8422643542289734,-9.955506324768066
1745729012.0092816,-0.005501188803464174,-0.020231375470757484,0.36159762740135193,0.24126510322093964,1.0183992385864258,-9.949222564697266
1745729012.009326,-0.020055850967764854,-0.025840630754828453,0.3597941994667053,0.4409133791923523,0.7920520901679993,-9.877806663513184
1745729012.0399208,-0.009276580065488815,-0.023128269240260124,0.3592548370361328,0.4176243245601654,0.8778287172317505,-9.714503288269043
1745729012.0413325,-0.026684746146202087,-0.024315577000379562,0.3621361255645752,0.48259440064430237,0.7625594139099121,-9.649492263793945
1745729012.0438325,-0.007862908765673637,-0.02271687611937523,0.36111506819725037,0.2933587431907654,0.9477163553237915,-9.765291213989258
1745729012.0460365,-0.01939932070672512,-0.023435834795236588,0.3630484938621521,0.4684127867221832,0.7579447031021118,-9.847805976867676
1745729012.0487604,-0.014434467069804668,-0.023915685713291168,0.36272722482681274,0.30581456422805786,0.9997817277908325,-9.71586799621582
1745729012.0841312,-0.005699191242456436,-0.02172059938311577,0.36054155230522156,0.3930339217185974,0.8653644323348999,-9.640762329101562
1745729012.0866008,-0.01970355398952961,-0.02854917384684086,0.3609769344329834,0.33538761734962463,0.9952654838562012,-9.845858573913574
1745729012.0875137,-0.001377904787659645,-0.020871812477707863,0.35926124453544617,0.30714577436447144,0.7898589968681335,-9.827322006225586
1745729012.0877523,-0.011302730068564415,-0.02549799717962742,0.35928580164909363,0.45652779936790466,0.8845531344413757,-9.529141426086426
1745729012.1255608,-0.012122401967644691,-0.02358745038509369,0.3595312535762787,0.3231027126312256,0.8009893298149109,-9.79418659210205
1745729012.126614,-0.01564331166446209,-0.02540608122944832,0.3598082661628723,0.47259631752967834,0.7373760938644409,-9.941038131713867
1745729012.1276848,-0.012840300798416138,-0.022135693579912186,0.3611103892326355,0.26068392395973206,0.9026616811752319,-9.680475234985352
1745729012.1299598,0.0018464172026142478,-0.02429364249110222,0.3584441542625427,0.44717341661453247,0.7265838384628296,-9.721627235412598
1745729012.1733127,-0.015005186200141907,-0.02688506804406643,0.357820600271225,0.39109936356544495,0.9688894152641296,-9.932952880859375
1745729012.1733932,-0.00019713751680683345,-0.01926029473543167,0.35765713453292847,0.3120001554489136,0.7818991541862488,-9.797778129577637
1745729012.1739237,-0.005034632049500942,-0.026592422276735306,0.3566667437553406,0.4687061905860901,0.8665947914123535,-9.460780143737793
1745729012.1761668,-0.004872188903391361,-0.023456156253814697,0.3552124500274658,0.38135674595832825,0.9342018961906433,-9.782638549804688
1745729012.2114606,-0.008855204097926617,-0.028430333361029625,0.3572351634502411,0.46706217527389526,0.7198359966278076,-10.02525806427002
1745729012.2153542,0.003057634923607111,-0.025951962918043137,0.3578401207923889,0.28147581219673157,0.935501217842102,-9.675607681274414
1745729012.2182271,-0.007060031406581402,-0.019016437232494354,0.3581094741821289,0.4642261564731598,0.6793493628501892,-9.458097457885742
1745729012.2204459,-0.0063474588096141815,-0.02605479396879673,0.3620653748512268,0.37652111053466797,0.9223616719245911,-9.779153823852539
1745729012.225018,0.00462384894490242,-0.02430211938917637,0.35957708954811096,0.4026474952697754,0.8695433735847473,-9.98652458190918
1745729012.256035,-0.006308869458734989,-0.026479262858629227,0.3568633198738098,0.4906979203224182,0.8338755369186401,-9.76860237121582
1745729012.2580476,0.0013249203329905868,-0.022404123097658157,0.3583833873271942,0.264150470495224,0.9452332258224487,-9.604337692260742
1745729012.2604198,-0.013582584448158741,-0.02953466773033142,0.35776931047439575,0.4110012948513031,0.674591064453125,-9.71442699432373
1745729012.263257,0.001483403262682259,-0.028249073773622513,0.35608071088790894,0.3635745644569397,0.9054964184761047,-9.816232681274414
1745729012.3021672,-0.017559658735990524,-0.022757509723305702,0.3581818640232086,0.515044093132019,0.6908010244369507,-9.811210632324219
1745729012.303555,-0.0121410908177495,-0.02914901077747345,0.35900449752807617,0.3144124150276184,0.8837196230888367,-9.664308547973633
1745729012.3070571,-0.006665813736617565,-0.02475077286362648,0.35732921957969666,0.38084709644317627,0.7803921103477478,-9.702569961547852
1745729012.3092625,-0.015059630386531353,-0.028849437832832336,0.3580726087093353,0.47738999128341675,0.9151090383529663,-9.784697532653809
1745729012.3422332,-0.0026230469811707735,-0.021588247269392014,0.35808101296424866,0.3985486328601837,0.8405433893203735,-9.839410781860352
1745729012.3436654,-0.012102016247808933,-0.027345746755599976,0.3592439591884613,0.4009726643562317,0.9108034372329712,-9.693428039550781
1745729012.345272,-0.0014848655555397272,-0.03009643591940403,0.3580387830734253,0.2769194543361664,0.86247318983078,-9.725208282470703
1745729012.3472052,-0.0012119639432057738,-0.02642691135406494,0.3571818470954895,0.4730914235115051,0.8299597501754761,-9.771185874938965
1745729012.38506,-0.01569541171193123,-0.027320438995957375,0.35675501823425293,0.401839017868042,0.7591172456741333,-9.671356201171875
1745729012.3883612,-0.008598553948104382,-0.03160301595926285,0.35938969254493713,0.35058239102363586,0.8495448231697083,-9.630454063415527
1745729012.3897128,-0.02546711266040802,-0.02709796465933323,0.35815855860710144,0.5093792080879211,0.7312062978744507,-9.773496627807617
1745729012.391743,-0.005016734823584557,-0.029020514339208603,0.3586041331291199,0.3156766891479492,0.9871573448181152,-9.812400817871094
1745729012.39455,-0.01945984922349453,-0.02904796041548252,0.3560023903846741,0.4421369433403015,0.8132966756820679,-9.810911178588867
1745729012.4296482,-0.013407593593001366,-0.03197453171014786,0.35524943470954895,0.3193505108356476,0.9415732622146606,-9.683526039123535
1745729012.4383867,-0.006205532234162092,-0.0265840832144022,0.35518473386764526,0.3776768147945404,0.7835990190505981,-9.626771926879883
1745729012.4385173,-0.024740491062402725,-0.03239991515874863,0.35603347420692444,0.416424036026001,0.8380753397941589,-9.800342559814453
1745729012.4385982,-0.007412361912429333,-0.030604606494307518,0.3553057312965393,0.3584069609642029,0.8092128038406372,-9.87315559387207
1745729012.471987,-0.018644075840711594,-0.030955415219068527,0.3564261794090271,0.46897831559181213,0.7697048783302307,-9.682929039001465
1745729012.47226,-0.01241700816899538,-0.02443637326359749,0.35565185546875,0.3042929768562317,0.9805349111557007,-9.58862590789795
1745729012.4739187,-0.017444215714931488,-0.03221531957387924,0.35873350501060486,0.4827815890312195,0.6725338101387024,-9.809669494628906
1745729012.4763718,-0.006269440054893494,-0.033527541905641556,0.3559330403804779,0.34739425778388977,1.078622579574585,-9.825460433959961
1745729012.5153155,-0.01016739197075367,-0.028600668534636497,0.35997799038887024,0.32148024439811707,0.8621588945388794,-9.84950065612793
1745729012.518207,-0.003872893052175641,-0.022318631410598755,0.3573214113712311,0.3816041946411133,0.7077765464782715,-9.661199569702148
1745729012.5206523,-0.02647973597049713,-0.02618503011763096,0.3584688603878021,0.4220898747444153,0.7631465196609497,-9.674957275390625
1745729012.5229268,-0.011145935393869877,-0.026302576065063477,0.3595368266105652,0.3402474522590637,0.7712477445602417,-9.848569869995117
1745729012.555171,-0.02586030587553978,-0.02742965891957283,0.3622308075428009,0.45029765367507935,0.7252241373062134,-9.807706832885742
1745729012.5569139,-0.016510484740138054,-0.02147897332906723,0.36066552996635437,0.2960626780986786,0.8659399151802063,-9.641861915588379
1745729012.559844,-0.021365417167544365,-0.02101314626634121,0.36390551924705505,0.4252200722694397,0.7525666356086731,-9.678776741027832
1745729012.5604281,-0.015572862699627876,-0.027829265221953392,0.3627792000770569,0.3085331320762634,1.1045925617218018,-9.786331176757812
1745729012.562594,-0.004972681403160095,-0.023914018645882607,0.36090511083602905,0.45457059144973755,0.7610949873924255,-9.903730392456055
1745729012.6075077,-0.012317241169512272,-0.024687509983778,0.36050915718078613,0.345846951007843,1.0273191928863525,-9.747673034667969
1745729012.6075869,-0.005173543933779001,-0.019602812826633453,0.36053475737571716,0.26505592465400696,0.7561829686164856,-9.655920028686523
1745729012.6076493,-0.007678668014705181,-0.02925216592848301,0.3622378408908844,0.5058117508888245,0.8157186508178711,-9.64786148071289
1745729012.6128845,-0.007097003515809774,-0.022609902545809746,0.36121103167533875,0.36821916699409485,0.9219504594802856,-9.926770210266113
1745729012.644,-0.012175552546977997,-0.02059248462319374,0.36118102073669434,0.4199047088623047,0.6968568563461304,-9.8789701461792
1745729012.646341,-0.001364297466352582,-0.024103496223688126,0.3625926673412323,0.26033300161361694,0.9361804723739624,-9.548822402954102
1745729012.64952,-0.011699849739670753,-0.0225289948284626,0.36336103081703186,0.48751068115234375,0.7084082365036011,-9.613304138183594
1745729012.6510758,-0.012713638134300709,-0.024316078051924706,0.3625929355621338,0.37017136812210083,0.8777097463607788,-9.930095672607422
1745729012.6860554,0.000927830405998975,-0.0181160606443882,0.3623742163181305,0.3072684407234192,0.8281995058059692,-9.908642768859863
1745729012.6861835,-0.016570687294006348,-0.025774717330932617,0.36244601011276245,0.3996039032936096,0.7760741710662842,-9.593017578125
1745729012.693536,0.003917212598025799,-0.022903848439455032,0.36010226607322693,0.28444704413414,0.9244958162307739,-9.66716194152832
1745729012.6961126,-0.02157113142311573,-0.019864216446876526,0.35928165912628174,0.4320853352546692,0.7559179067611694,-9.827607154846191
1745729012.6961856,-0.006766404956579208,-0.024296503514051437,0.3630404770374298,0.2998487651348114,0.7793415784835815,-9.793279647827148
1745729012.730592,-0.007118030451238155,-0.01903594844043255,0.36468321084976196,0.41602984070777893,0.8958452343940735,-9.723786354064941
1745729012.743314,-0.0027626571245491505,-0.022016707807779312,0.3637690544128418,0.2826228439807892,0.9752864837646484,-9.907907485961914
1745729012.7434464,-0.0018278562929481268,-0.01976599544286728,0.3622785806655884,0.4343597888946533,0.6863792538642883,-9.767812728881836
1745729012.7435038,-0.002072390168905258,-0.019258737564086914,0.363692045211792,0.3139550983905792,0.9720928072929382,-9.480195045471191
1745729012.7715528,-0.015642300248146057,-0.018674395978450775,0.36354103684425354,0.4370286464691162,0.6123769879341125,-9.803540229797363
1745729012.7731354,-0.007669965270906687,-0.026962775737047195,0.3628750443458557,0.46603378653526306,0.8889872431755066,-9.940500259399414
1745729012.7731957,-0.005029554944485426,-0.015392929315567017,0.3639836609363556,0.3257991671562195,0.819104015827179,-9.78925895690918
1745729012.7754009,-0.01794259250164032,-0.020408455282449722,0.3645384907722473,0.3798065185546875,0.7978644967079163,-9.520340919494629
1745729012.815426,0.002450696425512433,-0.020181918516755104,0.3658057451248169,0.28283292055130005,0.8602114915847778,-9.704534530639648
1745729012.818223,-0.01312243938446045,-0.022138437256217003,0.36656302213668823,0.4654017984867096,0.8289438486099243,-9.877847671508789
1745729012.8207703,0.001517457771115005,-0.01824214681982994,0.36635658144950867,0.28145676851272583,0.9331144094467163,-9.847369194030762
1745729012.832682,-0.003127413336187601,-0.018586842343211174,0.363557904958725,0.37315982580184937,0.7995848655700684,-9.635473251342773
1745729012.8328075,-0.007114140782505274,-0.02212078496813774,0.364826500415802,0.3206503391265869,0.9486231803894043,-9.617067337036133
1745729012.8617458,0.002765686484053731,-0.01912032626569271,0.36335694789886475,0.42660680413246155,0.7369818091392517,-9.831743240356445
1745729012.8618631,-0.02839953824877739,-0.034745942801237106,0.3150055706501007,0.27027469873428345,0.4656851887702942,-9.753063201904297
1745729012.8619294,-0.01256473083049059,-0.036708369851112366,0.3159506320953369,0.4023522734642029,0.5424982905387878,-9.70629596710205
1745729012.8619797,-0.047445137053728104,-0.038964126259088516,0.3142785131931305,0.3805898129940033,0.7559899091720581,-9.835290908813477
1745729012.9024098,-0.020091036334633827,-0.030303657054901123,0.3144076466560364,0.0917014330625534,0.7948078513145447,-9.909339904785156
1745729012.9072232,-0.029823854565620422,-0.03389064222574234,0.31475552916526794,0.3023504614830017,1.020536184310913,-9.524872779846191
1745729012.9108565,0.002326329005882144,-0.03795641288161278,0.31418102979660034,0.19762183725833893,1.1610145568847656,-9.634225845336914
1745729012.9157195,0.005998837761580944,-0.03320551663637161,0.3124249577522278,0.2657056450843811,1.0495326519012451,-9.97601318359375
1745729012.94474,0.025922482833266258,-0.0356103740632534,0.3093319535255432,0.1387099027633667,1.101159691810608,-9.91395378112793
1745729012.9452255,0.03588969260454178,-0.030705425888299942,0.30827146768569946,0.31551027297973633,0.9211899638175964,-9.436971664428711
1745729012.9465852,0.030161608010530472,-0.03838711604475975,0.3076458275318146,0.41443759202957153,0.8569315075874329,-9.6251220703125
1745729012.9489844,0.024841133505105972,-0.03493034094572067,0.3061901032924652,0.2533673644065857,0.709063708782196,-10.22654914855957
1745729012.9510963,0.02780195139348507,-0.03512800857424736,0.3038480877876282,0.43103861808776855,0.4948618412017822,-9.912728309631348
1745729012.9870703,0.012908712029457092,-0.02940678596496582,0.3051871657371521,0.2107480764389038,0.8909033536911011,-9.299825668334961
1745729012.9885185,-0.0067455219104886055,-0.03942285105586052,0.30525070428848267,0.321474552154541,0.3140258193016052,-9.726085662841797
1745729012.9885662,0.010198424570262432,-0.0386451780796051,0.3044443130493164,0.19106964766979218,0.9145161509513855,-10.100372314453125
1745729012.9955258,-0.009960176423192024,-0.022056227549910545,0.3039347529411316,0.19434905052185059,0.5459531545639038,-9.897150993347168
1745729013.0311031,-0.0007969968137331307,-0.03423197939991951,0.30234184861183167,0.18274618685245514,0.9300969243049622,-9.28965950012207
1745729013.0332687,0.0013631857000291348,-0.03408556431531906,0.3041597306728363,0.22614476084709167,0.6623467206954956,-9.685829162597656
1745729013.035297,-0.0008074341458268464,-0.029937218874692917,0.30308252573013306,0.38481858372688293,0.7703081369400024,-10.157621383666992
1745729013.0365484,0.004338209982961416,-0.016621757298707962,0.3056796193122864,0.20924481749534607,0.7661390900611877,-9.884112358093262
1745729013.0403159,0.0033841473050415516,-0.02812368795275688,0.30363208055496216,0.4408261179924011,0.817071795463562,-9.217533111572266
1745729013.192924,0.002827452030032873,-0.03526337817311287,0.30558958649635315,0.33532631397247314,0.8248961567878723,-9.726436614990234
1745729013.1930401,0.023312345147132874,-0.015698423609137535,0.30149734020233154,0.34019193053245544,0.904210090637207,-9.603205680847168
1745729013.1931481,0.028022099286317825,-0.024062667042016983,0.30325111746788025,0.18887624144554138,0.7246146202087402,-9.202849388122559
1745729013.19325,0.023074084892868996,-0.02760211192071438,0.3036767840385437,0.40132537484169006,0.6207628846168518,-9.866453170776367
1745729013.1933007,0.02411363646388054,-0.015021534636616707,0.3055369257926941,0.2228151112794876,0.6694856882095337,-10.361257553100586
1745729013.1933851,0.02113374136388302,-0.012265553697943687,0.3033432364463806,0.2781994938850403,0.7212547063827515,-9.625741958618164
1745729013.1934564,0.008131461217999458,-0.025516847148537636,0.30447444319725037,0.31863290071487427,0.5549224615097046,-9.25784969329834
1745729013.1934974,0.011820266023278236,-0.017200341448187828,0.30188900232315063,0.25950923562049866,0.7617741227149963,-9.90296745300293
1745729013.1935463,-0.028444688767194748,-0.013377415016293526,0.302558571100235,0.2815857529640198,0.49513235688209534,-10.291858673095703
1745729013.1935847,0.021916162222623825,-0.016047948971390724,0.30159634351730347,0.28393930196762085,0.8917484283447266,-9.451391220092773
1745729013.1936238,-0.024305082857608795,-0.01972810924053192,0.2994704246520996,0.3738151490688324,0.8260734677314758,-9.394408226013184
1745729013.1936774,0.014280512928962708,-0.030200744047760963,0.29511016607284546,0.07194982469081879,1.0301939249038696,-10.235528945922852
1745729013.1937122,0.02021270990371704,-0.011117684654891491,0.29091793298721313,0.12749484181404114,1.164037823677063,-9.969673156738281
1745729013.2171292,0.036069102585315704,-0.022561434656381607,0.2845098376274109,-0.043483443558216095,1.1249055862426758,-9.338912963867188
1745729013.2172713,0.05370926111936569,-0.028926197439432144,0.2801150679588318,-0.11094880104064941,0.9434751272201538,-9.55559253692627
1745729013.2173352,0.05971429497003555,-0.05631840229034424,0.2035735845565796,0.41570553183555603,1.0058938264846802,-9.828338623046875
1745729013.2173939,0.11298204958438873,-0.03776823356747627,0.19406722486019135,0.07528515160083771,1.0768823623657227,-11.034612655639648
1745729013.2469356,0.10293354094028473,-0.020420068874955177,0.1889146864414215,-0.015388046391308308,0.8098350763320923,-9.813417434692383
1745729013.2485883,0.11903121322393417,-0.030068522319197655,0.18827863037586212,0.11006065458059311,0.6419022679328918,-8.415231704711914
1745729013.2503102,0.08857552707195282,-0.05061931535601616,0.18856915831565857,0.4246191382408142,0.15613055229187012,-9.6730375289917
1745729013.251589,0.1128411740064621,-0.028653353452682495,0.19104284048080444,0.021032750606536865,0.4549112915992737,-11.06624984741211
1745729013.293196,0.08442412316799164,-0.003420583438128233,0.19606025516986847,0.15584571659564972,0.05819007009267807,-9.784085273742676
1745729013.2933278,0.08350733667612076,-0.03684043139219284,0.20395112037658691,0.36822235584259033,0.3001575469970703,-8.485738754272461
1745729013.2934003,0.0575985312461853,-0.028456073254346848,0.2010064423084259,0.4292488992214203,0.2824048101902008,-9.840922355651855
1745729013.2956216,0.032223429530858994,-0.018767764791846275,0.20014937222003937,0.3583056330680847,0.46318522095680237,-10.996439933776855
1745729013.2979074,0.05563800781965256,-0.010423235595226288,0.19952867925167084,0.3399341106414795,0.5261712074279785,-9.581270217895508
1745729013.445493,0.018300442025065422,-0.028999054804444313,0.20008938014507294,0.5980709791183472,0.6196228861808777,-8.791666030883789
1745729013.445611,0.02184881828725338,-0.035690389573574066,0.20025798678398132,0.29777488112449646,0.7958725690841675,-10.205700874328613
1745729013.4457517,0.05189927667379379,-0.018209699541330338,0.203446626663208,0.29943886399269104,0.8095874786376953,-10.690999031066895
1745729013.4458272,0.06637491285800934,-0.01433666329830885,0.2025735080242157,0.20747792720794678,1.2488123178482056,-9.211403846740723
1745729013.4459357,0.09197122603654861,-0.021238800138235092,0.20585119724273682,0.2822691798210144,0.8929948806762695,-9.071619987487793
1745729013.4460058,0.11863931268453598,-0.03127402439713478,0.2079341858625412,0.27909576892852783,1.3027647733688354,-10.136919975280762
1745729013.446065,0.1531241238117218,-0.010505743324756622,0.20567317306995392,0.11733339726924896,0.7558192610740662,-10.5767240524292
1745729013.4461136,0.15556323528289795,-0.008669896051287651,0.2068919688463211,0.22964182496070862,0.5839414000511169,-9.371295928955078
1745729013.446153,0.15182018280029297,-0.0168316550552845,0.21146270632743835,0.074982650578022,0.2195846289396286,-9.123910903930664
1745729013.4461913,0.12089478969573975,-0.01712263561785221,0.21143560111522675,0.28504234552383423,0.14510175585746765,-9.942949295043945
1745729013.4462304,0.10824520885944366,-0.008295550011098385,0.20840021967887878,0.35277581214904785,0.09881969541311264,-10.331790924072266
1745729013.4462693,0.032479651272296906,-0.005759011954069138,0.2198977917432785,0.24936071038246155,0.6483266949653625,-9.398691177368164
1745729013.446308,0.06518904864788055,0.0006625807145610452,0.22114166617393494,0.1726810187101364,1.0344138145446777,-9.710830688476562
1745729013.4608011,0.06696263700723648,0.0052160643972456455,0.2206191122531891,0.35533076524734497,0.7534539103507996,-10.10716438293457
1745729013.462921,0.09992517530918121,-0.004867821000516415,0.21920523047447205,0.2901955246925354,0.9024434089660645,-9.897489547729492
1745729013.4660535,0.10687577724456787,0.005245481617748737,0.21996207535266876,0.27457621693611145,0.669823944568634,-9.591353416442871
1745729013.4669724,0.09709452092647552,0.005277377553284168,0.2208489179611206,0.32230764627456665,0.4878138601779938,-9.691113471984863
1745729013.5062428,0.107622429728508,0.0005267519736662507,0.22010929882526398,0.353920042514801,0.5231368541717529,-9.819112777709961
1745729013.5066988,0.08629211783409119,-0.004615019075572491,0.2207798957824707,0.5677600502967834,0.15402260422706604,-9.999452590942383
1745729013.5107496,0.09226065874099731,0.008720415644347668,0.2216760665178299,0.16450567543506622,0.5803433656692505,-9.831901550292969
1745729013.5179935,0.06796270608901978,0.008621814660727978,0.22106048464775085,0.20450405776500702,-0.0139923095703125,-9.548224449157715
1745729013.5180511,0.07850092649459839,-0.001884594326838851,0.22325968742370605,0.3277546465396881,0.4883081912994385,-9.49231243133545
1745729013.6942453,0.05539634823799133,0.008951691910624504,0.22429335117340088,0.32667404413223267,0.10852362960577011,-10.211647987365723
1745729013.694385,0.06285900622606277,0.0074542732909321785,0.2258671522140503,0.1275208592414856,0.4283960461616516,-9.986062049865723
1745729013.6945322,0.05999035760760307,0.015911700204014778,0.2281176596879959,0.07498756796121597,0.272666871547699,-9.272363662719727
1745729013.694662,0.013518032617866993,0.000751837738789618,0.21607303619384766,0.35713285207748413,0.26745185256004333,-9.757442474365234
1745729013.6947892,0.01966782845556736,0.005041354335844517,0.21479451656341553,0.19196325540542603,0.2241481989622116,-10.31971263885498
1745729013.6948547,0.01808394119143486,-0.001260981778614223,0.2158692181110382,0.29276037216186523,0.20346617698669434,-9.794777870178223
1745729013.6949358,0.03673578426241875,0.006129125598818064,0.21444959938526154,0.10630138218402863,0.6082691550254822,-9.273275375366211
1745729013.6949944,3.03490087389946e-05,7.333736721193418e-05,0.21426737308502197,0.26894646883010864,0.22327513992786407,-9.717022895812988
1745729013.695064,0.03882456198334694,-0.010478558950126171,0.21079254150390625,0.29689282178878784,0.4694591462612152,-10.137063980102539
1745729013.695145,0.02734788879752159,0.008753353729844093,0.21255464851856232,0.3107403814792633,0.43028339743614197,-9.873934745788574
1745729013.6951878,0.01279856264591217,-0.0024748994037508965,0.209931880235672,0.19097372889518738,0.37282347679138184,-9.485896110534668
1745729013.6952364,0.04481353610754013,-0.007961435243487358,0.20925667881965637,0.305215060710907,0.4390769600868225,-9.510807037353516
1745729013.695275,0.01854003593325615,-0.0047337752766907215,0.2083447277545929,0.4500584602355957,0.44865721464157104,-10.103862762451172
1745729013.6953132,0.04199467971920967,-0.00033481401624158025,0.2079489529132843,0.1785418689250946,0.4134621024131775,-10.133381843566895
1745729013.6953516,0.04026308283209801,-0.003570304485037923,0.20852544903755188,0.3227890431880951,0.34258323907852173,-9.363398551940918
1745729013.6953895,0.04022203013300896,-0.009024335071444511,0.2072126418352127,0.15451692044734955,0.40253156423568726,-9.400458335876465
1745729013.6954267,0.03631032630801201,-0.0006736268405802548,0.20546698570251465,0.46169811487197876,0.2892538011074066,-10.015064239501953
1745729013.7220855,0.03497314453125,-0.010397766716778278,0.2026987373828888,0.6410031318664551,0.38885006308555603,-10.17536735534668
1745729013.7222207,0.08304597437381744,-0.02195318415760994,0.1963139772415161,-0.44056814908981323,0.9056507349014282,-9.982722282409668
1745729013.7240405,0.08308811485767365,0.013513630256056786,0.18848517537117004,0.15180405974388123,0.49487847089767456,-8.957175254821777
1745729013.725151,0.08465547114610672,-0.01651342213153839,0.17682188749313354,0.06905565410852432,0.4438888132572174,-9.641565322875977
1745729013.761967,0.030744414776563644,-0.050626855343580246,0.17264004051685333,-0.24596007168293,-0.39823436737060547,-11.033802032470703
1745729013.7630296,0.06577476114034653,0.011327276937663555,0.17167985439300537,-0.663207471370697,0.19079585373401642,-9.844146728515625
1745729013.7642975,0.009336551651358604,0.02625901624560356,0.1678948700428009,-0.27526015043258667,-0.40211087465286255,-8.014912605285645
1745729013.7653763,0.0309595949947834,-0.034746669232845306,0.16584502160549164,1.034942626953125,0.16170817613601685,-8.827489852905273
1745729013.7665324,0.011253469623625278,-0.004275246057659388,0.11187094449996948,0.917312502861023,1.3875463008880615,-11.723776817321777
1745729013.946526,0.09225745499134064,0.004027374554425478,0.09180482476949692,0.7878381013870239,1.7687709331512451,-8.272906303405762
1745729013.9466166,0.08337870985269547,-0.025571733713150024,0.0861496850848198,0.8304305076599121,0.47736597061157227,-8.41481876373291
1745729013.9467397,0.1469525396823883,-0.029468461871147156,0.09194111824035645,0.6094732880592346,-0.011069429107010365,-11.2777681350708
1745729013.9468215,0.14826367795467377,0.021915771067142487,0.09766397625207901,0.30252599716186523,-0.05795121192932129,-11.026034355163574
1745729013.9468656,0.1341312974691391,0.019545232877135277,0.09718910604715347,0.20394667983055115,0.09073799848556519,-8.208208084106445
1745729013.9469347,0.15890279412269592,-0.008888039737939835,0.08308130502700806,0.33076581358909607,0.9117251634597778,-8.17873764038086
1745729013.946993,0.12153275310993195,-0.0072741424664855,0.057685814797878265,0.7487000226974487,0.5424444675445557,-11.319411277770996
1745729013.947079,0.14718173444271088,0.0198492594063282,0.03416839987039566,0.40686121582984924,0.30414462089538574,-11.597796440124512
1745729013.9471674,0.09779450297355652,0.02122122421860695,0.022078510373830795,0.467345654964447,-0.7730345726013184,-8.609858512878418
1745729013.9472103,0.03936566784977913,-0.00410046661272645,0.029862377792596817,0.4010024964809418,-0.7616012692451477,-8.155330657958984
1745729013.9472632,0.0316198393702507,0.014842113479971886,0.039330948144197464,0.5840848088264465,-0.5132842063903809,-10.787491798400879
1745729013.9473028,0.03340020030736923,0.030190834775567055,0.03892076015472412,0.68416827917099,0.24621042609214783,-11.162443161010742
1745729013.9473422,0.07958018779754639,0.032813090831041336,0.03126997873187065,0.5539060831069946,0.9494022130966187,-8.974578857421875
1745729013.947381,0.12968914210796356,-0.0025146398693323135,-0.0475001260638237,-0.23691275715827942,-0.025661414489150047,-8.884414672851562
1745729013.9474244,0.13049152493476868,-0.023566236719489098,-0.05135376378893852,0.1329435408115387,-0.3138276934623718,-8.947646141052246
1745729013.9474638,0.0820193737745285,-0.014831374399363995,-0.05180972069501877,-0.06067371368408203,-0.5536949038505554,-10.621106147766113
1745729013.9474988,0.0827752873301506,0.0045403288677334785,-0.044900666922330856,0.2238016128540039,-0.7567281723022461,-10.395919799804688
1745729013.9794538,0.06749506294727325,-0.0038494491018354893,-0.03656537085771561,0.29184192419052124,-0.2940075993537903,-8.777974128723145
1745729013.9795678,0.05270443484187126,-0.024183539673686028,-0.02888202667236328,0.5509477853775024,-0.4249591827392578,-9.261139869689941
1745729013.9801471,0.07032322883605957,-0.022225618362426758,-0.027911657467484474,0.19551913440227509,0.2587120831012726,-10.817030906677246
1745729013.9820724,0.08335347473621368,-0.006452021189033985,-0.03242451697587967,-0.0219271220266819,-0.04420531541109085,-10.506467819213867
1745729014.022216,0.10718905925750732,-0.014811409637331963,-0.03430379554629326,-0.15011146664619446,0.3917866349220276,-8.640774726867676
1745729014.0238338,0.09425213187932968,-0.029644891619682312,-0.03357803821563721,-0.16406765580177307,0.04506315663456917,-9.05819320678711
1745729014.0263457,0.11314475536346436,-0.029624393209815025,-0.03349781036376953,0.06482063233852386,0.06936192512512207,-10.66877555847168
1745729014.0297112,0.12288377434015274,-0.013805578462779522,-0.039952874183654785,0.022678622975945473,0.06744910776615143,-10.40138053894043
1745729014.0320587,0.0980273187160492,-0.027919963002204895,-0.042836062610149384,0.2722005844116211,-0.5069860816001892,-9.083318710327148
1745729014.1992948,0.10117705166339874,-0.0467328205704689,-0.04619421064853668,0.16756170988082886,-0.05556650832295418,-9.189513206481934
1745729014.1994405,0.06488101184368134,-0.036954790353775024,-0.04691838100552559,0.0031021356116980314,-0.8185823559761047,-10.671875
1745729014.1995697,0.0741586685180664,-0.01927212066948414,-0.036240026354789734,0.0802883729338646,-0.7492883205413818,-10.195650100708008
1745729014.199659,0.061073921620845795,-0.03858918324112892,-0.028205478563904762,0.4089605212211609,-0.5724013447761536,-8.66159439086914
1745729014.199795,0.0231305118650198,-0.04064492881298065,-0.030263951048254967,-0.5275978446006775,-0.4586067199707031,-9.887739181518555
1745729014.1999385,0.013495193794369698,-0.020777950063347816,-0.0327163003385067,-0.17749327421188354,-0.3306841254234314,-9.818097114562988
1745729014.2000341,0.04452333226799965,-0.0343916229903698,-0.026673877611756325,0.8203374147415161,-0.18337921798229218,-9.502775192260742
1745729014.2000887,0.007171461824327707,-0.03191790357232094,-0.03281228989362717,0.1667601317167282,0.36745405197143555,-10.356668472290039
1745729014.2001393,0.11551012843847275,-0.03799356892704964,-0.010750925168395042,0.3668057322502136,-0.05618191882967949,-10.853264808654785
1745729014.2001977,0.1078299731016159,-0.02430547960102558,-0.009071812964975834,0.06374084949493408,-0.15829385817050934,-10.413651466369629
1745729014.2002456,0.109906867146492,-0.02358882501721382,-0.004767313599586487,-0.013070662505924702,-0.6571428179740906,-8.746817588806152
1745729014.2002895,0.09017722308635712,-0.04081494361162186,0.005251125432550907,0.5508130192756653,-0.4494612216949463,-8.924997329711914
1745729014.2003279,0.06368409097194672,-0.028999412432312965,0.00606486015021801,0.30941733717918396,-0.7585107684135437,-11.031290054321289
1745729014.200366,0.04270908981561661,-0.024839218705892563,0.005610370542854071,0.30252742767333984,-0.7352809906005859,-10.56148624420166
1745729014.2004044,0.020618081092834473,-0.021816236898303032,0.008468315936625004,0.16277894377708435,-0.7008103132247925,-8.69776725769043
1745729014.2004435,-0.02793371118605137,-0.03937266394495964,0.011830667033791542,0.20700009167194366,-0.6002622246742249,-9.115331649780273
1745729014.2025042,-0.03127790242433548,-0.03339537978172302,0.013419941067695618,0.1555633544921875,-0.5265945196151733,-10.693696022033691
1745729014.237146,-0.033925145864486694,-0.0031336683314293623,0.01970306597650051,0.25779446959495544,-0.3426099419593811,-10.279809951782227
1745729014.2384558,-0.04151426628232002,-0.02131916955113411,0.026936020702123642,0.416520893573761,-0.02061712183058262,-8.831466674804688
1745729014.2385097,-0.021099628880620003,-0.024230241775512695,0.034525029361248016,0.43870243430137634,-0.20626962184906006,-9.463693618774414
1745729014.240114,-0.01332803349941969,-0.014237292110919952,0.04201691597700119,0.7226842045783997,0.08434920012950897,-10.566256523132324
1745729014.2828217,-0.0046840570867061615,0.00384123926050961,0.05236443132162094,0.6491959691047668,-0.18312141299247742,-10.27409839630127
1745729014.2831097,0.007146239280700684,-0.022154435515403748,0.06044981628656387,0.8124052882194519,0.06321431696414948,-9.18725299835205
1745729014.283655,-0.06430883705615997,-0.006031418684870005,0.1559436321258545,-1.0263395309448242,-0.3898064196109772,-9.148645401000977
1745729014.2857733,-0.002365963766351342,0.026366999372839928,0.15692484378814697,-0.9161928296089172,-0.22187991440296173,-9.698953628540039
1745729014.288291,-0.06568439304828644,0.02780955471098423,0.16665224730968475,-0.2896154820919037,-0.7264299392700195,-9.474596977233887
1745729014.4520552,-0.04336053133010864,-0.0022048030514270067,0.17511101067066193,0.32918769121170044,-0.9541006088256836,-9.84094524383545
1745729014.4521155,-0.09433845430612564,-0.0003839019627775997,0.18603047728538513,0.4949920177459717,-1.77694571018219,-10.330068588256836
1745729014.4521875,-0.14037878811359406,0.0029277384746819735,0.19453780353069305,-0.20626619458198547,-0.731215238571167,-10.325780868530273
1745729014.4522667,-0.20219364762306213,-0.007923886179924011,0.19399814307689667,-0.14840322732925415,-1.0377368927001953,-9.093639373779297
1745729014.4523344,-0.22692683339118958,-0.009275512769818306,0.1820426881313324,0.06959225237369537,-0.12353551387786865,-8.955643653869629
1745729014.4524462,-0.26186853647232056,-0.026330094784498215,0.16714420914649963,-0.03575526922941208,0.6370900869369507,-10.44082260131836
1745729014.4525537,-0.22157058119773865,-0.027830863371491432,0.15997786819934845,0.08826378732919693,0.510201632976532,-10.620889663696289
1745729014.4526503,-0.1901559680700302,-0.026335161179304123,0.16196759045124054,-0.6466912627220154,0.8441912531852722,-9.232656478881836
1745729014.4527626,-0.18288709223270416,-0.047043900936841965,0.17314469814300537,-0.2662432789802551,-0.054703474044799805,-9.245580673217773
1745729014.452827,-0.09448730945587158,-0.05356193706393242,0.19042618572711945,-0.4204344153404236,0.7072657346725464,-10.246706008911133
1745729014.452867,-0.08012556284666061,-0.03509386256337166,0.2018757313489914,-0.6571289300918579,0.4308475852012634,-10.43421459197998
1745729014.4529068,-0.02356075681746006,-0.04618316888809204,0.20885328948497772,-0.34984755516052246,0.9285379648208618,-8.996840476989746
1745729014.452944,0.002245475072413683,-0.07027007639408112,0.19872547686100006,-0.06446381658315659,0.6106947660446167,-9.127140998840332
1745729014.452974,-0.015930060297250748,-0.06894071400165558,0.18934819102287292,-0.05120338127017021,0.02417639270424843,-10.58961009979248
1745729014.4624667,-0.0383479967713356,-0.06292133778333664,0.1848229467868805,-0.3321051001548767,-0.6430388689041138,-10.601642608642578
1745729014.462575,-0.09301861375570297,-0.06061692163348198,0.19315066933631897,-0.11279571056365967,-1.3237489461898804,-8.888262748718262
1745729014.4626982,-0.16566571593284607,-0.07309282571077347,0.2028215229511261,-0.23596391081809998,-0.8732698559761047,-8.786601066589355
1745729014.4931545,-0.2056988775730133,-0.07389674335718155,0.20582342147827148,0.14318718016147614,-1.0437391996383667,-10.41468334197998
1745729014.4959826,-0.21141695976257324,-0.06668628752231598,0.20630137622356415,-0.10066618770360947,0.3464575409889221,-10.446080207824707
