timestamp,angular_vel_x,angular_vel_y,angular_vel_z,linear_acc_x,linear_acc_y,linear_acc_z
1745667688.2074966,0.12461714446544647,0.06776361912488937,-0.09687691926956177,0.26004311442375183,0.09262396395206451,-10.75833511352539
1745667688.207547,0.06651981174945831,0.09641363471746445,-0.12036149203777313,0.8166435956954956,-1.204087495803833,-10.098772048950195
1745667688.207595,0.08657082915306091,0.0898677408695221,-0.12281078100204468,0.927108645439148,-0.6524040102958679,-8.05244255065918
1745667688.207661,0.011784103699028492,0.07462632656097412,-0.12784501910209656,0.7156623601913452,-0.8652287721633911,-9.309179306030273
1745667688.2077067,0.07067205011844635,0.09678176790475845,-0.13399824500083923,0.2880648374557495,-0.1631588637828827,-10.771749496459961
1745667688.2191577,0.06420017778873444,0.1218494176864624,-0.13996553421020508,0.5043941736221313,-0.10519556701183319,-9.626133918762207
1745667688.2192128,0.0882219672203064,0.10094128549098969,-0.14393427968025208,0.6437349915504456,-0.3291532099246979,-8.67803955078125
1745667688.2192485,0.10541599988937378,0.08424513041973114,-0.14440591633319855,0.7728355526924133,-0.32807081937789917,-9.880961418151855
1745667688.2193031,0.11322169005870819,0.10997869819402695,-0.14848898351192474,0.6459736824035645,-0.5693131685256958,-10.951272964477539
1745667688.2193394,0.14043660461902618,0.1291155070066452,-0.1507076919078827,0.6671201586723328,-0.5423945188522339,-9.117228507995605
1745667688.2193747,0.09002336114645004,0.11269400268793106,-0.1522141993045807,1.0718234777450562,-1.0077098608016968,-8.07483196258545
1745667688.2206726,0.08287420123815536,0.10668356716632843,-0.15681679546833038,1.06195867061615,-0.6712418794631958,-10.058621406555176
1745667688.2494512,0.06714541465044022,0.10878326743841171,-0.16208937764167786,0.8500850796699524,-0.8457615971565247,-11.638856887817383
1745667688.2534978,0.08463462442159653,0.12722976505756378,-0.1692200005054474,0.6769329309463501,-0.30564236640930176,-9.629496574401855
1745667688.256226,0.013673782348632812,0.019193166866898537,-0.2615048289299011,1.1889225244522095,-0.8768619298934937,-9.578008651733398
1745667688.2917306,-0.010824868455529213,0.023073909804224968,-0.26668983697891235,0.9842707514762878,-0.704687237739563,-10.03633975982666
1745667688.2962203,-0.004546938929706812,0.024291740730404854,-0.26723212003707886,1.1176555156707764,-0.8383691906929016,-9.938651084899902
1745667688.2995725,-0.019198697060346603,0.012858441099524498,-0.27101606130599976,0.9880460500717163,-0.5210329294204712,-9.352227210998535
1745667688.3033051,-0.00804922729730606,0.006122843362390995,-0.27491214871406555,1.1580640077590942,-0.6916831731796265,-9.667375564575195
1745667688.308097,-0.02193811722099781,-0.005771190859377384,-0.27823594212532043,0.9009243249893188,-0.5136147141456604,-10.311098098754883
1745667688.3372939,0.003232006449252367,0.004194095730781555,-0.28084859251976013,0.8927332162857056,-0.7735785841941833,-9.972700119018555
1745667688.339037,-0.005243528634309769,-0.007434578146785498,-0.2794850468635559,1.0791317224502563,-0.5688090324401855,-9.068063735961914
1745667688.3430796,-0.003720327513292432,-0.022524438798427582,-0.2815212607383728,0.8830474019050598,-0.8390668034553528,-9.72515869140625
1745667688.3436275,0.00621794443577528,-0.016178324818611145,-0.2796095013618469,1.2349246740341187,-0.6746566295623779,-10.20598316192627
1745667688.3789968,-0.014909064397215843,-0.01602594181895256,-0.28401654958724976,0.912615180015564,-0.7638306617736816,-10.099519729614258
1745667688.382613,0.011391890235245228,-0.029088690876960754,-0.2879408001899719,1.0413955450057983,-0.6972948312759399,-9.269186019897461
1745667688.3855824,-0.031943127512931824,-0.040897831320762634,-0.2909649908542633,1.0171177387237549,-0.7730865478515625,-9.516741752624512
1745667688.3866742,-0.013452963903546333,-0.030743006616830826,-0.29296407103538513,0.9684152603149414,-0.7838446497917175,-10.23568344116211
1745667688.3879766,-0.044189609587192535,-0.03880363702774048,-0.2972646951675415,1.057861089706421,-0.8779920339584351,-9.877296447753906
1745667688.4226172,-0.02962225116789341,-0.03807990625500679,-0.29622092843055725,0.9263378381729126,-0.6468650698661804,-9.266229629516602
1745667688.4239564,-0.05289757251739502,-0.04764648526906967,-0.298665851354599,1.0623712539672852,-0.7306349873542786,-9.642498970031738
1745667688.426311,-0.033756595104932785,-0.05595780536532402,-0.3014269173145294,0.8837286829948425,-0.7866109609603882,-10.319709777832031
1745667688.4274812,-0.02828153967857361,-0.04384986311197281,-0.29825717210769653,1.0121196508407593,-0.4209917187690735,-9.792970657348633
1745667688.4641976,-0.03500014543533325,-0.06221761181950569,-0.304048627614975,0.883602499961853,-0.7783312797546387,-9.4399995803833
1745667688.4693837,-0.004250021651387215,-0.0569145493209362,-0.3022327423095703,0.8998445272445679,-0.3605566620826721,-9.499235153198242
1745667688.4721456,-0.03508513420820236,-0.06345798075199127,-0.30417513847351074,1.0001503229141235,-0.7998659014701843,-10.134634971618652
1745667688.4743552,-0.03905153274536133,-0.08052758872509003,-0.31370383501052856,0.8300010561943054,-0.6503640413284302,-9.797235488891602
1745667688.5080302,-0.03960256651043892,-0.09455408900976181,-0.31393808126449585,0.9552606344223022,-0.9182876348495483,-9.70676326751709
1745667688.5116324,-0.03933856636285782,-0.08869387954473495,-0.31861260533332825,0.7551630735397339,-0.3956012725830078,-9.750238418579102
1745667688.5141401,-0.03562180697917938,-0.09377492964267731,-0.31747549772262573,0.9317494630813599,-0.7928613424301147,-9.912949562072754
1745667688.5172353,-0.02391981892287731,-0.09351259469985962,-0.3204382061958313,0.7504526376724243,-0.3210866451263428,-9.64951229095459
1745667688.550258,-0.028537964448332787,-0.0896727666258812,-0.3246084153652191,0.910159707069397,-0.6883687376976013,-9.690909385681152
1745667688.5527623,-0.016035184264183044,-0.10113593190908432,-0.32297390699386597,0.8094462156295776,-0.6138717532157898,-9.814779281616211
1745667688.5556846,-0.02177615463733673,-0.0926467552781105,-0.3266266882419586,0.8689358830451965,-0.625176727771759,-9.79022216796875
1745667688.5567496,-0.023962879553437233,-0.09869702905416489,-0.32491645216941833,0.9680041074752808,-0.8055145144462585,-9.84453010559082
1745667688.5598226,-0.030420521274209023,-0.097394660115242,-0.3291361927986145,0.7774578332901001,-0.6083716154098511,-9.725135803222656
1745667688.5931911,-0.026031289249658585,-0.09892754256725311,-0.32682186365127563,1.0575841665267944,-0.7397427558898926,-9.63341999053955
1745667688.5974174,-0.04188098758459091,-0.10681263357400894,-0.32956546545028687,0.7141441106796265,-0.5911332368850708,-9.974967956542969
1745667688.6048589,-0.02411198429763317,-0.10184624046087265,-0.3299837112426758,0.8468197584152222,-0.7738305330276489,-10.002126693725586
1745667688.6049724,-0.03762467950582504,-0.10526441037654877,-0.3325352966785431,0.7593649625778198,-0.4311831593513489,-9.635183334350586
1745667688.6357338,0.013236826285719872,-0.07011331617832184,-0.3619382977485657,0.5772275328636169,-0.6744829416275024,-9.900131225585938
1745667688.6390448,0.0143172862008214,-0.060605742037296295,-0.36097508668899536,0.7860442399978638,-0.8218801617622375,-10.061752319335938
1745667688.6409488,-0.00932074710726738,-0.061085186898708344,-0.36174947023391724,0.4435873031616211,-0.4498860239982605,-9.805295944213867
1745667688.6433988,0.015681851655244827,-0.05869609862565994,-0.3618791401386261,0.6419533491134644,-0.7345319986343384,-9.388616561889648
1745667688.68028,0.010505707934498787,-0.05337401106953621,-0.3625355660915375,0.5544010996818542,-0.24170634150505066,-9.552559852600098
1745667688.681358,0.007096449378877878,-0.051825590431690216,-0.3677314221858978,0.44445523619651794,-0.49073752760887146,-10.179306030273438
1745667688.6828797,0.04300440847873688,-0.05283822864294052,-0.3694117069244385,0.6690399646759033,-0.5639620423316956,-9.807479858398438
1745667688.6842985,0.03447287529706955,-0.041747964918613434,-0.3710640072822571,0.3529166281223297,-0.36133602261543274,-9.620229721069336
1745667688.6864483,0.036605414003133774,-0.047606199979782104,-0.36750125885009766,0.665871262550354,-0.8988369107246399,-9.702619552612305
1745667688.730112,0.03655470162630081,-0.05119244381785393,-0.3698425889015198,0.6163989305496216,-0.5788364410400391,-9.707112312316895
1745667688.730267,0.02780446968972683,-0.027653977274894714,-0.3663824498653412,0.6745601892471313,-0.7015730738639832,-9.82458782196045
1745667688.7303205,0.01061802264302969,-0.04666895419359207,-0.3688982427120209,0.5449060201644897,-0.7648054361343384,-9.825666427612305
1745667688.730359,0.033176593482494354,-0.03588802367448807,-0.37142840027809143,0.6068499684333801,-0.5812268257141113,-9.658318519592285
1745667688.7663336,0.0009329289314337075,-0.036512069404125214,-0.37357205152511597,0.6029030084609985,-0.5595752596855164,-9.850069999694824
1745667688.7687073,0.017739832401275635,-0.03883304446935654,-0.37586116790771484,0.36196911334991455,-0.7028499245643616,-9.880086898803711
1745667688.7713158,0.03126823902130127,-0.024159550666809082,-0.37477123737335205,0.6238654851913452,-0.44354256987571716,-9.404385566711426
1745667688.7720988,-0.00296723167411983,-0.024153394624590874,-0.3743056356906891,0.4218785762786865,-0.5839769244194031,-9.66270923614502
1745667688.807442,0.05003709718585014,-0.022681623697280884,-0.3749047517776489,0.6089555621147156,-0.5919659733772278,-9.832822799682617
1745667688.810028,0.030475353822112083,-0.026059851050376892,-0.3732938766479492,0.5742639303207397,-0.4368192255496979,-9.933626174926758
1745667688.8124404,0.052468545734882355,-0.011806480586528778,-0.3744487464427948,0.5047799348831177,-0.55213862657547,-9.838094711303711
1745667688.8146987,0.05063135549426079,-0.022493036463856697,-0.37620145082473755,0.6738578677177429,-0.5618228912353516,-9.467486381530762
1745667688.8514736,0.013346068561077118,-0.006751221604645252,-0.3807953894138336,0.6709727048873901,-0.6482255458831787,-9.743144035339355
1745667688.8563795,0.05112193897366524,-0.0008813207969069481,-0.3798675537109375,0.36355191469192505,-0.6314972043037415,-9.657315254211426
1745667688.8626873,0.04425794631242752,-0.0038540144450962543,-0.378734290599823,0.6534363627433777,-0.5821855068206787,-9.641706466674805
1745667688.864217,0.04009765014052391,-0.0031726143788546324,-0.381184846162796,0.42667466402053833,-0.6454519033432007,-9.99247932434082
1745667688.8652618,0.06048743799328804,0.0028140139766037464,-0.37999042868614197,0.6125560998916626,-0.5517287254333496,-9.713371276855469
1745667688.8950508,0.036055877804756165,-0.0014903884148225188,-0.3832613527774811,0.5970960855484009,-0.6729549169540405,-9.497381210327148
1745667688.897788,0.047508738934993744,0.006642469670623541,-0.3823622167110443,0.56413733959198,-0.5683299899101257,-9.662137985229492
1745667688.89921,0.02300991863012314,-0.0031878065783530474,-0.38331088423728943,0.7247822880744934,-0.9421812891960144,-9.984506607055664
1745667688.901386,0.03701332211494446,0.009189832024276257,-0.3850509524345398,0.5228457450866699,-0.5493012070655823,-9.835847854614258
1745667688.9375465,0.015307205729186535,0.0041433060541749,-0.3845079839229584,0.6413909196853638,-0.8886235356330872,-9.642900466918945
1745667688.9410603,0.03782337158918381,0.001378409331664443,-0.38499560952186584,0.5015617609024048,-0.519464910030365,-9.525420188903809
1745667688.9418359,0.023190032690763474,0.012077739462256432,-0.38273748755455017,0.6693037152290344,-0.4639508128166199,-9.7177734375
1745667688.9444249,0.03519666939973831,0.005183405242860317,-0.3857695162296295,0.5146967172622681,-0.6828159093856812,-9.934198379516602
1745667688.9464545,0.05552322790026665,0.013896973803639412,-0.3840727210044861,0.516584038734436,-0.3451407551765442,-9.678266525268555
1745667688.9885314,0.030353188514709473,-0.0003067450597882271,-0.3860115110874176,0.5625891089439392,-0.7319188714027405,-9.812217712402344
1745667688.9885912,0.025877472013235092,-0.0042638652957975864,-0.3858183026313782,0.8037052154541016,-0.5535394549369812,-9.491971969604492
1745667688.9886827,0.01297046709805727,-0.00404290622100234,-0.3849000036716461,0.5536859631538391,-0.6954856514930725,-9.739081382751465
1745667688.9902263,0.04448511451482773,-0.0008011761819943786,-0.383493572473526,0.674050509929657,-0.6112545728683472,-9.728348731994629
1745667689.0255427,0.022576868534088135,-0.0037613671738654375,-0.38472986221313477,0.5559792518615723,-0.5831222534179688,-9.756900787353516
1745667689.0256438,0.047804396599531174,-0.001193280448205769,-0.38473692536354065,0.587594211101532,-0.7054213285446167,-9.7245512008667
1745667689.0281484,0.032542645931243896,-0.011843753978610039,-0.38390135765075684,0.6792696118354797,-0.6762260794639587,-9.703895568847656
1745667689.0305562,0.04176297038793564,-0.002858385443687439,-0.38128432631492615,0.5564349889755249,-0.6616479754447937,-9.813802719116211
1745667689.0705552,0.023037826642394066,-0.007810600101947784,-0.3849651515483856,0.7910488843917847,-0.826561450958252,-9.655950546264648
1745667689.073714,0.032565269619226456,-0.010078485123813152,-0.3832835555076599,0.5891591310501099,-0.7149471044540405,-9.593716621398926
1745667689.0738242,0.015468346886336803,-0.007192465476691723,-0.3840908706188202,0.7606380581855774,-0.7352107167243958,-9.757156372070312
1745667689.0795147,0.010469895787537098,-0.014921861700713634,-0.38307374715805054,0.6260132789611816,-0.9255290031433105,-9.969301223754883
1745667689.1090903,0.032381147146224976,-0.00856458954513073,-0.3818895220756531,0.6560264229774475,-0.5265113115310669,-9.604606628417969
1745667689.1117682,-0.001962551847100258,-0.017586711794137955,-0.38232696056365967,0.638208270072937,-0.7679063081741333,-9.610090255737305
1745667689.1146936,0.04158348590135574,-0.010582176968455315,-0.383272260427475,0.4810340404510498,-0.5006856918334961,-9.771130561828613
1745667689.1167908,0.01831202208995819,-0.014300954528152943,-0.3795284926891327,0.7294539213180542,-0.7031532526016235,-9.741698265075684
1745667689.1198552,0.029302576556801796,-0.014982456341385841,-0.3813777267932892,0.4779885709285736,-0.6200671792030334,-9.786298751831055
1745667689.1539495,0.0338195338845253,-0.020571332424879074,-0.3803575038909912,0.7500513792037964,-0.7857743501663208,-9.692049026489258
1745667689.1570969,0.021709244698286057,-0.024118697270751,-0.37993162870407104,0.5862919688224792,-0.7867509126663208,-9.826205253601074
1745667689.1583724,0.018215786665678024,-0.015775436535477638,-0.37956541776657104,0.7235970497131348,-0.8058172464370728,-9.775341033935547
1745667689.1607378,0.020481523126363754,-0.027598071843385696,-0.3772364854812622,0.7233471870422363,-0.894684910774231,-9.602334976196289
1745667689.1965334,0.007270003668963909,-0.01615789532661438,-0.3774741590023041,0.5363830327987671,-0.5109015703201294,-9.688812255859375
1745667689.1991374,0.021427437663078308,-0.024260656908154488,-0.3736937642097473,0.5315110087394714,-0.6238796710968018,-9.889727592468262
1745667689.2025125,0.016715001314878464,-0.030079662799835205,-0.3726878762245178,0.7373771667480469,-0.8638386726379395,-9.77089786529541
1745667689.2059772,0.0027054438833147287,-0.0301839467138052,-0.3710494637489319,0.5371817946434021,-0.6092357039451599,-9.675959587097168
1745667689.2090733,0.015289673581719398,-0.03345119580626488,-0.37369585037231445,0.7586965560913086,-0.925643265247345,-9.74461841583252
1745667689.2408545,-0.0012079194420948625,-0.03010737895965576,-0.3714601397514343,0.4870058000087738,-0.47649678587913513,-9.743846893310547
1745667689.241326,-0.004122496582567692,-0.0246717631816864,-0.3737965226173401,0.5883085131645203,-0.8913686871528625,-9.838757514953613
1745667689.2436879,0.01040599960833788,-0.038655202835798264,-0.37304407358169556,0.6096663475036621,-0.644554615020752,-9.639961242675781
1745667689.2469528,-0.0027440779376775026,-0.027554994449019432,-0.3734864592552185,0.4980652332305908,-0.5883449912071228,-9.784831047058105
1745667689.2835886,0.011781267821788788,-0.03630463406443596,-0.3703632354736328,0.6666709184646606,-0.8429034352302551,-9.931108474731445
1745667689.284398,0.011640309356153011,-0.02835112251341343,-0.3675230145454407,0.49631834030151367,-0.5232305526733398,-9.658716201782227
1745667689.2873638,0.010217593982815742,-0.029609978199005127,-0.367220014333725,0.7151541709899902,-0.838776707649231,-9.575651168823242
1745667689.2887552,0.006418394390493631,-0.03981885313987732,-0.365707665681839,0.4834102690219879,-0.7045052647590637,-9.864606857299805
1745667689.291896,0.015209926292300224,-0.02830834686756134,-0.3652949929237366,0.602611243724823,-0.7847195267677307,-10.028109550476074
1745667689.3263924,-0.006986272521317005,-0.035717688500881195,-0.3645920157432556,0.5898499488830566,-0.6901302337646484,-9.72012710571289
1745667689.3294432,0.014689984731376171,-0.025533735752105713,-0.3467715382575989,0.6538336277008057,-0.7627965807914734,-9.624394416809082
1745667689.3320842,0.017723966389894485,-0.01625107228755951,-0.34326204657554626,0.42508482933044434,-0.6188342571258545,-9.885956764221191
1745667689.3711834,0.015353786759078503,-0.016482045873999596,-0.3445499539375305,0.6807445287704468,-0.8844203948974609,-9.792132377624512
1745667689.3736963,0.015260642394423485,-0.02112182043492794,-0.3431365489959717,0.4908425807952881,-0.5403438210487366,-9.618528366088867
1745667689.3762524,0.0038474337197840214,-0.015062620863318443,-0.3454350531101227,0.5167471766471863,-0.8122148513793945,-9.854598999023438
1745667689.3781977,0.017839888110756874,-0.022319242358207703,-0.3444092869758606,0.51407790184021,-0.7439656853675842,-9.846002578735352
1745667689.3801575,0.011316913180053234,-0.011889797635376453,-0.34442782402038574,0.5056074857711792,-0.470343679189682,-9.635046005249023
1745667689.4155095,0.004624716937541962,-0.018627094104886055,-0.34344300627708435,0.6514066457748413,-0.9152992963790894,-9.68665599822998
1745667689.417702,0.021436654031276703,-0.016850678250193596,-0.3422132134437561,0.3900933861732483,-0.433150053024292,-9.773923873901367
1745667689.4206114,0.010742573998868465,-0.01340060867369175,-0.34124550223350525,0.6415693759918213,-0.8089226484298706,-9.89362907409668
1745667689.4247541,0.014844460412859917,-0.01905815489590168,-0.34257060289382935,0.43738991022109985,-0.5880641937255859,-9.820164680480957
1745667689.4546432,0.020555691793560982,-0.017332127317786217,-0.3408223092556,0.617673933506012,-0.6622077226638794,-9.627323150634766
1745667689.4579697,0.009634265676140785,-0.02345716580748558,-0.34101319313049316,0.5789313912391663,-0.7169750332832336,-9.785964012145996
1745667689.4632215,0.011538747698068619,-0.012223112396895885,-0.3414992392063141,0.5180791616439819,-0.7260797023773193,-9.846928596496582
1745667689.4659078,0.019946468994021416,-0.0231301411986351,-0.33900338411331177,0.6508437395095825,-0.8155491948127747,-9.567727088928223
1745667689.4681344,-0.0008492261404171586,-0.014874744229018688,-0.3384910821914673,0.33421310782432556,-0.5318170189857483,-9.779325485229492
1745667689.4993303,0.020548643544316292,-0.015959851443767548,-0.3387795686721802,0.6363444328308105,-0.852586567401886,-9.84965991973877
1745667689.5036187,0.017068440094590187,-0.020478468388319016,-0.339521586894989,0.4275808334350586,-0.3577326834201813,-9.65808391571045
1745667689.507738,0.013363024219870567,-0.011173631064593792,-0.3405377268791199,0.6050021052360535,-0.7492250204086304,-9.6864013671875
1745667689.5121307,0.026299411430954933,-0.022374343127012253,-0.3403610289096832,0.5147554874420166,-0.5906240940093994,-9.744840621948242
1745667689.5434432,0.018752971664071083,-0.00903523713350296,-0.3403926193714142,0.48333054780960083,-0.697502076625824,-9.820844650268555
1745667689.5465455,0.028113793581724167,-0.021482253447175026,-0.33392006158828735,0.596320629119873,-0.6412258148193359,-9.723040580749512
1745667689.5546033,0.007071645464748144,-0.017979228869080544,-0.3365943431854248,0.40625399351119995,-0.6666651368141174,-9.646989822387695
1745667689.5547595,0.03272145614027977,-0.017644338309764862,-0.33423876762390137,0.6875293254852295,-0.7754009962081909,-9.648247718811035
1745667689.586034,0.008402330800890923,-0.020941762253642082,-0.33278176188468933,0.49933886528015137,-0.6299665570259094,-9.775567054748535
1745667689.5885925,0.024659205228090286,-0.014676317572593689,-0.3341720700263977,0.6036844253540039,-0.7658793926239014,-9.821815490722656
1745667689.5913484,0.011355284601449966,-0.026437293738126755,-0.3299606740474701,0.5289579033851624,-0.7495023608207703,-9.71711540222168
1745667689.5929482,0.021225210279226303,-0.01917276717722416,-0.33171677589416504,0.49342912435531616,-0.7398461103439331,-9.772260665893555
1745667689.625419,0.000984987593255937,-0.02484515868127346,-0.3311322331428528,0.5821563601493835,-0.6923180818557739,-9.740181922912598
1745667689.6285942,0.01726456917822361,-0.02091245725750923,-0.3306623697280884,0.3847959041595459,-0.709147572517395,-9.726499557495117
1745667689.633701,0.01909041777253151,-0.017119869589805603,-0.33037906885147095,0.6222811937332153,-0.5751805305480957,-9.466985702514648
1745667689.6356635,-0.0035279118455946445,-0.023664485663175583,-0.3303026258945465,0.4568382799625397,-0.747289776802063,-9.856048583984375
1745667689.6392143,0.03854219615459442,-0.02031853422522545,-0.3296394944190979,0.549361526966095,-0.5876731872558594,-9.8790283203125
1745667689.6716437,0.004116840660572052,-0.02390611357986927,-0.3295285105705261,0.49209752678871155,-0.6771981716156006,-9.751202583312988
1745667689.6730647,0.034976471215486526,-0.01495641004294157,-0.32881391048431396,0.4783605635166168,-0.7190877795219421,-9.598291397094727
1745667689.6770794,0.01985469087958336,-0.027864065021276474,-0.32577067613601685,0.6319488286972046,-0.6706302165985107,-9.559252738952637
1745667689.6808345,0.02959560789167881,-0.024668406695127487,-0.3163171410560608,0.5364812016487122,-0.785423755645752,-9.856412887573242
1745667689.7149918,0.019352426752448082,-0.014859454706311226,-0.3173995316028595,0.3760736882686615,-0.34762853384017944,-9.529726028442383
1745667689.7164745,0.020975548774003983,-0.021487142890691757,-0.31513047218322754,0.6376981735229492,-0.8656015396118164,-9.65939712524414
1745667689.7204905,0.033203210681676865,-0.02291903644800186,-0.31793367862701416,0.39272966980934143,-0.422885000705719,-9.891080856323242
1745667689.7241082,0.02585538849234581,-0.011468651704490185,-0.31799742579460144,0.5374364852905273,-0.7536715269088745,-9.936376571655273
1745667689.726175,0.027206644415855408,-0.024227200075984,-0.31385141611099243,0.48740071058273315,-0.7770934104919434,-9.65463924407959
1745667689.755222,0.030180681496858597,-0.020196998491883278,-0.31628066301345825,0.4877495765686035,-0.6683128476142883,-9.626691818237305
1745667689.7570052,0.017620619386434555,-0.025378797203302383,-0.3133513331413269,0.5754871368408203,-0.8818572759628296,-9.946943283081055
1745667689.7591448,0.015047403983771801,-0.01480303704738617,-0.3152189254760742,0.36244073510169983,-0.663122296333313,-9.87421703338623
1745667689.7613528,0.03134622424840927,-0.01900205947458744,-0.3139864504337311,0.6186703443527222,-0.7403379678726196,-9.378314971923828
1745667689.799122,0.0012427791953086853,-0.021286748349666595,-0.31456318497657776,0.3792709410190582,-0.5157155394554138,-9.711273193359375
1745667689.8022134,0.02571430802345276,-0.018422255292534828,-0.3156810402870178,0.5479844212532043,-0.8395879864692688,-10.142664909362793
1745667689.8033652,0.02322998270392418,-0.022037029266357422,-0.3142823576927185,0.45461636781692505,-0.5313900709152222,-9.814501762390137
1745667689.8072863,0.016863279044628143,-0.011731142178177834,-0.3169509470462799,0.42218685150146484,-0.7079869508743286,-9.527770042419434
1745667689.8081484,0.028740698471665382,-0.022357288748025894,-0.3136415183544159,0.6042550802230835,-0.7583585381507874,-9.533655166625977
1745667689.8465645,0.01540710311383009,-0.016858449205756187,-0.31488364934921265,0.45268234610557556,-0.603236198425293,-10.005459785461426
1745667689.8467112,0.02554006315767765,-0.016515694558620453,-0.3135691285133362,0.626439094543457,-0.8058023452758789,-9.981414794921875
1745667689.848179,0.02043590508401394,-0.02029760554432869,-0.31247678399086,0.3863084614276886,-0.620908260345459,-9.63087272644043
1745667689.8515165,0.028217792510986328,-0.018695782870054245,-0.3101437985897064,0.5397579073905945,-0.6893826723098755,-9.646825790405273
1745667689.884941,0.00891986582428217,-0.02436741441488266,-0.3133067190647125,0.47271567583084106,-0.6656433343887329,-9.888178825378418
1745667689.889246,0.041166335344314575,-0.01101038046181202,-0.31304433941841125,0.4325411319732666,-0.6520081758499146,-9.790681838989258
1745667689.891608,0.03250787779688835,-0.013190997764468193,-0.3115523159503937,0.34194716811180115,-0.6798357963562012,-9.764896392822266
1745667689.8951573,0.016579577699303627,-0.017295802012085915,-0.30910250544548035,0.5778506398200989,-0.7043330073356628,-9.579365730285645
1745667689.9284177,0.02196984738111496,-0.02024916373193264,-0.31389811635017395,0.36673662066459656,-0.7669252157211304,-9.822555541992188
1745667689.930806,0.03395570069551468,-0.01079573668539524,-0.31132808327674866,0.5462180972099304,-0.5298076868057251,-9.742494583129883
1745667689.9397368,0.005482946056872606,-0.018337886780500412,-0.3138766288757324,0.5351226925849915,-0.8140730857849121,-9.779396057128906
1745667689.9398818,0.04699214920401573,-0.013013452291488647,-0.3117542564868927,0.44992533326148987,-0.5929394960403442,-9.720067024230957
1745667689.9693134,0.014783238992094994,-0.022460665553808212,-0.310366690158844,0.6227842569351196,-0.8080295324325562,-9.8187894821167
1745667689.9714732,0.03426801413297653,-0.014804912731051445,-0.3096448481082916,0.3605113923549652,-0.690661609172821,-9.924819946289062
1745667689.973858,0.02929816022515297,-0.016978224739432335,-0.3073904514312744,0.6083533763885498,-0.7437898516654968,-9.548990249633789
1745667689.9771097,0.02628788910806179,-0.017802277579903603,-0.3074782192707062,0.44876399636268616,-0.6069138646125793,-9.608381271362305
1745667689.9822435,0.02910204790532589,-0.015616729855537415,-0.3098832666873932,0.5444449186325073,-0.7031190991401672,-9.866933822631836
1745667690.01456,0.0239205714315176,-0.020253751426935196,-0.30979031324386597,0.4789787232875824,-0.7686130404472351,-9.971153259277344
1745667690.0169137,0.028489429503679276,-0.011227461509406567,-0.31032854318618774,0.4097069203853607,-0.5127402544021606,-9.637266159057617
1745667690.0188403,0.012657282873988152,-0.024174651131033897,-0.3123074173927307,0.5305517911911011,-1.0087999105453491,-9.666572570800781
1745667690.0216768,0.03855894133448601,-0.014100765809416771,-0.30907806754112244,0.42890334129333496,-0.5346339344978333,-9.65677547454834
1745667690.0562563,0.01738683506846428,-0.021137747913599014,-0.3032400906085968,0.40792304277420044,-0.723486065864563,-9.74588680267334
1745667690.0603695,0.013284017331898212,-0.02542884089052677,-0.29826661944389343,0.6191035509109497,-0.9239335060119629,-9.788985252380371
1745667690.060976,0.0002210681268479675,-0.020459048449993134,-0.3006376028060913,0.38896626234054565,-0.6710939407348633,-9.815168380737305
1745667690.0640588,0.023825379088521004,-0.02164382115006447,-0.30000945925712585,0.5793235898017883,-0.7468971014022827,-9.628039360046387
1745667690.0669744,-0.002590946154668927,-0.022183038294315338,-0.30147260427474976,0.38595110177993774,-0.5208386182785034,-9.655573844909668
1745667690.1050835,0.012755868956446648,-0.01695011742413044,-0.30282291769981384,0.4555722177028656,-0.8651010394096375,-9.890542030334473
1745667690.1051295,0.014973312616348267,-0.026105502620339394,-0.3015342354774475,0.47400912642478943,-0.6277170181274414,-9.749664306640625
1745667690.1064682,0.0038476604968309402,-0.016870927065610886,-0.3018399477005005,0.36669984459877014,-0.7395538091659546,-9.69620418548584
1745667690.1081786,0.01789870671927929,-0.021539347246289253,-0.29982465505599976,0.6028345227241516,-0.8788756132125854,-9.690725326538086
1745667690.1422262,0.0019647739827632904,-0.021483656018972397,-0.2977195084095001,0.430123507976532,-0.6483410596847534,-9.746524810791016
1745667690.1445105,0.01000053621828556,-0.016384845599532127,-0.2981468737125397,0.5723376274108887,-0.8760703802108765,-9.789642333984375
1745667690.1472127,-0.0025086223613470793,-0.023592712357640266,-0.2948087751865387,0.38188692927360535,-0.6800719499588013,-9.788348197937012
1745667690.148425,0.012721183709800243,-0.01720525696873665,-0.29733806848526,0.48017001152038574,-0.7710865139961243,-9.771946907043457
1745667690.1512187,-0.008813281543552876,-0.02715858817100525,-0.2960079312324524,0.4727342128753662,-0.6818803548812866,-9.743148803710938
1745667690.1876705,0.008796213194727898,-0.019382860511541367,-0.2962188720703125,0.3746982216835022,-0.7592192888259888,-9.778144836425781
1745667690.1897583,0.008426772430539131,-0.019849082455039024,-0.2979762554168701,0.5691190958023071,-0.5990310311317444,-9.581989288330078
1745667690.1915097,-0.008039544336497784,-0.016165468841791153,-0.29603248834609985,0.3840967118740082,-0.7580488324165344,-9.820847511291504
1745667690.1946924,0.023328911513090134,-0.022351566702127457,-0.2938367426395416,0.5885130167007446,-0.6934041976928711,-9.781364440917969
1745667690.2291713,-0.0040676770731806755,-0.02270684950053692,-0.293357789516449,0.4067481458187103,-0.6529582738876343,-9.884242057800293
1745667690.2316167,0.021133556962013245,-0.01584862545132637,-0.29454368352890015,0.49662351608276367,-0.8138126134872437,-9.787611961364746
1745667690.2328913,0.0034782469738274813,-0.02625303901731968,-0.29265084862709045,0.5008756518363953,-0.7168804407119751,-9.535722732543945
1745667690.2348096,-0.0018219277262687683,-0.02114810235798359,-0.28864586353302,0.5357240438461304,-0.5799963474273682,-9.820518493652344
1745667690.2737522,0.006411135196685791,-0.01384582556784153,-0.29037442803382874,0.29274454712867737,-0.6126904487609863,-9.941243171691895
1745667690.2760398,0.01768426224589348,-0.01542725134640932,-0.2891397774219513,0.5316721200942993,-0.6808080077171326,-9.612442016601562
1745667690.2804868,0.005754946731030941,-0.018470633774995804,-0.2888953387737274,0.3822684586048126,-0.6593958139419556,-9.592144966125488
1745667690.2827225,0.012834151275455952,-0.013310665264725685,-0.2909701466560364,0.5201624631881714,-0.7268084287643433,-9.76345157623291
1745667690.315488,-0.0028765369206666946,-0.017003178596496582,-0.2894575595855713,0.44487443566322327,-0.8821841478347778,-9.926553726196289
1745667690.3170474,0.013202938251197338,-0.010124229826033115,-0.2867647111415863,0.428676038980484,-0.5622526407241821,-9.687138557434082
1745667690.3199403,-0.01637803018093109,-0.019680581986904144,-0.2878870964050293,0.5093075037002563,-0.9595893621444702,-9.74481201171875
1745667690.322788,0.01621870882809162,-0.014799604192376137,-0.287066787481308,0.3198222219944,-0.6011581420898438,-9.842982292175293
1745667690.3240676,-0.0048822988756000996,-0.013327350839972496,-0.2889586389064789,0.5877380967140198,-0.6565079689025879,-9.684480667114258
1745667690.357981,0.005411376245319843,-0.013651122339069843,-0.2879704535007477,0.3498615324497223,-0.7311708331108093,-9.651829719543457
1745667690.3602643,0.013968599028885365,-0.008953381329774857,-0.2864789664745331,0.4693189561367035,-0.5590161085128784,-9.637646675109863
1745667690.3620977,-0.0013410806423053145,-0.01531981211155653,-0.287775456905365,0.40349167585372925,-0.781375527381897,-9.926170349121094
1745667690.364591,0.01632493920624256,-0.008514823392033577,-0.2862396836280823,0.3509562909603119,-0.6534796953201294,-9.898155212402344
1745667690.399561,0.0032894201576709747,-0.015491065569221973,-0.2867474853992462,0.5190116167068481,-0.8164328336715698,-9.56879997253418
1745667690.4042544,-0.024528145790100098,-0.0182504840195179,-0.28800979256629944,0.41457027196884155,-0.6115311980247498,-9.781288146972656
1745667690.4075618,-0.037128202617168427,-0.01019228808581829,-0.2870880663394928,0.3466219902038574,-0.5932632684707642,-9.553272247314453
1745667690.409511,-0.024319689720869064,-0.01625708118081093,-0.2861166000366211,0.5598392486572266,-0.7728186249732971,-9.709196090698242
1745667690.4110265,-0.027352776378393173,-0.016177836805582047,-0.2878943979740143,0.3780416250228882,-0.4994269013404846,-9.913928031921387
1745667690.4449563,-0.02011505886912346,-0.010813514702022076,-0.28474894165992737,0.6032217741012573,-0.8171289563179016,-9.78593635559082
1745667690.4483588,-0.035509269684553146,-0.016574153676629066,-0.2842023968696594,0.35360509157180786,-0.6134046316146851,-9.629623413085938
1745667690.45224,-0.02163585089147091,-0.01554754376411438,-0.28278613090515137,0.5028674602508545,-0.8638288378715515,-9.731890678405762
1745667690.458334,-0.0443626344203949,-0.019898800179362297,-0.2831658720970154,0.4654761850833893,-0.5943813323974609,-9.880568504333496
1745667690.4857523,-0.03859422728419304,-0.011463159695267677,-0.2858934700489044,0.3025429844856262,-0.7251789569854736,-9.91188907623291
1745667690.4884853,-0.02384786307811737,-0.015966972336173058,-0.2853013873100281,0.5238577127456665,-0.5305229425430298,-9.374048233032227
1745667690.4897237,-0.05180191248655319,-0.01380825787782669,-0.28797388076782227,0.3772210478782654,-0.53919917345047,-9.624624252319336
1745667690.4920635,-0.020670581609010696,-0.015438875183463097,-0.28528767824172974,0.5455058813095093,-0.7664593458175659,-9.995904922485352
1745667690.4940062,-0.03344732150435448,-0.016307072713971138,-0.28433266282081604,0.34521403908729553,-0.43121424317359924,-9.997274398803711
1745667690.5302048,-0.02299300953745842,-0.008553849533200264,-0.28499001264572144,0.46013909578323364,-0.7692275047302246,-9.654438972473145
1745667690.5329063,-0.0244029238820076,-0.024319002404808998,-0.28045159578323364,0.46327757835388184,-0.6131013035774231,-9.47322940826416
1745667690.5350833,-0.01645607501268387,-0.013333452865481377,-0.2809855043888092,0.47072094678878784,-0.6237620115280151,-9.869752883911133
1745667690.5370753,-0.02326589822769165,-0.016622409224510193,-0.28127720952033997,0.5550286173820496,-0.6105762720108032,-9.981058120727539
1745667690.5744412,-0.02012486569583416,-0.01413075439631939,-0.2819344699382782,0.32900574803352356,-0.6314679384231567,-9.74351692199707
1745667690.577348,-0.011546118184924126,-0.017529789358377457,-0.28321418166160583,0.5920377373695374,-0.5402451157569885,-9.439443588256836
1745667690.5799065,-0.044884175062179565,-0.022061709314584732,-0.28174257278442383,0.27339670062065125,-0.690407931804657,-9.95976734161377
1745667690.5815532,-0.00030401014373637736,-0.014230978675186634,-0.2841032147407532,0.4864233136177063,-0.627679169178009,-9.963113784790039
1745667690.6180208,0.010546784847974777,-0.012206828221678734,-0.2829887866973877,0.4161701798439026,-0.5044530630111694,-9.62878131866455
1745667690.6200547,-0.02940293774008751,-0.019805574789643288,-0.2836870849132538,0.52049720287323,-0.7190671563148499,-9.508492469787598
1745667690.6211617,-0.004546745680272579,-0.022208135575056076,-0.2831489145755768,0.4043458104133606,-0.6627995371818542,-9.946595191955566
1745667690.622664,-0.006884412374347448,-0.021175500005483627,-0.28172188997268677,0.5355439186096191,-0.5353289842605591,-9.975288391113281
1745667690.6591532,-0.020076651126146317,-0.01322406716644764,-0.2821381688117981,0.2964436709880829,-0.6244490742683411,-9.731681823730469
1745667690.6605036,0.009531739167869091,-0.016188325360417366,-0.28154483437538147,0.48950204253196716,-0.483865886926651,-9.354186058044434
1745667690.662723,-0.015733912587165833,-0.027491819113492966,-0.28085437417030334,0.4312904477119446,-0.5653420686721802,-9.838186264038086
1745667690.6710768,0.00975470058619976,-0.013522264547646046,-0.2815086841583252,0.382925420999527,-0.46846824884414673,-10.196277618408203
1745667690.671136,-0.002654165728017688,-0.023288723081350327,-0.28037112951278687,0.42327290773391724,-0.689205527305603,-9.813674926757812
1745667690.7031453,0.010644238442182541,-0.017144175246357918,-0.2799150347709656,0.3057139813899994,-0.5537105798721313,-9.417306900024414
1745667690.705612,-0.009784718975424767,-0.025943834334611893,-0.27880436182022095,0.5620638132095337,-0.7259601950645447,-9.655305862426758
1745667690.7086494,0.007870948873460293,-0.02110515721142292,-0.28060847520828247,0.3529103100299835,-0.6070785522460938,-10.032197952270508
1745667690.7109792,-0.0025113429874181747,-0.012107759714126587,-0.27981120347976685,0.5251131057739258,-0.5274981260299683,-9.741354942321777
1745667690.7460413,-0.016795922070741653,-0.02404951862990856,-0.281998872756958,0.3721221685409546,-0.7773017287254333,-9.682714462280273
1745667690.749343,0.014832849614322186,-0.021863244473934174,-0.2806013524532318,0.3674914240837097,-0.387026846408844,-9.738960266113281
1745667690.7529202,0.0447872132062912,-0.013425755314528942,-0.2770003378391266,0.33360403776168823,-0.5385259389877319,-9.641756057739258
1745667690.7566795,0.04739895835518837,-0.005112543702125549,-0.275861918926239,0.42011356353759766,-0.7894245982170105,-9.746618270874023
1745667690.786996,0.04848339036107063,-0.01493604015558958,-0.27695879340171814,0.46188879013061523,-0.613793134689331,-9.770904541015625
1745667690.7922227,0.028589650988578796,-0.006947076413780451,-0.2771618366241455,0.25798845291137695,-0.6970230340957642,-9.928729057312012
1745667690.7982602,0.05158029869198799,-0.014426073059439659,-0.27537786960601807,0.5750367045402527,-0.781064510345459,-9.693581581115723
1745667690.803047,0.033779751509428024,-0.009772435761988163,-0.2776273787021637,0.35600316524505615,-0.3879261612892151,-9.643214225769043
1745667690.8081667,0.0408761128783226,-0.009997587651014328,-0.27367115020751953,0.5841934680938721,-0.8853119611740112,-9.837441444396973
1745667690.8333519,0.04300394654273987,-0.012276089750230312,-0.2761443257331848,0.3600994944572449,-0.4403321146965027,-9.762931823730469
1745667690.8365562,0.04077036306262016,-0.004206846933811903,-0.277193546295166,0.4412616789340973,-0.7450920939445496,-9.7511625289917
1745667690.8393595,0.038822781294584274,-0.016291657462716103,-0.27504342794418335,0.4326415956020355,-0.6541129350662231,-9.70258903503418
1745667690.8433495,0.043818213045597076,-0.010171303525567055,-0.2758283317089081,0.3498440086841583,-0.5907276272773743,-9.853754043579102
1745667690.8760502,0.03781352564692497,-0.014405621215701103,-0.27440011501312256,0.522040843963623,-0.7304414510726929,-9.840787887573242
1745667690.878291,0.028345415368676186,-0.011257009580731392,-0.27724000811576843,0.3080659508705139,-0.5796686410903931,-9.737457275390625
1745667690.8824728,0.05045875906944275,-0.014363432303071022,-0.27556514739990234,0.5449656844139099,-0.7017566561698914,-9.506518363952637
1745667690.885511,0.01570594497025013,-0.014101065695285797,-0.27907058596611023,0.35903069376945496,-0.5084338784217834,-9.803375244140625
1745667690.8893354,0.04124622046947479,-0.007931781001389027,-0.27510911226272583,0.5018520951271057,-0.8727970123291016,-9.99778938293457
1745667690.9311476,0.036671243607997894,-0.021580610424280167,-0.27866965532302856,0.45233970880508423,-0.5113672018051147,-9.702255249023438
1745667690.9312088,0.029669959098100662,-0.011027349159121513,-0.276702880859375,0.35477548837661743,-0.7099310755729675,-9.71392822265625
1745667690.9312544,0.04415331408381462,-0.018586957827210426,-0.27441295981407166,0.5381399393081665,-0.6929758191108704,-9.723302841186523
1745667690.9312944,0.030758071690797806,-0.014911850914359093,-0.27749738097190857,0.3190918564796448,-0.5512141585350037,-9.78307056427002
1745667690.963136,0.04065806418657303,-0.014671343378722668,-0.2746291756629944,0.5336447954177856,-0.7451759576797485,-9.771336555480957
1745667690.9662347,0.03060809336602688,-0.02216269262135029,-0.2796188294887543,0.424917608499527,-0.5381889939308167,-9.63152027130127
1745667690.970324,0.045067764818668365,-0.013926388695836067,-0.27949732542037964,0.380971759557724,-0.607306182384491,-9.718034744262695
1745667690.9749207,0.03273078426718712,-0.02446085773408413,-0.2795793414115906,0.5216900706291199,-0.7790143489837646,-9.797815322875977
1745667691.0028274,0.035848136991262436,-0.018119562417268753,-0.2786296308040619,0.32792672514915466,-0.7519185543060303,-9.923078536987305
1745667691.0058239,0.030565213412046432,-0.019997481256723404,-0.27768343687057495,0.5669333934783936,-0.6690688133239746,-9.726964950561523
1745667691.0088143,0.0192597396671772,-0.02612297236919403,-0.2781676650047302,0.33629509806632996,-0.808566689491272,-9.805765151977539
1745667691.0116956,0.04752187058329582,-0.020195383578538895,-0.2775534987449646,0.4991644322872162,-0.47794827818870544,-9.606393814086914
1745667691.014317,0.0035220503341406584,-0.024118848145008087,-0.27917101979255676,0.4466758370399475,-0.6920427083969116,-9.78828239440918
1745667691.0479305,0.04901923984289169,-0.016338741406798363,-0.28086477518081665,0.31062278151512146,-0.6165206432342529,-9.791078567504883
1745667691.0500379,0.024038227275013924,-0.02714799903333187,-0.27999335527420044,0.4920197129249573,-0.6404370069503784,-9.761309623718262
1745667691.052273,0.032683465629816055,-0.018915850669145584,-0.28131189942359924,0.22773084044456482,-0.6408568024635315,-9.87424373626709
1745667691.0548012,0.03809889033436775,-0.02332226373255253,-0.278222918510437,0.5184539556503296,-0.6785086393356323,-9.637457847595215
1745667691.094464,0.029146259650588036,-0.025681257247924805,-0.2795226275920868,0.38842612504959106,-0.6899932622909546,-9.690224647521973
1745667691.0945482,0.036195188760757446,-0.019089926034212112,-0.2778139114379883,0.5053545236587524,-0.6664093732833862,-9.777238845825195
1745667691.0972328,0.024129634723067284,-0.026631858199834824,-0.27782323956489563,0.4361620545387268,-0.8265373110771179,-9.89061164855957
1745667691.10277,0.014304669573903084,-0.015643877908587456,-0.27670297026634216,0.474825918674469,-0.7896660566329956,-9.763652801513672
1745667691.1320274,0.030778372660279274,-0.02285705879330635,-0.27529892325401306,0.3667905032634735,-0.673150897026062,-9.780563354492188
1745667691.1351233,0.02772347629070282,-0.015155193395912647,-0.27600452303886414,0.362212598323822,-0.49695801734924316,-9.667393684387207
1745667691.1374362,0.025533873587846756,-0.024921707808971405,-0.2754395008087158,0.4602784216403961,-0.7554603815078735,-9.75213623046875
1745667691.1396132,0.028039494529366493,-0.014828605577349663,-0.27575522661209106,0.19699646532535553,-0.5655694603919983,-9.839489936828613
1745667691.14117,0.0322534516453743,-0.018462399020791054,-0.27652066946029663,0.46743813157081604,-0.8897385597229004,-9.771349906921387
1745667691.177223,0.017156366258859634,-0.021124841645359993,-0.2751406729221344,0.30348095297813416,-0.534368634223938,-9.662424087524414
1745667691.1799765,0.028024906292557716,-0.017709435895085335,-0.2755068838596344,0.4698081612586975,-0.9713964462280273,-9.776906967163086
1745667691.184646,0.028347115963697433,-0.018853241577744484,-0.2754736840724945,0.4467886984348297,-0.5370968580245972,-9.684804916381836
1745667691.1885312,0.013630053028464317,-0.010419531725347042,-0.27517032623291016,0.39831581711769104,-0.7473474740982056,-9.784250259399414
1745667691.2200058,0.03508049622178078,-0.01873837783932686,-0.2739716172218323,0.42822813987731934,-0.7558926343917847,-9.690032958984375
1745667691.2232108,0.01788317784667015,-0.012927497737109661,-0.2762794494628906,0.21056261658668518,-0.5171114802360535,-9.821157455444336
1745667691.2264988,0.0300546046346426,-0.014553111977875233,-0.275016725063324,0.4256419241428375,-0.8703600168228149,-9.835230827331543
1745667691.2302663,0.028378527611494064,-0.01648804172873497,-0.2745855450630188,0.24814729392528534,-0.5508766174316406,-9.658080101013184
1745667691.2610192,0.0318324901163578,-0.010517830029129982,-0.2743014395236969,0.48339977860450745,-0.7748807668685913,-9.65034294128418
1745667691.2656577,0.020833099260926247,-0.017370961606502533,-0.2734566628932953,0.4000096917152405,-0.6746681928634644,-9.804527282714844
1745667691.2684999,0.03758183866739273,-0.009063641540706158,-0.27273520827293396,0.3845103979110718,-0.7885164022445679,-9.878412246704102
1745667691.2720783,0.024531174451112747,-0.016281984746456146,-0.273272842168808,0.5169869661331177,-0.6918085813522339,-9.66543197631836
1745667691.2733865,0.015676643699407578,-0.014346415176987648,-0.2721696197986603,0.27616021037101746,-0.8080095052719116,-9.821985244750977
1745667691.305466,0.04407225176692009,-0.013376940973103046,-0.26952439546585083,0.48779040575027466,-0.7254776358604431,-9.705207824707031
1745667691.3098516,0.0360698476433754,-0.008248595520853996,-0.2696559429168701,0.3619462847709656,-0.7564806342124939,-9.79503345489502
1745667691.3141558,0.013332739472389221,-0.014254806563258171,-0.2696836292743683,0.4597814679145813,-0.6017705798149109,-9.68524169921875
1745667691.3156512,0.020442379638552666,-0.006302868016064167,-0.2690688967704773,0.2954874634742737,-0.7726267576217651,-9.84077262878418
1745667691.3514378,0.03546469286084175,-0.007550866808742285,-0.27037304639816284,0.4999397397041321,-0.6668668985366821,-9.624917984008789
1745667691.3554308,0.01280075591057539,-0.009930985048413277,-0.27043917775154114,0.3172543942928314,-0.7344675660133362,-9.786500930786133
1745667691.3589115,0.03360088914632797,-0.006322360131889582,-0.2676248550415039,0.4657270908355713,-0.7996753454208374,-9.822952270507812
1745667691.3613183,0.009833276271820068,-0.014649118296802044,-0.27007582783699036,0.39215582609176636,-0.8284517526626587,-9.835012435913086
1745667691.3914435,0.025671064853668213,-0.0065204910933971405,-0.26861441135406494,0.3546835780143738,-0.7642723917961121,-9.762252807617188
1745667691.3941092,-2.1058227503090166e-05,-0.012836994603276253,-0.26846009492874146,0.46056991815567017,-0.8092314600944519,-9.659383773803711
1745667691.3956387,0.026202768087387085,-0.009411433711647987,-0.2684383988380432,0.3237428069114685,-0.6541324257850647,-9.702356338500977
1745667691.3973987,0.0017569400370121002,-0.006996770389378071,-0.26899710297584534,0.5016604661941528,-0.703873336315155,-9.707555770874023
1745667691.3988376,0.007901431061327457,-0.00965878926217556,-0.26978734135627747,0.2612672746181488,-0.7968576550483704,-9.920315742492676
1745667691.4395795,0.029188593849539757,-0.003858229611068964,-0.2699947953224182,0.4260578155517578,-0.5986065864562988,-9.686971664428711
1745667691.4396408,0.0005170184304006398,-0.01286962628364563,-0.2701423764228821,0.35597285628318787,-0.8100377321243286,-9.705110549926758
1745667691.439689,0.03667714446783066,-0.005474216304719448,-0.2706255316734314,0.4249052107334137,-0.620779812335968,-9.727225303649902
1745667691.440253,0.010337049141526222,-0.012075245380401611,-0.2683477997779846,0.524032711982727,-0.823727011680603,-9.75410270690918
1745667691.4814572,-0.012206681072711945,-0.008958672173321247,-0.27253055572509766,0.3432512879371643,-0.753390371799469,-9.962306022644043
1745667691.4833722,0.006869869772344828,-0.01729876920580864,-0.2729668617248535,0.4878420829772949,-0.7978765368461609,-9.834192276000977
1745667691.4981081,-0.0019311897922307253,-0.009903880767524242,-0.27476993203163147,0.3205215036869049,-0.4168330132961273,-9.540121078491211
1745667691.5032868,-0.0032902471721172333,-0.019196243956685066,-0.27305516600608826,0.525214672088623,-0.9535917043685913,-9.717977523803711
1745667691.5206504,0.013342991471290588,-0.01421359647065401,-0.2735845446586609,0.26832979917526245,-0.4020059108734131,-9.81081485748291
1745667691.5238929,0.0038421694189310074,-0.008595334365963936,-0.273005872964859,0.49592262506484985,-0.8400357961654663,-9.82780647277832
1745667691.5266953,0.007438983768224716,-0.01681695319712162,-0.27076318860054016,0.3146582543849945,-0.6682637929916382,-9.6647310256958
1745667691.5303009,0.011965330690145493,-0.013735617510974407,-0.27059367299079895,0.41964203119277954,-0.7383545637130737,-9.73531436920166
1745667691.5318866,0.0019713249057531357,-0.019917715340852737,-0.27123895287513733,0.4345816969871521,-0.7790974378585815,-9.896687507629395
1745667691.5655122,0.0018559752497822046,-0.010611818172037601,-0.2704916298389435,0.33728593587875366,-0.6529868841171265,-9.758668899536133
1745667691.5665936,0.009789558127522469,-0.017047610133886337,-0.27016758918762207,0.5625600814819336,-0.8161898851394653,-9.460481643676758
1745667691.5690308,-0.012517651543021202,-0.012952804565429688,-0.2720363736152649,0.3223591446876526,-0.564647912979126,-9.735605239868164
1745667691.573567,-0.0009683534735813737,-0.014632175676524639,-0.27073934674263,0.5245421528816223,-0.9594197273254395,-10.047680854797363
1745667691.6129239,0.0020600412972271442,-0.018461164087057114,-0.2697902321815491,0.26458945870399475,-0.44229426980018616,-9.801008224487305
1745667691.6145527,-0.0028975014574825764,-0.009703105315566063,-0.2711271643638611,0.39400309324264526,-0.7358241081237793,-9.520208358764648
1745667691.6162593,0.006795914378017187,-0.021499861031770706,-0.2712019681930542,0.46845418214797974,-0.6588048934936523,-9.612100601196289
1745667691.6237428,0.008232755586504936,-0.0118029760196805,-0.27104634046554565,0.38202619552612305,-0.560549259185791,-9.922009468078613
1745667691.6238177,0.006519926246255636,-0.016505388543009758,-0.2683095335960388,0.49912476539611816,-0.7738629579544067,-9.899883270263672
1745667691.6494138,0.007572530768811703,-0.016971705481410027,-0.27002033591270447,0.2696809470653534,-0.6290950775146484,-9.666383743286133
1745667691.649808,0.013230802491307259,-0.018482454121112823,-0.2676416039466858,0.5040715932846069,-0.8471533060073853,-9.659406661987305
1745667691.6525953,-0.008438761346042156,-0.02306465618312359,-0.2688993215560913,0.34654921293258667,-0.5988719463348389,-9.905632019042969
1745667691.662995,0.005801603198051453,-0.015756111592054367,-0.2686522603034973,0.32766959071159363,-0.7266017198562622,-9.794088363647461
1745667691.693678,-0.006006493698805571,-0.02264709584414959,-0.26861053705215454,0.5125715732574463,-0.6534305214881897,-9.481725692749023
1745667691.6989827,-0.010601235553622246,-0.024506881833076477,-0.2659931182861328,0.25423914194107056,-0.812390148639679,-9.904632568359375
1745667691.699247,0.016795124858617783,-0.017871206626296043,-0.26595860719680786,0.5269063115119934,-0.6277478933334351,-9.775766372680664
1745667691.7051144,-0.0182211734354496,-0.01617433689534664,-0.2679983079433441,0.3407392203807831,-0.5629164576530457,-9.721638679504395
1745667691.7375102,0.017858518287539482,-0.015428215265274048,-0.2680850625038147,0.4538343548774719,-0.7033507227897644,-9.597818374633789
1745667691.7416117,-0.004095114301890135,-0.024151602759957314,-0.2691393494606018,0.3991635739803314,-0.47456932067871094,-9.79823112487793
1745667691.7467358,0.009078527800738811,-0.014629373326897621,-0.2700585424900055,0.3098353147506714,-0.7243798971176147,-10.054971694946289
1745667691.7552037,0.0058823684230446815,-0.022047316655516624,-0.26867371797561646,0.4620557725429535,-0.7808194756507874,-9.696237564086914
1745667691.778215,0.003481344785541296,-0.019589673727750778,-0.2671927213668823,0.34214454889297485,-0.6906168460845947,-9.532768249511719
1745667691.779903,0.0021941224113106728,-0.021364394575357437,-0.2664479911327362,0.5107516646385193,-0.8185018301010132,-9.7645902633667
1745667691.7817292,-0.009831189177930355,-0.018467864021658897,-0.266879141330719,0.2937086820602417,-0.7096786499023438,-9.945131301879883
1745667691.7835417,0.012117533013224602,-0.014629973098635674,-0.26469942927360535,0.4848795533180237,-0.565388560295105,-9.645112991333008
1745667691.8262954,-0.02373996190726757,-0.02267797477543354,-0.2668643295764923,0.32304510474205017,-0.732001781463623,-9.736124038696289
1745667691.8264577,0.0034995670430362225,-0.01899879425764084,-0.2738170027732849,0.3712264895439148,-0.6787861585617065,-9.542813301086426
1745667691.8265533,0.010656135156750679,-0.012987865135073662,-0.2730250358581543,0.3932751417160034,-0.6849246025085449,-9.779605865478516
1745667691.828306,0.001624671509489417,-0.018629807978868484,-0.2719656825065613,0.46965599060058594,-0.8211094737052917,-9.984182357788086
1745667691.8631096,0.004955340176820755,-0.01056667324155569,-0.27189210057258606,0.349883109331131,-0.4658741056919098,-9.808856010437012
1745667691.8651783,-0.0010555870831012726,-0.01980729028582573,-0.27188020944595337,0.4769884943962097,-0.9768608808517456,-9.683283805847168
1745667691.8682482,0.017225708812475204,-0.01669381931424141,-0.273827463388443,0.2891820967197418,-0.3719386160373688,-9.563139915466309
1745667691.8695934,-0.0039597684517502785,-0.012650732882320881,-0.2729722559452057,0.544781506061554,-0.7319368720054626,-9.867839813232422
1745667691.8713605,0.01822837069630623,-0.015714816749095917,-0.2715406119823456,0.28759118914604187,-0.6155458688735962,-9.846956253051758
1745667691.9101186,0.016187122091650963,-0.01064160093665123,-0.27342408895492554,0.3960312306880951,-0.506239652633667,-9.656087875366211
1745667691.9157228,0.010251260362565517,-0.02021709829568863,-0.27277427911758423,0.38567787408828735,-0.7710201740264893,-9.787939071655273
1745667691.9158356,0.022929251194000244,-0.012370557524263859,-0.2760270833969116,0.30681854486465454,-0.5566298961639404,-9.84166145324707
1745667691.9159656,0.012413290329277515,-0.017402537167072296,-0.2723940908908844,0.57846599817276,-0.8087009191513062,-9.726430892944336
1745667691.949773,0.012003491632640362,-0.013977834954857826,-0.2746744453907013,0.32568278908729553,-0.5717581510543823,-9.686708450317383
1745667691.951605,0.010900769382715225,-0.015442256815731525,-0.27349963784217834,0.556174635887146,-0.9219314455986023,-9.72160816192627
1745667691.9534094,0.00800351146608591,-0.019875632598996162,-0.272945374250412,0.38841429352760315,-0.5162548422813416,-9.798295974731445
1745667691.9560375,0.0017152235377579927,-0.01116028893738985,-0.2731059193611145,0.34310978651046753,-0.8652153015136719,-9.972208023071289
1745667691.957396,0.017019255086779594,-0.021290156990289688,-0.27101364731788635,0.38614198565483093,-0.6674429178237915,-9.677434921264648
1745667692.0020983,0.009502314031124115,-0.011818532831966877,-0.2726046144962311,0.30475324392318726,-0.4109393060207367,-9.53480339050293
1745667692.002172,0.012600424699485302,-0.0168294757604599,-0.27520647644996643,0.4921507239341736,-0.8063373565673828,-9.756989479064941
1745667692.002223,0.024816062301397324,-0.011321240104734898,-0.27586761116981506,0.2645561993122101,-0.3393760323524475,-9.796445846557617
1745667692.002255,0.017204996198415756,-0.01240607164800167,-0.2751085162162781,0.5358923673629761,-0.8378118276596069,-9.8402099609375
1745667692.037262,0.025956764817237854,-0.01440682727843523,-0.27625781297683716,0.4057362675666809,-0.5798405408859253,-9.614935874938965
1745667692.0400674,0.020517248660326004,-0.010539134033024311,-0.2754029631614685,0.4755343794822693,-0.7039145827293396,-9.75918960571289
1745667692.0481753,0.014659903943538666,-0.01853432133793831,-0.275426983833313,0.5710210204124451,-0.8360229730606079,-9.939191818237305
1745667692.0483239,0.009586257860064507,-0.017527582123875618,-0.275704562664032,0.30180075764656067,-0.7289289236068726,-9.986369132995605
1745667692.0845208,0.01168436836451292,-0.015504780225455761,-0.2747153639793396,0.49256640672683716,-0.8880546689033508,-9.658015251159668
1745667692.0875561,-0.012402909807860851,-0.01896248199045658,-0.27448445558547974,0.30566146969795227,-0.6066639423370361,-9.597528457641602
1745667692.089943,0.014200018718838692,-0.015113452449440956,-0.27667665481567383,0.4354846477508545,-0.7744571566581726,-9.734637260437012
1745667692.0938485,-0.004722534213215113,-0.015090493485331535,-0.27695417404174805,0.35842543840408325,-0.4028737545013428,-9.789312362670898
1745667692.0986717,0.00700934324413538,-0.009642323479056358,-0.28040656447410583,0.33948850631713867,-0.6742638349533081,-9.868555068969727
1745667692.1248546,0.022335227578878403,-0.022747386246919632,-0.27647125720977783,0.48961392045021057,-0.6035154461860657,-9.705970764160156
1745667692.126699,0.011394237168133259,-0.01511148177087307,-0.27849718928337097,0.29005518555641174,-0.5918952822685242,-9.896280288696289
1745667692.128813,0.028900951147079468,-0.015497107990086079,-0.2763446569442749,0.5026710629463196,-0.8113864064216614,-9.788912773132324
1745667692.1304176,0.01764761656522751,-0.016993412747979164,-0.2762419283390045,0.3347790837287903,-0.5889230370521545,-9.503872871398926
1745667692.1650875,0.026330042630434036,-0.012372054159641266,-0.27195486426353455,0.5377102494239807,-0.7231047749519348,-9.612298965454102
1745667692.1691318,0.008757419884204865,-0.020504429936408997,-0.2750183045864105,0.38844171166419983,-0.7128922939300537,-10.022273063659668
1745667692.172706,0.012645336799323559,-0.019031202420592308,-0.27336016297340393,0.2790163457393646,-0.6591178178787231,-9.831277847290039
1745667692.1759324,0.02158469893038273,-0.014700514264404774,-0.27538055181503296,0.3988134264945984,-0.4002532362937927,-9.532831192016602
1745667692.2126565,0.005748137831687927,-0.018587565049529076,-0.2765520513057709,0.276710569858551,-0.7349185943603516,-9.80957317352295
1745667692.2127955,0.04292811453342438,-0.009731868281960487,-0.27595600485801697,0.3514416217803955,-0.4607827067375183,-9.721147537231445
1745667692.2129078,0.013087011873722076,-0.01876375451683998,-0.2760525941848755,0.48228439688682556,-0.8115851283073425,-9.695215225219727
1745667692.216562,0.03357865661382675,-0.013850199058651924,-0.27234554290771484,0.3052061200141907,-0.6252066493034363,-9.818302154541016
1745667692.218045,0.020816391333937645,-0.02011108212172985,-0.2726753354072571,0.5468846559524536,-0.8633841276168823,-9.846918106079102
1745667692.254067,0.024883756414055824,-0.017016345635056496,-0.2734531760215759,0.3306957185268402,-0.6718868017196655,-9.79765510559082
1745667692.2556915,0.010671103373169899,-0.01605459488928318,-0.27332252264022827,0.5354551672935486,-0.7503203749656677,-9.635316848754883
1745667692.2568429,0.019125809893012047,-0.02175292745232582,-0.27561622858047485,0.36154705286026,-0.7092223763465881,-9.694204330444336
1745667692.2587724,0.014053578488528728,-0.010807124897837639,-0.2749027609825134,0.3584047257900238,-0.4881550669670105,-9.698393821716309
1745667692.2963202,0.002184113021939993,-0.01967007853090763,-0.2775845229625702,0.40762224793434143,-0.8982553482055664,-9.862936973571777
1745667692.301527,0.031510647386312485,-0.014553800225257874,-0.27516084909439087,0.2674860954284668,-0.4192541539669037,-9.702737808227539
1745667692.3070195,0.007311382330954075,-0.021443909034132957,-0.2746782898902893,0.4734792113304138,-0.8419045209884644,-9.77099895477295
1745667692.3116467,0.03040240705013275,-0.01679861918091774,-0.27318650484085083,0.2802281975746155,-0.5531549453735352,-9.762625694274902
1745667692.339501,0.03010537661612034,-0.014586815610527992,-0.2721185088157654,0.5282840728759766,-0.7393838167190552,-9.567500114440918
1745667692.342852,0.02684798836708069,-0.021503733471035957,-0.27146726846694946,0.41142597794532776,-0.6299010515213013,-9.689812660217285
1745667692.3469613,0.03251630440354347,-0.015581587329506874,-0.27205604314804077,0.3981448709964752,-0.6719974279403687,-9.856966972351074
1745667692.351614,0.03003530576825142,-0.02137436531484127,-0.2733250558376312,0.40189528465270996,-0.7914594411849976,-9.846013069152832
1745667692.3518522,0.024097466841340065,-0.013848407194018364,-0.2728120684623718,0.31223827600479126,-0.4677979052066803,-9.636308670043945
1745667692.399048,0.008215145207941532,-0.018775517120957375,-0.27249741554260254,0.429338276386261,-0.8992643356323242,-9.688567161560059
1745667692.3990912,0.023896431550383568,-0.027450716122984886,-0.27417969703674316,0.4710874557495117,-0.7228740453720093,-9.684733390808105
1745667692.400048,0.005387117154896259,-0.017821483314037323,-0.27261510491371155,0.3805904984474182,-0.5395340323448181,-9.803921699523926
1745667692.4017065,0.02030869387090206,-0.020958080887794495,-0.2719499468803406,0.5161654949188232,-0.9212697148323059,-9.745625495910645
1745667692.4259756,0.02047358639538288,-0.02048952877521515,-0.2711295485496521,0.25822412967681885,-0.41281986236572266,-9.607872009277344
1745667692.4291868,0.017268182709813118,-0.021213825792074203,-0.2717622220516205,0.437069833278656,-0.8141242861747742,-9.780133247375488
1745667692.4317415,0.027617067098617554,-0.021748367697000504,-0.2686412036418915,0.23816895484924316,-0.5418046712875366,-9.859259605407715
1745667692.4329844,0.034965839236974716,-0.017409855499863625,-0.27065590023994446,0.40115055441856384,-0.6624842882156372,-9.65509033203125
1745667692.471066,0.02397657372057438,-0.025471121072769165,-0.26988744735717773,0.4788634181022644,-0.7117708325386047,-9.611894607543945
1745667692.473561,0.027866655960679054,-0.01781911589205265,-0.2706480026245117,0.3546289801597595,-0.723676860332489,-9.84925365447998
1745667692.477816,0.03251956030726433,-0.024412941187620163,-0.27006179094314575,0.5149804353713989,-0.807325541973114,-9.73906421661377
1745667692.487661,0.004170241300016642,-0.01646759733557701,-0.27275291085243225,0.23277536034584045,-0.6798545122146606,-9.75740909576416
1745667692.5084424,0.022685086354613304,-0.022550659254193306,-0.26906293630599976,0.5565622448921204,-0.9619723558425903,-9.682734489440918
1745667692.5119686,0.007256896700710058,-0.02712075039744377,-0.27152585983276367,0.3334772288799286,-0.4883645176887512,-9.727924346923828
1745667692.515751,0.011659854091703892,-0.015302741900086403,-0.2705337107181549,0.4133182168006897,-0.7859536409378052,-9.945764541625977
1745667692.519735,0.02059120684862137,-0.025385325774550438,-0.27257052063941956,0.3862818777561188,-0.5217994451522827,-9.58037281036377
1745667692.5219564,0.018866926431655884,-0.01654881238937378,-0.2680467665195465,0.4534427225589752,-0.6726668477058411,-9.603368759155273
1745667692.558546,0.01385472435504198,-0.02015707828104496,-0.2704060673713684,0.2609484791755676,-0.6871594190597534,-9.750711441040039
1745667692.5586374,0.02928614616394043,-0.013899518176913261,-0.26982730627059937,0.40879058837890625,-0.5008776187896729,-9.849430084228516
1745667692.5603547,0.0046313111670315266,-0.021829435601830482,-0.27133670449256897,0.32618826627731323,-0.8787931203842163,-10.003580093383789
1745667692.563494,0.04327545315027237,-0.010785512626171112,-0.2704455256462097,0.30479928851127625,-0.5768206715583801,-9.565536499023438
1745667692.5968573,0.0025165206752717495,-0.01754288747906685,-0.2686324417591095,0.5323789715766907,-0.7915299534797668,-9.574833869934082
1745667692.5998087,0.02854112908244133,-0.010588694363832474,-0.2695080041885376,0.27110573649406433,-0.6978513598442078,-9.922940254211426
1745667692.6026287,0.021980371326208115,-0.01025476399809122,-0.27031978964805603,0.4669727385044098,-0.5916647911071777,-9.850403785705566
1745667692.6055918,0.013848376460373402,-0.013848657719790936,-0.2702158987522125,0.25989994406700134,-0.6854819059371948,-9.79472541809082
1745667692.6145446,0.03343646600842476,-0.010083528235554695,-0.27163165807724,0.39219194650650024,-0.6383255124092102,-9.706439971923828
1745667692.6407182,0.013863553293049335,-0.018438180908560753,-0.2680186927318573,0.41403284668922424,-0.7842332124710083,-9.826211929321289
1745667692.6455247,0.026345714926719666,-0.008246760815382004,-0.2708994746208191,0.2951925992965698,-0.6248988509178162,-9.879331588745117
1745667692.645948,0.012892122380435467,-0.013367800042033195,-0.2700541615486145,0.4494514465332031,-0.9024976491928101,-9.72691822052002
1745667692.6475048,0.03134223818778992,-0.012346035800874233,-0.2676762640476227,0.28687411546707153,-0.5065820813179016,-9.600359916687012
1745667692.681141,0.008911685086786747,-0.01016151625663042,-0.2702227234840393,0.45552149415016174,-0.8045398592948914,-9.897424697875977
1745667692.6834998,0.027501609176397324,-0.015814680606126785,-0.2681332528591156,0.30460357666015625,-0.726066529750824,-10.012467384338379
1745667692.6851363,0.02766421064734459,-0.007026585750281811,-0.2705986201763153,0.4025375247001648,-0.5011604428291321,-9.64950180053711
1745667692.6873927,0.011957590468227863,-0.014616087079048157,-0.2712283134460449,0.3848763108253479,-0.8550554513931274,-9.670665740966797
1745667692.688852,0.04039875045418739,-0.006048319395631552,-0.26960235834121704,0.3176964223384857,-0.48880189657211304,-9.689565658569336
1745667692.7266238,0.010967204347252846,-0.012095311656594276,-0.27278900146484375,0.5092037320137024,-0.8959065675735474,-9.920022964477539
1745667692.7309885,0.015976116061210632,-0.010423636995255947,-0.26937776803970337,0.4314868450164795,-0.8177081942558289,-9.842382431030273
1745667692.7356925,0.018145935609936714,-0.004540447145700455,-0.2676829397678375,0.2946401536464691,-0.7068255543708801,-9.901189804077148
1745667692.7390203,0.01565658673644066,-0.01037132553756237,-0.2667216658592224,0.4480492174625397,-0.8739760518074036,-9.725886344909668
1745667692.7682164,0.0046290140599012375,-0.005661868955940008,-0.2681526243686676,0.25469422340393066,-0.48906534910202026,-9.661317825317383
1745667692.771015,0.018948663026094437,-0.010467054322361946,-0.2682405114173889,0.48396435379981995,-0.9780063629150391,-9.788111686706543
1745667692.7735786,0.015502247028052807,-0.008830232545733452,-0.2683047652244568,0.3079832196235657,-0.39808231592178345,-9.777606010437012
1745667692.7774212,0.00461037689819932,-0.0014971366617828608,-0.26857081055641174,0.45471858978271484,-0.8697675466537476,-9.804519653320312
1745667692.8138468,0.022366199642419815,-0.011213073506951332,-0.26937007904052734,0.3553796410560608,-0.6721774339675903,-9.665179252624512
1745667692.8180819,0.01296977698802948,-0.0036126766353845596,-0.26746445894241333,0.3363948464393616,-0.6608889698982239,-9.79055404663086
1745667692.8215394,0.016901616007089615,-0.00849924422800541,-0.26813310384750366,0.47360414266586304,-0.867806613445282,-9.864776611328125
1745667692.825466,0.0176364965736866,-0.00546111399307847,-0.26562708616256714,0.2923659384250641,-0.5645025968551636,-9.69989013671875
1745667692.8273542,0.018006958067417145,-0.008791103959083557,-0.2676328122615814,0.5587994456291199,-0.881550133228302,-9.633214950561523
1745667692.854924,0.0023971230257302523,-0.011099031195044518,-0.26554715633392334,0.2826329469680786,-0.6684516668319702,-9.826574325561523
1745667692.8571935,0.016932891681790352,-0.004195644054561853,-0.26543980836868286,0.4070003926753998,-0.8408910632133484,-9.899480819702148
1745667692.8603735,0.0007632478955201805,-0.010704736225306988,-0.26796287298202515,0.35003986954689026,-0.5529884099960327,-9.610507011413574
1745667692.8629353,0.003248476656153798,-0.005618373863399029,-0.26726990938186646,0.28979894518852234,-0.8135828971862793,-9.693812370300293
1745667692.9027681,0.007942771539092064,-0.017777273431420326,-0.2626158893108368,0.24496562778949738,-0.7117202281951904,-9.760416030883789
1745667692.9055216,0.04321908578276634,-0.011771134100854397,-0.26141557097435,0.48616546392440796,-0.6244118809700012,-9.66558837890625
1745667692.9067895,0.010395454242825508,-0.020404547452926636,-0.26324462890625,0.4482559561729431,-0.7923287153244019,-9.699426651000977
1745667692.9082851,0.03136271983385086,-0.015429219231009483,-0.2618245482444763,0.4300268292427063,-0.7636668086051941,-9.788274765014648
1745667692.9445786,0.00938583817332983,-0.022065449506044388,-0.25881215929985046,0.4616940915584564,-0.9129608273506165,-9.889004707336426
1745667692.9447284,0.02296919748187065,-0.015671001747250557,-0.25780779123306274,0.3024229407310486,-0.7297447919845581,-9.764559745788574
1745667692.944812,0.003057715017348528,-0.020809486508369446,-0.2608873248100281,0.5628324747085571,-0.7639683485031128,-9.528655052185059
1745667692.9466689,0.0145609425380826,-0.025609895586967468,-0.2594696581363678,0.3256927728652954,-0.7748092412948608,-9.752362251281738
1745667692.9468877,0.023751303553581238,-0.01575065217912197,-0.2618880867958069,0.48953777551651,-0.5035990476608276,-9.72822380065918
1745667692.9845264,0.0003134002035949379,-0.02000243589282036,-0.2602055072784424,0.3680762052536011,-0.8157604336738586,-9.834132194519043
1745667692.9868197,0.04227520897984505,-0.015160185284912586,-0.2593196630477905,0.3203442096710205,-0.5816003084182739,-9.606405258178711
1745667692.9880815,0.010398363694548607,-0.025063391774892807,-0.25985580682754517,0.45602449774742126,-0.7907571196556091,-9.729549407958984
1745667692.9903765,0.03108595684170723,-0.019209668040275574,-0.2595253586769104,0.2967647612094879,-0.7185069918632507,-9.913740158081055
1745667693.027277,0.026252519339323044,-0.020977986976504326,-0.25877952575683594,0.5375062823295593,-0.815700888633728,-9.607419967651367
1745667693.0297172,0.01717703975737095,-0.021996473893523216,-0.25617116689682007,0.37583908438682556,-0.7005525231361389,-9.605720520019531
1745667693.037917,0.016459226608276367,-0.021702542901039124,-0.2577698230743408,0.5117576718330383,-0.8609663248062134,-9.836369514465332
1745667693.0380878,0.009879978373646736,-0.02454482391476631,-0.2570819854736328,0.3331828713417053,-0.843518853187561,-9.947522163391113
1745667693.038636,0.01058101374655962,-0.017031829804182053,-0.2560770809650421,0.3625231385231018,-0.5970889329910278,-9.622312545776367
1745667693.0778127,-0.004919823259115219,-0.029952535405755043,-0.2587483823299408,0.4289814531803131,-1.0026559829711914,-9.653160095214844
1745667693.0779164,0.025801125913858414,-0.02217470109462738,-0.2578597366809845,0.29052969813346863,-0.4473502039909363,-9.701400756835938
1745667693.080771,0.003998694010078907,-0.022648418322205544,-0.25738197565078735,0.4151664674282074,-0.5872156023979187,-9.805922508239746
1745667693.0829954,0.0037179056089371443,-0.025216639041900635,-0.25574907660484314,0.45425739884376526,-0.9929170608520508,-9.80323600769043
1745667693.1122556,0.02290060929954052,-0.017808539792895317,-0.25679129362106323,0.26885557174682617,-0.4457665979862213,-9.576559066772461
1745667693.1170845,-0.00257129012607038,-0.026977326720952988,-0.2547558844089508,0.48512572050094604,-0.9307942390441895,-9.736473083496094
1745667693.1209521,0.01580166257917881,-0.022420981898903847,-0.25530925393104553,0.23905806243419647,-0.5547319650650024,-9.929059028625488
1745667693.1255133,0.010586620308458805,-0.02232130989432335,-0.2559830844402313,0.4680403769016266,-0.8162870407104492,-9.8322114944458
1745667693.1559784,0.00424208864569664,-0.027473995462059975,-0.25693339109420776,0.3379211723804474,-0.6734590530395508,-9.661368370056152
1745667693.1587663,0.002096991054713726,-0.021748051047325134,-0.2582171559333801,0.42709416151046753,-0.7623321413993835,-9.71376895904541
1745667693.1614347,0.007938485592603683,-0.029662882909178734,-0.25735288858413696,0.46699875593185425,-0.8179203867912292,-9.761865615844727
1745667693.1649103,-0.007666806224733591,-0.016330886632204056,-0.25996309518814087,0.31882452964782715,-0.6008657217025757,-9.756010055541992
1745667693.1683238,-0.0018871352076530457,-0.025342991575598717,-0.2552141845226288,0.5214616656303406,-1.0009230375289917,-9.8026704788208
1745667693.203236,0.010358142666518688,-0.026254240423440933,-0.25574249029159546,0.25282731652259827,-0.3696896433830261,-9.795001029968262
1745667693.2033184,0.0010459607001394033,-0.0206286683678627,-0.25726592540740967,0.4316593110561371,-0.8213367462158203,-9.840019226074219
1745667693.2043822,0.021914472803473473,-0.02289140596985817,-0.25657224655151367,0.316071093082428,-0.4965117573738098,-9.622960090637207
1745667693.206391,0.016984587535262108,-0.019076231867074966,-0.25505536794662476,0.4175874590873718,-0.7006598711013794,-9.645288467407227
1745667693.2446446,0.013166537508368492,-0.025845414027571678,-0.2569432556629181,0.38794180750846863,-0.780116081237793,-9.895133018493652
1745667693.246601,0.003928062506020069,-0.010831525549292564,-0.25613585114479065,0.28736791014671326,-0.6843973994255066,-9.7863130569458
1745667693.2507608,0.012848975136876106,-0.012111290358006954,-0.2572612464427948,0.5078621506690979,-0.6582967638969421,-9.650179862976074
1745667693.2527022,-0.015910260379314423,-0.01332413125783205,-0.2594696581363678,0.2306113988161087,-0.7548455595970154,-9.862421035766602
1745667693.283173,0.018650012090802193,-0.010459834709763527,-0.2590000331401825,0.43103814125061035,-0.7747176289558411,-9.804791450500488
1745667693.286134,-0.012670939788222313,-0.015446138568222523,-0.25948941707611084,0.3382856547832489,-0.564766526222229,-9.683549880981445
1745667693.2884724,0.011502662673592567,-0.005291546694934368,-0.25735098123550415,0.3177519738674164,-0.7761901021003723,-9.724531173706055
1745667693.2923977,0.008823702111840248,-0.014149963855743408,-0.2584232985973358,0.4524468779563904,-0.564233124256134,-9.618745803833008
1745667693.29355,0.00992565043270588,-0.008119886741042137,-0.2586336135864258,0.3115508556365967,-0.6558400988578796,-9.917973518371582
1745667693.32792,0.0189853236079216,-0.010583033785223961,-0.25696665048599243,0.471723735332489,-0.742529571056366,-9.847307205200195
1745667693.3304825,0.01302261371165514,-0.012357344850897789,-0.25875598192214966,0.23769526183605194,-0.6799771189689636,-9.79311752319336
1745667693.3363833,0.027627509087324142,-0.007259543053805828,-0.2560403347015381,0.44929641485214233,-0.732992947101593,-9.623833656311035
1745667693.3422124,-0.0005630890955217183,-0.014494565315544605,-0.2584068179130554,0.37664923071861267,-0.7592188715934753,-9.765332221984863
1745667693.3693821,0.03477649390697479,-0.005561250261962414,-0.25954416394233704,0.3668857216835022,-0.644741415977478,-9.743118286132812
1745667693.3736277,-0.007373677100986242,-0.009210574440658092,-0.25985950231552124,0.43621891736984253,-0.6769232153892517,-9.731365203857422
1745667693.376674,0.012303072027862072,-0.006630721036344767,-0.26162654161453247,0.28171613812446594,-0.8097583651542664,-9.86315631866455
1745667693.3817194,0.01291615515947342,-0.013101334683597088,-0.26191210746765137,0.475503146648407,-0.6756170988082886,-9.737640380859375
1745667693.3820424,-0.0035058832727372646,-0.010289596393704414,-0.2611808180809021,0.2514873743057251,-0.72842937707901,-9.850508689880371
1745667693.415179,0.02438313513994217,-0.003248142544180155,-0.2602992057800293,0.4422866702079773,-0.6906755566596985,-9.65293025970459
1745667693.4182892,-0.0002314383164048195,-0.01242177002131939,-0.2599804401397705,0.38212865591049194,-0.703298032283783,-9.612577438354492
1745667693.41897,0.01715431734919548,-0.004840573761612177,-0.2582905888557434,0.3710595667362213,-0.6697986125946045,-9.810613632202148
1745667693.4226778,0.012323970906436443,-0.008613698184490204,-0.26434797048568726,0.4777688980102539,-0.7234431505203247,-9.755077362060547
1745667693.4584115,0.000869039329700172,-0.012096316553652287,-0.2639636993408203,0.3419308066368103,-0.8136799931526184,-9.956192016601562
1745667693.4612865,0.011292943730950356,-0.003918002359569073,-0.2663087248802185,0.3857875466346741,-0.5766705274581909,-9.725133895874023
1745667693.464488,-0.01637125574052334,-0.016990669071674347,-0.2634910047054291,0.39898166060447693,-1.0142977237701416,-9.728410720825195
1745667693.4664845,0.02078106626868248,-0.008469258435070515,-0.2645842134952545,0.33106210827827454,-0.5237818956375122,-9.647016525268555
1745667693.5018594,-0.020762482658028603,-0.011266184039413929,-0.2642837166786194,0.5603136420249939,-0.8309812545776367,-9.866933822631836
1745667693.5057912,0.005204131361097097,-0.010060114786028862,-0.2664951682090759,0.28944140672683716,-0.6742504835128784,-9.845502853393555
1745667693.5093234,-0.0027947609778493643,-0.009747235104441643,-0.2648254334926605,0.4844995439052582,-0.5963579416275024,-9.612017631530762
1745667693.512943,-0.009756194427609444,-0.014361958019435406,-0.26734843850135803,0.2943202257156372,-0.7782508134841919,-9.804862976074219
1745667693.5161712,0.008087257854640484,-0.007180207874625921,-0.26418668031692505,0.3588286340236664,-0.5787572860717773,-9.839821815490723
1745667693.5439992,-0.007973277010023594,-0.015803765505552292,-0.26613160967826843,0.449890673160553,-0.7825167775154114,-9.777350425720215
1745667693.5454137,0.006778891198337078,-0.010210356675088406,-0.2652891278266907,0.34400081634521484,-0.5722400546073914,-9.68122673034668
1745667693.5475545,-0.007048755884170532,-0.015970880165696144,-0.264602929353714,0.5292779207229614,-0.9078925848007202,-9.783199310302734
1745667693.551114,0.011822812259197235,-0.012738445773720741,-0.2632034718990326,0.3057975172996521,-0.4479740262031555,-9.741893768310547
1745667693.5875018,-0.011724785901606083,-0.009018266573548317,-0.26390552520751953,0.43954163789749146,-0.8583537936210632,-9.816311836242676
1745667693.590918,0.007469640579074621,-0.016864271834492683,-0.2651144862174988,0.3478260636329651,-0.6858539581298828,-9.787057876586914
1745667693.594432,0.019220519810914993,-0.019192159175872803,-0.26268669962882996,0.5176467895507812,-0.7616249322891235,-9.766645431518555
1745667693.604314,0.0106721892952919,-0.021940814331173897,-0.26367443799972534,0.29131925106048584,-0.5510818362236023,-9.683591842651367
1745667693.6290827,0.02381102554500103,-0.016152698546648026,-0.2624116539955139,0.4097774922847748,-0.7274249792098999,-9.760727882385254
1745667693.635185,0.01209440641105175,-0.024508776143193245,-0.26483720541000366,0.43148279190063477,-0.536666989326477,-9.716285705566406
1745667693.6375818,0.01567264460027218,-0.018264105543494225,-0.26646655797958374,0.3022106885910034,-0.7591482400894165,-9.905447006225586
1745667693.64103,0.03225771337747574,-0.026336004957556725,-0.263729989528656,0.5594152212142944,-0.717384934425354,-9.660551071166992
1745667693.671087,0.006434731185436249,-0.020129507407546043,-0.26337260007858276,0.3363223671913147,-0.5582965016365051,-9.752326011657715
1745667693.6756856,0.0306877288967371,-0.017991285771131516,-0.2618162930011749,0.49757224321365356,-0.9150904417037964,-9.780288696289062
1745667693.677077,0.018596161156892776,-0.022302251309156418,-0.261588990688324,0.31425246596336365,-0.41978877782821655,-9.644453048706055
1745667693.681142,0.020125331357121468,-0.01813548430800438,-0.26278796792030334,0.39484545588493347,-0.7957196831703186,-9.806129455566406
1745667693.7152073,0.01799197494983673,-0.02825722098350525,-0.2635616660118103,0.4010239243507385,-0.6349837183952332,-9.853761672973633
1745667693.7202947,0.02290898934006691,-0.02061750739812851,-0.26495808362960815,0.35981327295303345,-0.6592904329299927,-9.840934753417969
1745667693.723299,0.014057889580726624,-0.02629617229104042,-0.2625805139541626,0.5112239718437195,-0.8288604021072388,-9.710948944091797
1745667693.7287524,0.008688383735716343,-0.02521090768277645,-0.2627609968185425,0.3096241354942322,-0.7337030172348022,-9.696475982666016
1745667693.732762,0.02486509084701538,-0.021934065967798233,-0.26011765003204346,0.5337580442428589,-0.65846186876297,-9.620360374450684
1745667693.7596238,-0.007244913838803768,-0.025486167520284653,-0.26227006316185,0.2680054306983948,-0.6721680760383606,-9.840490341186523
1745667693.7606876,0.03674136847257614,-0.019636262208223343,-0.26013508439064026,0.47242775559425354,-0.6740220785140991,-9.80134105682373
1745667693.7697265,0.009804392233490944,-0.03036320209503174,-0.26306089758872986,0.4043402075767517,-0.48235148191452026,-9.649534225463867
1745667693.7699022,0.027984213083982468,-0.018598664551973343,-0.2623940408229828,0.2832299768924713,-0.6687403917312622,-9.82091999053955
1745667693.7999692,0.03389181196689606,-0.024908462539315224,-0.26241859793663025,0.4398325979709625,-0.5676475763320923,-9.621458053588867
1745667693.8028603,0.04380548372864723,-0.016325298696756363,-0.2618546485900879,0.4313233494758606,-0.6098423600196838,-9.714810371398926
1745667693.8040493,0.017915699630975723,-0.02460089698433876,-0.2616862654685974,0.47547635436058044,-0.7268405556678772,-9.761873245239258
1745667693.8056223,0.035096243023872375,-0.014897027984261513,-0.2613213062286377,0.3837467133998871,-0.6026558876037598,-9.755139350891113
1745667693.8435082,0.019885247573256493,-0.025773972272872925,-0.2621806263923645,0.5175408720970154,-0.8657999038696289,-9.767670631408691
1745667693.8460526,0.03239553049206734,-0.020395949482917786,-0.26034218072891235,0.27693429589271545,-0.628197193145752,-9.853299140930176
1745667693.8491669,0.01820184290409088,-0.01944291964173317,-0.2610248923301697,0.4998718798160553,-0.7047749161720276,-9.731120109558105
1745667693.8492277,0.026316385716199875,-0.024718012660741806,-0.2600560784339905,0.2748873829841614,-0.7544427514076233,-9.6749849319458
1745667693.8512573,0.035651374608278275,-0.013369652442634106,-0.26237112283706665,0.396602064371109,-0.4102829396724701,-9.591796875
1745667693.890047,0.010935915634036064,-0.018971696496009827,-0.26393014192581177,0.3619496822357178,-0.7763423323631287,-9.806723594665527
1745667693.8911188,0.05522400140762329,-0.012634066864848137,-0.26336121559143066,0.26528504490852356,-0.5094351768493652,-9.739029884338379
1745667693.895275,0.019370131194591522,-0.020451832562685013,-0.2642208933830261,0.503031313419342,-0.8194314241409302,-9.774444580078125
1745667693.8984783,0.03995591774582863,-0.015925973653793335,-0.2638764977455139,0.2885604798793793,-0.7339454889297485,-9.903129577636719
1745667693.9348288,0.03659092262387276,-0.01504428405314684,-0.260322630405426,0.49117350578308105,-0.8108084797859192,-9.713708877563477
1745667693.9349227,0.025591691955924034,-0.018908757716417313,-0.2607845067977905,0.383551687002182,-0.7913359999656677,-9.687474250793457
1745667693.9370253,0.03198421001434326,-0.014453600160777569,-0.2606756091117859,0.44732466340065,-0.7160811424255371,-9.696075439453125
1745667693.940523,0.015059029683470726,-0.017518699169158936,-0.2592037320137024,0.26677805185317993,-0.46316561102867126,-9.478875160217285
1745667693.9773057,0.00991749670356512,-0.009908117353916168,-0.26084473729133606,0.37803953886032104,-0.7516140937805176,-9.731761932373047
1745667693.9817686,0.02406434342265129,-0.01809314265847206,-0.2621760070323944,0.3928692936897278,-0.6741081476211548,-9.927803993225098
1745667693.9858248,0.020282085984945297,-0.004986561834812164,-0.2625575065612793,0.3098866045475006,-0.6309029459953308,-9.731097221374512
1745667693.9885774,0.01774962618947029,-0.012706160545349121,-0.26256051659584045,0.5177358388900757,-0.8984001278877258,-9.55966567993164
1745667694.0172603,0.012855174019932747,-0.014527988620102406,-0.2617291510105133,0.3254369795322418,-0.7116314172744751,-9.770770072937012
1745667694.018968,0.019012978300452232,-0.011114194989204407,-0.25917935371398926,0.5300005674362183,-0.9677692651748657,-10.028902053833008
1745667694.0281508,-0.0062820338644087315,-0.013457903638482094,-0.2618648111820221,0.3363528549671173,-0.6732112169265747,-9.80344009399414
1745667694.028265,0.01470446027815342,-0.011837798170745373,-0.2610764801502228,0.4075769782066345,-0.9569814801216125,-9.54991340637207
1745667694.0283618,0.00039873868809081614,-0.016587503254413605,-0.2606864273548126,0.43728694319725037,-0.6092932820320129,-9.62734317779541
1745667694.0594637,-0.0037106152158230543,-0.009879877790808678,-0.261222243309021,0.2850285470485687,-0.7065990567207336,-9.999917984008789
1745667694.0619962,0.017244473099708557,-0.012191055342555046,-0.26218104362487793,0.4190387725830078,-0.7309492826461792,-9.752413749694824
1745667694.0644283,-0.0007362648611888289,-0.01286394614726305,-0.2605966329574585,0.2356760948896408,-0.575710654258728,-9.625248908996582
1745667694.0680923,0.01805977337062359,-0.01152799092233181,-0.26248666644096375,0.4900195002555847,-0.8719874620437622,-9.781140327453613
1745667694.1056106,0.007594493217766285,-0.017055055126547813,-0.26139479875564575,0.3316616117954254,-0.6489033699035645,-9.882952690124512
1745667694.1077085,0.018108803778886795,-0.006986058317124844,-0.26129481196403503,0.484083354473114,-0.8099110722541809,-9.697835922241211
1745667694.110372,-0.002945659216493368,-0.018903572112321854,-0.2615359127521515,0.4565637707710266,-0.8050472140312195,-9.63200855255127
1745667694.111473,0.011068430729210377,-0.009791999123990536,-0.2581290602684021,0.28982818126678467,-0.7766061425209045,-9.862646102905273
1745667694.1136982,-0.002168700098991394,-0.014302873983979225,-0.26037779450416565,0.469341903924942,-0.6682133078575134,-9.802399635314941
1745667694.1455982,-0.0045898365788161755,-0.012517268769443035,-0.2590780258178711,0.22257713973522186,-0.7872893810272217,-9.799178123474121
1745667694.149215,-0.02431095577776432,-0.01643400639295578,-0.2626778483390808,0.3556617796421051,-0.8187758326530457,-9.867293357849121
1745667694.1523547,0.017416926100850105,-0.009980583563446999,-0.26212430000305176,0.34599822759628296,-0.7327886819839478,-9.960981369018555
1745667694.1888328,-0.00527999410405755,-0.016229668632149696,-0.26158589124679565,0.47202539443969727,-0.6519282460212708,-9.686376571655273
1745667694.1906884,-0.003137389663606882,-0.007511947304010391,-0.2627622187137604,0.2740241289138794,-0.7562488913536072,-9.671663284301758
1745667694.194163,0.01843350939452648,-0.009283484891057014,-0.25936323404312134,0.5186464190483093,-0.6209056973457336,-9.504825592041016
1745667694.1984682,-0.0066018300130963326,-0.014376150444149971,-0.26183342933654785,0.36982816457748413,-0.6833832859992981,-9.90924072265625
1745667694.20122,0.016098469495773315,-0.006558123044669628,-0.2594572603702545,0.37899893522262573,-0.6822026968002319,-10.004243850708008
1745667694.2326849,0.0018283657263964415,-0.015950964763760567,-0.2601568102836609,0.36501991748809814,-0.7487028241157532,-9.711716651916504
1745667694.2344494,0.013935071416199207,-0.00904553011059761,-0.26118913292884827,0.2743297517299652,-0.6240975260734558,-9.56451416015625
1745667694.2364423,-0.006904876325279474,-0.014231957495212555,-0.2603737711906433,0.4865550398826599,-0.830539345741272,-9.732446670532227
1745667694.2409754,0.017901409417390823,-0.010232308879494667,-0.26230090856552124,0.31962308287620544,-0.6337644457817078,-9.838300704956055
1745667694.274717,-0.0013460263144224882,-0.004920524079352617,-0.2609314024448395,0.4993242621421814,-0.6943122148513794,-9.677936553955078
1745667694.277498,-0.0018709588330239058,-0.014250966720283031,-0.2615455985069275,0.34998947381973267,-0.8716060519218445,-9.793248176574707
1745667694.2878242,0.01950998231768608,-0.011358752846717834,-0.2598188519477844,0.4125012457370758,-0.572806715965271,-9.75403881072998
1745667694.291308,-0.013315004296600819,-0.014387408271431923,-0.2598336338996887,0.3917907774448395,-0.8729220628738403,-9.897594451904297
1745667694.2925355,0.024067331105470657,-0.005749660078436136,-0.2594873607158661,0.28218361735343933,-0.5606063604354858,-9.706713676452637
1745667694.3204641,0.002002482768148184,-0.016179952770471573,-0.2578341066837311,0.35339808464050293,-0.5910868048667908,-9.473892211914062
1745667694.3205352,-0.0021932211238890886,-0.016668155789375305,-0.25960227847099304,0.45663946866989136,-0.8408793210983276,-9.66355037689209
1745667694.3215308,0.0037984722293913364,-0.022434521466493607,-0.2606600224971771,0.3855055272579193,-0.591271698474884,-9.913174629211426
1745667694.3239093,-0.011608707718551159,-0.006653039250522852,-0.26067957282066345,0.2644493579864502,-0.6425156593322754,-9.905804634094238
1745667694.3601396,0.009479337371885777,-0.019877184182405472,-0.25947603583335876,0.49670320749282837,-0.8322880864143372,-9.516510009765625
1745667694.3632753,0.0002335898607270792,-0.01912015676498413,-0.26233622431755066,0.26956892013549805,-0.3591959774494171,-9.568061828613281
1745667694.3681116,0.003726016730070114,-0.01468649785965681,-0.26040834188461304,0.5094250440597534,-0.8681365251541138,-10.036857604980469
1745667694.3714964,0.016263077035546303,-0.013267943635582924,-0.26355570554733276,0.2813437581062317,-0.4416920244693756,-9.767461776733398
1745667694.3749635,0.008664658293128014,-0.011267664842307568,-0.2616345286369324,0.5134419202804565,-0.8212680816650391,-9.451749801635742
1745667694.4052706,0.006019475404173136,-0.025611212477087975,-0.2582474946975708,0.4083336293697357,-0.6971303224563599,-9.73216438293457
1745667694.4070218,0.007935655303299427,-0.015860257670283318,-0.26105695962905884,0.34102410078048706,-0.7214682698249817,-10.108098030090332
1745667694.4092968,0.006603038404136896,-0.018793920055031776,-0.2588053345680237,0.4657762944698334,-0.7759724855422974,-9.837895393371582
1745667694.4127,-0.004130159504711628,-0.015231254510581493,-0.25922685861587524,0.27952128648757935,-0.5582224130630493,-9.440190315246582
1745667694.452982,0.01634562760591507,-0.023815695196390152,-0.26225945353507996,0.5549198985099792,-0.7451281547546387,-9.541105270385742
1745667694.4531326,-0.0020242161117494106,-0.017114710062742233,-0.2621086537837982,0.2803022265434265,-0.43206286430358887,-9.973602294921875
1745667694.4541085,0.012283457443118095,-0.014119836501777172,-0.2619139552116394,0.4500441551208496,-0.9023005366325378,-9.962626457214355
1745667694.4557903,0.013695552945137024,-0.022929716855287552,-0.25893837213516235,0.3611956536769867,-0.563545286655426,-9.547935485839844
1745667694.4903774,0.007147798780351877,-0.020555591210722923,-0.2593660354614258,0.3622957766056061,-0.7766233682632446,-9.714312553405762
1745667694.493397,0.018307073041796684,-0.022331446409225464,-0.2590528726577759,0.46890178322792053,-0.7243121862411499,-9.865545272827148
1745667694.4967308,0.010368104092776775,-0.014197960495948792,-0.2595350444316864,0.32967644929885864,-0.6121886372566223,-9.720093727111816
1745667694.5015235,0.019749488681554794,-0.013157661072909832,-0.2593134939670563,0.4292055070400238,-0.6932122707366943,-9.687026023864746
1745667694.5341809,0.0007732330705039203,-0.02580304816365242,-0.25862494111061096,0.4707306921482086,-0.7303997874259949,-9.556572914123535
1745667694.5362651,0.008536328561604023,-0.02126842737197876,-0.2586692273616791,0.33431506156921387,-0.7623667120933533,-9.913228988647461
1745667694.5377405,0.0003001306322403252,-0.024094589054584503,-0.25906768441200256,0.5200813412666321,-0.733561635017395,-9.888373374938965
1745667694.5420735,-0.015823915600776672,-0.023227011784911156,-0.2597486972808838,0.20963867008686066,-0.8218258023262024,-9.800413131713867
1745667694.5432212,0.018028538674116135,-0.02123356983065605,-0.2595156133174896,0.4814314842224121,-0.6756736636161804,-9.395744323730469
1745667694.5783322,-0.02437237650156021,-0.026331881061196327,-0.2610775828361511,0.3905532956123352,-0.579855740070343,-9.697427749633789
1745667694.5788572,0.015980113297700882,-0.016713786870241165,-0.25933974981307983,0.43472081422805786,-0.7321737408638,-10.024484634399414
1745667694.5821042,0.00029341838671825826,-0.024821307510137558,-0.2603050470352173,0.4189063608646393,-0.5058298707008362,-9.772134780883789
1745667694.583203,0.009027790278196335,-0.017734071239829063,-0.2605186104774475,0.23283982276916504,-0.6510619521141052,-9.679920196533203
1745667694.6201162,0.013830279931426048,-0.025304162874817848,-0.26052191853523254,0.44740962982177734,-0.686923623085022,-9.630338668823242
1745667694.6239774,0.007401800714433193,-0.02279299683868885,-0.26201796531677246,0.3092440664768219,-0.6320560574531555,-9.860250473022461
1745667694.629102,0.01502371858805418,-0.021298620849847794,-0.2595651149749756,0.5145853757858276,-0.7415772676467896,-9.80091381072998
1745667694.6330397,-0.0005893841153010726,-0.024137647822499275,-0.2614603042602539,0.35032838582992554,-0.6876708269119263,-9.696283340454102
1745667694.6413627,0.021422166377305984,-0.017297903075814247,-0.26033228635787964,0.45693010091781616,-0.5892178416252136,-9.579018592834473
1745667694.6646264,-0.015760954469442368,-0.024710947647690773,-0.26234233379364014,0.41247788071632385,-0.7819842100143433,-9.899140357971191
1745667694.6681643,0.0014804534148424864,-0.017364418134093285,-0.26264697313308716,0.48681527376174927,-0.7580631971359253,-9.949113845825195
1745667694.673293,0.015306329354643822,-0.019764406606554985,-0.26088011264801025,0.2892332971096039,-0.6289909482002258,-9.772537231445312
1745667694.6765783,0.022962193936109543,-0.015927406027913094,-0.2633340358734131,0.40377387404441833,-0.5869779586791992,-9.529291152954102
1745667694.7056997,0.016216082498431206,-0.024140287190675735,-0.26304808259010315,0.4146350026130676,-0.7262305021286011,-9.74542236328125
1745667694.708375,0.0271284282207489,-0.013484342023730278,-0.2625097632408142,0.3089844584465027,-0.5292173624038696,-9.915597915649414
1745667694.708493,0.018418921157717705,-0.01872272416949272,-0.2636776864528656,0.4405640661716461,-0.8769391179084778,-9.807515144348145
1745667694.7090247,0.026478346437215805,-0.01599656417965889,-0.26443541049957275,0.2755257785320282,-0.4300402104854584,-9.579458236694336
1745667694.7103403,0.005764412693679333,-0.020625250414013863,-0.2638438045978546,0.4513797163963318,-1.0430723428726196,-9.862726211547852
1745667694.7495828,0.02900337614119053,-0.020231792703270912,-0.26308077573776245,0.2960514724254608,-0.5830665826797485,-9.850967407226562
1745667694.7510042,0.004409050568938255,-0.009915435686707497,-0.2653239965438843,0.48028820753097534,-0.7173444032669067,-9.707688331604004
1745667694.7546954,0.013520276173949242,-0.020240239799022675,-0.26241761445999146,0.37999603152275085,-0.786457896232605,-9.662385940551758
1745667694.7596617,0.018361752852797508,-0.011106802150607109,-0.26392775774002075,0.3353996276855469,-0.46670860052108765,-9.722518920898438
1745667694.791733,0.008957261219620705,-0.018996840342879295,-0.2614777684211731,0.4110817015171051,-0.8461759686470032,-9.964872360229492
1745667694.7951334,0.02533380128443241,-0.011439554393291473,-0.264066219329834,0.2088785618543625,-0.4715132713317871,-9.824800491333008
1745667694.7961721,0.020670335739850998,-0.014955463819205761,-0.2641841173171997,0.5014401078224182,-0.8166454434394836,-9.573236465454102
1745667694.7998536,0.019675906747579575,-0.017781289294362068,-0.2635771632194519,0.311331570148468,-0.5966750383377075,-9.744247436523438
1745667694.8353403,0.019847631454467773,-0.011713502928614616,-0.26452577114105225,0.45515766739845276,-0.8404938578605652,-9.9104642868042
1745667694.8371866,0.02340899035334587,-0.01538299210369587,-0.26128214597702026,0.36266034841537476,-0.6284497976303101,-9.703653335571289
1745667694.8395615,0.009038478136062622,-0.005048505496233702,-0.26280495524406433,0.32094359397888184,-0.683277428150177,-9.687715530395508
1745667694.841786,0.020954856649041176,-0.019668500870466232,-0.2630385756492615,0.515163242816925,-0.8867176175117493,-9.809277534484863
1745667694.8773353,0.02269614115357399,-0.018978919833898544,-0.26453906297683716,0.29512447118759155,-0.5619498491287231,-9.651355743408203
1745667694.8866525,0.01514635793864727,-0.004621488507837057,-0.2637284994125366,0.30601391196250916,-0.7428877353668213,-9.918878555297852
1745667694.886799,0.028320271521806717,-0.009148038923740387,-0.26291459798812866,0.46073371171951294,-0.7328724265098572,-9.767379760742188
1745667694.8869581,0.02496044710278511,-0.0042727128602564335,-0.2669980525970459,0.3484891653060913,-0.5961354374885559,-9.517465591430664
1745667694.887041,0.02334243431687355,-0.011874714866280556,-0.2616475522518158,0.5730270147323608,-0.8781207203865051,-9.74968147277832
1745667694.921364,0.019573841243982315,-0.011147785000503063,-0.2633815407752991,0.2638433277606964,-0.6213447451591492,-10.128957748413086
1745667694.9256487,0.0352373942732811,-0.004858203697949648,-0.26254457235336304,0.41435152292251587,-0.8291091918945312,-9.876157760620117
1745667694.9288044,0.016276124864816666,-0.010518250055611134,-0.2605772018432617,0.3492930829524994,-0.5911744832992554,-9.443947792053223
1745667694.9320133,0.03377089649438858,-0.009341285564005375,-0.2628674805164337,0.3743426501750946,-0.8246099352836609,-9.693838119506836
1745667694.9650571,0.03239937126636505,-0.012411423027515411,-0.26393765211105347,0.4856647849082947,-0.5508692860603333,-9.861988067626953
1745667694.965461,0.020064759999513626,-0.0013797663850709796,-0.26493120193481445,0.33800017833709717,-0.7049905061721802,-9.978559494018555
1745667694.9694254,0.03996071591973305,-0.00970328226685524,-0.2621072828769684,0.5040342211723328,-0.8474987745285034,-9.603919982910156
1745667694.980145,0.014538081362843513,-0.013166236691176891,-0.26653584837913513,0.29894787073135376,-0.6488276720046997,-9.708955764770508
1745667694.9802263,0.0284770168364048,-0.0064637744799256325,-0.2614975571632385,0.45593005418777466,-0.9715662002563477,-9.978983879089355
1745667695.0062878,0.01785682886838913,-0.011606419458985329,-0.26467281579971313,0.34781208634376526,-0.6763910055160522,-9.73341178894043
1745667695.008884,0.02817593142390251,-0.004745515529066324,-0.26305824518203735,0.44693613052368164,-0.7047340273857117,-9.539661407470703
1745667695.0123057,0.026728859171271324,-0.017952434718608856,-0.2668149471282959,0.32389962673187256,-0.5905398726463318,-9.586294174194336
1745667695.0145082,0.015591022558510303,-0.011157557368278503,-0.2663824260234833,0.5263413786888123,-0.6239607334136963,-9.581460952758789
1745667695.0510938,0.0035636709071695805,-0.019382601603865623,-0.26731735467910767,0.379827082157135,-0.871399998664856,-9.987629890441895
1745667695.054464,0.0335889533162117,-0.01151306927204132,-0.264774888753891,0.41772428154945374,-0.5943388938903809,-9.84550666809082
1745667695.0608182,-0.005484507419168949,-0.02180989645421505,-0.2665150761604309,0.44067293405532837,-0.8937097787857056,-9.65388298034668
1745667695.0638182,0.02382814884185791,-0.013447172939777374,-0.26558917760849,0.32472190260887146,-0.6511021852493286,-9.641202926635742
1745667695.0944328,0.0048612626269459724,-0.01962185837328434,-0.26396286487579346,0.4991895258426666,-0.7607493996620178,-9.680296897888184
1745667695.0966344,0.011418512091040611,-0.014568638987839222,-0.26747840642929077,0.2892104983329773,-0.5991474986076355,-9.820643424987793
1745667695.0980203,0.01120350044220686,-0.014822036027908325,-0.265896201133728,0.4569425582885742,-0.7347266674041748,-9.707316398620605
1745667695.0999396,0.008464297279715538,-0.022153055295348167,-0.26738056540489197,0.34455370903015137,-0.7031782865524292,-9.746849060058594
1745667695.1041033,0.012690204195678234,-0.013876371085643768,-0.267456591129303,0.41285377740859985,-0.590263843536377,-9.759709358215332
1745667695.1453857,0.0029487363062798977,-0.0240506362169981,-0.26806020736694336,0.4258185923099518,-1.0097122192382812,-9.84298324584961
1745667695.1455424,0.026903551071882248,-0.01279506366699934,-0.26575881242752075,0.34328389167785645,-0.4674459993839264,-9.519979476928711
1745667695.145715,-0.008940592408180237,-0.018248189240694046,-0.26605892181396484,0.5652148127555847,-0.9075576663017273,-9.674826622009277
1745667695.1486742,0.027113381773233414,-0.018405107781291008,-0.26402947306632996,0.25203853845596313,-0.5009125471115112,-9.829854011535645
1745667695.179695,0.010287685319781303,-0.013155932538211346,-0.266954243183136,0.490596204996109,-0.5863066911697388,-9.78767204284668
1745667695.1837063,0.013947911560535431,-0.02181314118206501,-0.26819610595703125,0.3092953562736511,-0.719441294670105,-9.756881713867188
1745667695.18937,0.02274102345108986,-0.017298609018325806,-0.26907721161842346,0.387867271900177,-0.5874557495117188,-9.620149612426758
1745667695.191614,0.009482847526669502,-0.024717163294553757,-0.2676622271537781,0.48722147941589355,-0.8451213836669922,-9.740626335144043
1745667695.1976912,0.016711939126253128,-0.012923826463520527,-0.2675907611846924,0.293344110250473,-0.6085188984870911,-9.814481735229492
1745667695.2284863,0.020683225244283676,-0.02348705753684044,-0.26836562156677246,0.38660767674446106,-0.6383882761001587,-9.472773551940918
1745667695.2314982,0.0025317035615444183,-0.0156509168446064,-0.26814064383506775,0.22830891609191895,-0.47253483533859253,-9.729997634887695
1745667695.235211,0.020993586629629135,-0.02290038950741291,-0.2683919370174408,0.49849992990493774,-0.911056399345398,-9.940645217895508
1745667695.2391875,0.02351330779492855,-0.02060672640800476,-0.2696197032928467,0.23972372710704803,-0.3684948980808258,-9.794512748718262
1745667695.2665648,0.016018714755773544,-0.021244142204523087,-0.27082329988479614,0.5231013298034668,-0.970842182636261,-9.675155639648438
1745667695.2707834,0.026400163769721985,-0.02274412475526333,-0.2679665684700012,0.3599912226200104,-0.62528395652771,-9.596670150756836
1745667695.2716103,0.013405034318566322,-0.01737874746322632,-0.26701727509498596,0.4534180760383606,-0.8403318524360657,-9.750386238098145
1745667695.2756288,0.01225430890917778,-0.02547593042254448,-0.2652098834514618,0.46142321825027466,-0.7895220518112183,-9.811872482299805
1745667695.312893,0.007984761148691177,-0.0190541073679924,-0.26569536328315735,0.28022700548171997,-0.6731188893318176,-9.803582191467285
1745667695.320184,0.01157121080905199,-0.028010785579681396,-0.2667771279811859,0.5083898305892944,-0.7938519716262817,-9.775564193725586
1745667695.3213065,-0.0015109339728951454,-0.023670844733715057,-0.26863962411880493,0.22792688012123108,-0.5244649648666382,-9.786384582519531
1745667695.3257375,0.0209369920194149,-0.024308696389198303,-0.26821470260620117,0.4466584324836731,-0.8984310030937195,-9.683277130126953
1745667695.3513787,0.0017135307425633073,-0.022027764469385147,-0.2689341902732849,0.3334370255470276,-0.47857895493507385,-9.544889450073242
1745667695.3562248,0.004493402317166328,-0.018727745860815048,-0.26658135652542114,0.42673125863075256,-0.9285340309143066,-9.87488842010498
1745667695.36038,0.019591718912124634,-0.028041666373610497,-0.265349805355072,0.4030799865722656,-0.6019669771194458,-9.805394172668457
1745667695.3613591,0.004659122787415981,-0.01593036949634552,-0.2629978358745575,0.28958627581596375,-0.6422227621078491,-9.810720443725586
1745667695.3643847,0.02797161601483822,-0.01141511183232069,-0.25850480794906616,0.44125398993492126,-0.810456395149231,-9.925416946411133
1745667695.3966436,0.005238116718828678,-0.019329693168401718,-0.2588154375553131,0.3514033555984497,-0.8445497751235962,-9.736593246459961
1745667695.4017003,0.01667674444615841,-0.010328875854611397,-0.25888699293136597,0.4085668921470642,-0.742143988609314,-9.565507888793945
1745667695.401768,-0.008756865747272968,-0.019756799563765526,-0.25661101937294006,0.470148503780365,-0.8263500332832336,-9.798932075500488
1745667695.4032712,0.021607978269457817,-0.009079067967832088,-0.2590448558330536,0.281648725271225,-0.5367170572280884,-9.868863105773926
1745667695.4369621,-0.009717079810798168,-0.01059936173260212,-0.2590510845184326,0.46798262000083923,-0.7289716601371765,-9.756625175476074
1745667695.4397004,0.012579399161040783,-0.014015068300068378,-0.25895529985427856,0.23364543914794922,-0.6904884576797485,-9.764517784118652
1745667695.4412065,0.020030727609992027,-0.01233007200062275,-0.26034221053123474,0.4095591902732849,-0.5438340306282043,-9.698766708374023
1745667695.444655,0.002988463966175914,-0.014947419986128807,-0.25920340418815613,0.31745392084121704,-0.8012869954109192,-9.911677360534668
1745667695.4481516,0.03749867528676987,-0.004107973538339138,-0.25855982303619385,0.39555659890174866,-0.5726021528244019,-9.694039344787598
1745667695.480841,0.004428054206073284,-0.01572391949594021,-0.2571548819541931,0.5302878618240356,-0.8818127512931824,-9.658011436462402
1745667695.482327,0.025883594527840614,-0.008972068317234516,-0.25682124495506287,0.30659371614456177,-0.6489574909210205,-9.88007640838623
1745667695.4843056,0.0066529386676847935,-0.012564485892653465,-0.25749844312667847,0.4552396833896637,-0.9353992342948914,-9.94963264465332
1745667695.487668,0.011265082284808159,-0.011930066160857677,-0.25650089979171753,0.23844103515148163,-0.6821576952934265,-9.729284286499023
1745667695.523941,-0.0015650726854801178,-0.010002421215176582,-0.25653761625289917,0.45236554741859436,-0.7471858263015747,-9.581441879272461
1745667695.5260513,0.003765654982998967,-0.018511250615119934,-0.26010408997535706,0.3351259231567383,-0.8057080507278442,-9.805876731872559
1745667695.529304,0.010234453715384007,-0.0022659790702164173,-0.25946542620658875,0.3960154950618744,-0.48622745275497437,-9.785061836242676
1745667695.5317152,-0.011325934901833534,-0.01390642486512661,-0.2569069564342499,0.39326319098472595,-0.9936277270317078,-9.856646537780762
1745667695.5351217,0.02847765013575554,-0.008549600839614868,-0.253958523273468,0.1398763209581375,-0.5043901205062866,-9.692670822143555
1745667695.567398,-0.006437609903514385,-0.014989343471825123,-0.24987979233264923,0.3873298466205597,-0.9944162368774414,-9.772401809692383
1745667695.5717769,0.006451307330280542,-0.03132183849811554,-0.23639392852783203,0.3484610915184021,-0.7114719152450562,-9.770955085754395
1745667695.573375,-0.00023775547742843628,-0.01605382189154625,-0.2361571043729782,0.12453057616949081,-0.6032417416572571,-9.940940856933594
1745667695.579363,-0.0031662271358072758,-0.021492645144462585,-0.236057847738266,0.3711959719657898,-0.9947524070739746,-9.72785472869873
1745667695.610068,-0.010079838335514069,-0.022164737805724144,-0.2331499606370926,0.2697540521621704,-0.7464091181755066,-9.47191047668457
1745667695.6148403,-0.020060354843735695,-0.021725207567214966,-0.22874288260936737,0.44672560691833496,-0.9522734880447388,-9.782218933105469
1745667695.619905,-0.02553827129304409,-0.029291907325387,-0.2286529839038849,0.3758562207221985,-0.7422138452529907,-10.072121620178223
1745667695.6227236,-0.012977813370525837,-0.016718726605176926,-0.2271387130022049,0.24961623549461365,-0.5249800682067871,-9.88051986694336
1745667695.6545649,-0.024435652419924736,-0.029657285660505295,-0.22521288692951202,0.2247101068496704,-0.7184111475944519,-9.512246131896973
1745667695.6581676,-0.003848408116027713,-0.023943547159433365,-0.22525838017463684,0.10817091166973114,-0.551986038684845,-9.57718563079834
1745667695.6609378,-0.02176576480269432,-0.02793271467089653,-0.22358088195323944,0.2178991585969925,-0.7361018061637878,-10.035455703735352
1745667695.665206,-0.00844191201031208,-0.02333291806280613,-0.2218063622713089,0.05236802250146866,-0.6475240588188171,-9.939218521118164
1745667695.6949322,-0.0019011881668120623,-0.02242739498615265,-0.22201235592365265,0.2830830216407776,-0.5701481699943542,-9.384027481079102
1745667695.6970143,-0.024116909131407738,-0.03405380994081497,-0.22110669314861298,0.3521210849285126,-0.7543349266052246,-9.675152778625488
1745667695.6992671,-0.0009024860337376595,-0.02479247748851776,-0.21918416023254395,0.3428780138492584,-0.5763188600540161,-10.100715637207031
1745667695.7025485,-0.02275342307984829,-0.03263961523771286,-0.2204674780368805,0.402874231338501,-0.8797610998153687,-9.95272159576416
1745667695.7036092,-0.009368443861603737,-0.02546302042901516,-0.21532610058784485,0.1731860637664795,-0.6940919160842896,-9.520334243774414
1745667695.7385752,-0.025256838649511337,-0.021743884310126305,-0.11160361766815186,0.19151169061660767,-0.2800876498222351,-10.176348686218262
1745667695.7407813,0.025959650054574013,-0.051552824676036835,-0.10314971208572388,0.21673233807086945,-0.4542269706726074,-7.539172172546387
1745667695.7437763,-0.002263431902974844,-0.0719069391489029,-0.09485350549221039,0.5187920331954956,-0.850072979927063,-9.50501823425293
1745667695.748708,-0.01658542826771736,-0.04254824295639992,-0.09118902683258057,0.06332509219646454,-1.0425083637237549,-12.202444076538086
1745667695.783708,-0.03591061010956764,-0.020137544721364975,-0.08954259008169174,0.05193207412958145,-1.0025947093963623,-9.947553634643555
1745667695.7846217,-0.08327348530292511,-0.051221586763858795,-0.08855697512626648,0.025301804766058922,-0.9971076846122742,-7.4347686767578125
1745667695.7868247,-0.127847358584404,-0.05339562147855759,-0.09195168316364288,0.10985181480646133,-0.7410973906517029,-9.485925674438477
1745667695.7889936,-0.15303924679756165,-0.046635448932647705,-0.09643436968326569,0.27201753854751587,-0.8688489198684692,-11.976632118225098
1745667695.8244958,-0.13267099857330322,-0.019217807799577713,-0.0958845466375351,0.1141231507062912,-0.46649813652038574,-10.004803657531738
1745667695.827795,-0.15757624804973602,-0.03618880361318588,-0.08342436701059341,0.1867576390504837,-0.8500841856002808,-7.899048805236816
1745667695.8315864,-0.13197702169418335,-0.04716141149401665,-0.06668110191822052,0.18518289923667908,-0.6450453400611877,-9.383105278015137
1745667695.8339067,-0.1162610799074173,-0.02618669532239437,-0.051864784210920334,0.29602953791618347,-0.3792664706707001,-11.465337753295898
1745667695.8375058,-0.0919414609670639,-0.007566538639366627,-0.04466168209910393,0.10129936039447784,-0.09481160342693329,-10.209665298461914
1745667695.867978,-0.05008187144994736,-0.015913667157292366,-0.04269678145647049,0.3792085647583008,0.2621806263923645,-8.229513168334961
1745667695.8719115,-0.07149484753608704,-0.046585194766521454,-0.046140819787979126,0.4147997796535492,0.21456527709960938,-9.550639152526855
1745667695.8758426,-0.037518106400966644,-0.024678705260157585,-0.053099095821380615,0.3359982371330261,-0.2418656051158905,-11.350300788879395
1745667695.8785229,-0.06990093737840652,-0.006427390035241842,-0.05511680245399475,0.3604777157306671,-0.4099665582180023,-10.228086471557617
1745667695.9092932,-0.0850246399641037,-0.026072770357131958,-0.049330729991197586,0.15196818113327026,-0.9183553457260132,-8.628843307495117
1745667695.9139729,-0.09296880662441254,-0.019909566268324852,-0.033190883696079254,0.7722679376602173,-0.808584988117218,-9.18819808959961
1745667695.9177773,-0.11993870884180069,-0.017744731158018112,-0.021126169711351395,0.5210356712341309,-0.661371111869812,-11.190038681030273
1745667695.922309,-0.08517663180828094,0.0006442912854254246,-0.007313820533454418,0.5971887707710266,-0.7267102599143982,-10.286752700805664
1745667695.9238915,-0.11964666843414307,0.018370406702160835,0.04932553321123123,0.5513728857040405,-0.5016123056411743,-9.2122220993042
1745667695.9543188,-0.11584125459194183,0.025544608011841774,0.057596586644649506,0.08105159550905228,-0.5300933122634888,-10.481576919555664
1745667695.9578025,-0.10861539840698242,0.04107542708516121,0.06469230353832245,0.33901718258857727,-0.1748804748058319,-10.079788208007812
1745667695.960076,-0.1077926903963089,0.04022768512368202,0.06484872847795486,0.13083580136299133,0.0690901130437851,-9.221708297729492
1745667695.9619653,-0.08965183049440384,0.028812166303396225,0.06231483817100525,0.29734769463539124,-0.030918458476662636,-9.368419647216797
1745667695.9969978,-0.10165538638830185,0.034661345183849335,0.06494996696710587,0.4279247224330902,-0.1182306632399559,-10.290074348449707
1745667695.9982457,-0.09070558845996857,0.05047040432691574,0.06597678363323212,0.44392529129981995,-0.5086603164672852,-10.297198295593262
1745667696.0004952,-0.11265762895345688,0.03588563948869705,0.07488852739334106,0.5643355846405029,-0.6358774304389954,-9.391283988952637
1745667696.0021107,-0.11489669233560562,0.04459299147129059,0.0887281745672226,0.430678129196167,-0.6795300245285034,-9.402560234069824
1745667696.004984,-0.13013842701911926,0.04514908790588379,0.09644133597612381,0.5918718576431274,-0.5553265810012817,-10.002476692199707
1745667696.0417905,-0.12839211523532867,0.04442067816853523,0.10240361839532852,0.38769492506980896,-0.14916878938674927,-10.008934020996094
1745667696.043555,-0.12187977880239487,0.05087851732969284,0.10234898328781128,0.44764161109924316,-0.11355557292699814,-9.587465286254883
1745667696.0450358,-0.12291965633630753,0.047055505216121674,0.10274893045425415,0.1730726957321167,0.07719125598669052,-9.598246574401855
1745667696.04649,-0.115836963057518,0.053384117782115936,0.09957802295684814,0.1799136847257614,-0.14673927426338196,-9.813672065734863
1745667696.0843391,-0.118011474609375,0.05006913095712662,0.1048646941781044,0.4464934766292572,-0.15773937106132507,-9.803717613220215
1745667696.0867183,-0.13584785163402557,0.0415610745549202,0.19463671743869781,0.3680567145347595,0.21705858409404755,-9.981913566589355
1745667696.0904214,-0.13230149447917938,0.04304344579577446,0.19545824825763702,0.44555625319480896,0.07599256932735443,-9.520040512084961
1745667696.090525,-0.1334143877029419,0.03271302953362465,0.19652459025382996,0.5239809155464172,0.046157512813806534,-9.45372200012207
1745667696.127048,-0.13371819257736206,0.041398607194423676,0.20035116374492645,0.39814913272857666,-0.02617243304848671,-9.94983959197998
1745667696.134329,-0.1405777484178543,0.035258062183856964,0.2048271894454956,0.6569141745567322,-0.1452191025018692,-9.847755432128906
1745667696.134402,-0.13711020350456238,0.03600061684846878,0.20456309616565704,0.47061634063720703,0.11011940240859985,-9.530828475952148
1745667696.1344538,-0.14715512096881866,0.03070388361811638,0.20970340073108673,0.5392093658447266,-0.09198100864887238,-9.634922981262207
1745667696.1684382,-0.14579294621944427,0.023121191188693047,0.21291732788085938,0.45833325386047363,0.14753760397434235,-9.83449649810791
1745667696.173193,-0.14401350915431976,0.03422003984451294,0.21223798394203186,0.44776439666748047,0.05276024341583252,-9.822549819946289
1745667696.1779215,-0.14758750796318054,0.029764199629426003,0.2163863182067871,0.3782432973384857,0.17494967579841614,-9.53070068359375
1745667696.1842983,-0.14082303643226624,0.025157039985060692,0.21567277610301971,0.3317856192588806,0.17488256096839905,-9.535494804382324
1745667696.1889803,-0.14780572056770325,0.02373598888516426,0.21819929778575897,0.6519623398780823,0.04030074551701546,-9.759053230285645
1745667696.2128153,-0.13570517301559448,0.023300401866436005,0.2224990874528885,0.40743860602378845,0.2710123360157013,-9.912980079650879
1745667696.2145207,-0.14324644207954407,0.019207704812288284,0.22003598511219025,0.5535019040107727,0.06197167560458183,-9.765650749206543
1745667696.2159586,-0.13336026668548584,0.01776263490319252,0.22425046563148499,0.4930321276187897,0.154370978474617,-9.575837135314941
1745667696.2174764,-0.1384280025959015,0.022622158750891685,0.22714176774024963,0.4996962547302246,0.18502870202064514,-9.631587028503418
1745667696.2639492,-0.14317664504051208,0.00816204771399498,0.23008501529693604,0.49953383207321167,0.04156835377216339,-9.83769416809082
1745667696.2668886,-0.12960845232009888,0.019850140437483788,0.23080074787139893,0.41421547532081604,0.2547397315502167,-9.83697509765625
1745667696.2689683,-0.14833495020866394,0.012537213973701,0.23131847381591797,0.5400714874267578,0.17130951583385468,-9.619650840759277
1745667696.2720602,-0.13198789954185486,0.007545500062406063,0.23441219329833984,0.3560652434825897,0.26604849100112915,-9.666244506835938
1745667696.2997952,-0.1275571584701538,-0.00320316175930202,0.25903066992759705,0.3625989556312561,0.29827338457107544,-9.733846664428711
1745667696.3036625,-0.13857142627239227,-0.011298206634819508,0.2597234845161438,0.6155295968055725,0.29270777106285095,-9.839540481567383
1745667696.3077,-0.12683071196079254,-0.006902693305164576,0.2614012062549591,0.3346869647502899,0.40013766288757324,-9.916728973388672
1745667696.311303,-0.12195925414562225,-0.007626518607139587,0.26051169633865356,0.5124863982200623,0.31191831827163696,-9.688322067260742
1745667696.3429945,-0.14159445464611053,-0.015644902363419533,0.26141810417175293,0.35674798488616943,0.25594907999038696,-9.650949478149414
1745667696.3431304,-0.11834303289651871,-0.009036948904395103,0.2632867991924286,0.5227394700050354,0.2563134431838989,-9.700119018554688
1745667696.3447194,-0.15333937108516693,-0.015505410730838776,0.26493096351623535,0.41205281019210815,0.22446179389953613,-9.97834300994873
1745667696.3483229,-0.1349153071641922,-0.011097910813987255,0.2658291459083557,0.4226362705230713,0.2460642158985138,-9.823813438415527
1745667696.3502011,-0.14661741256713867,-0.016528870910406113,0.26829981803894043,0.6216355562210083,0.2957695424556732,-9.542230606079102
1745667696.3853881,-0.14369690418243408,-0.015346759930253029,0.2707236409187317,0.29499658942222595,0.3678737282752991,-9.854660987854004
1745667696.387645,-0.13279837369918823,-0.018252840265631676,0.27289339900016785,0.5553052425384521,0.27974170446395874,-9.898209571838379
1745667696.391544,-0.1485491693019867,-0.01414867490530014,0.27435606718063354,0.36089637875556946,0.4418010711669922,-9.757729530334473
1745667696.3976471,-0.1221206784248352,-0.0138207096606493,0.27490735054016113,0.4575008451938629,0.43110141158103943,-9.614047050476074
1745667696.4268363,-0.14166167378425598,-0.026237735524773598,0.2758644223213196,0.4014120101928711,0.4872736930847168,-9.886220932006836
1745667696.4290664,-0.1238803043961525,-0.015559479594230652,0.27515166997909546,0.3858466148376465,0.4070495665073395,-10.013662338256836
1745667696.4325354,-0.12934662401676178,-0.022015251219272614,0.30268022418022156,0.38535618782043457,0.4247971177101135,-9.710458755493164
1745667696.4340258,-0.13066963851451874,-0.03649581968784332,0.30420631170272827,0.39419320225715637,0.6124286651611328,-9.59762191772461
1745667696.4710925,-0.12942174077033997,-0.020844850689172745,0.3047606945037842,0.41657036542892456,0.5966079831123352,-9.928692817687988
1745667696.473362,-0.1256529539823532,-0.03201953321695328,0.30471402406692505,0.46121400594711304,0.5611374378204346,-9.978270530700684
1745667696.4751372,-0.12597043812274933,-0.024828068912029266,0.30421867966651917,0.25273028016090393,0.7458727955818176,-9.776128768920898
1745667696.4773345,-0.12276095151901245,-0.029595080763101578,0.3051326870918274,0.546751856803894,0.383078396320343,-9.635331153869629
1745667696.5138094,-0.12684258818626404,-0.02603544294834137,0.3049713373184204,0.3112972378730774,0.8089644312858582,-9.795653343200684
1745667696.5181704,-0.1298428773880005,-0.02759486436843872,0.30572283267974854,0.43307048082351685,0.3756975531578064,-9.995824813842773
1745667696.5214658,-0.12262739986181259,-0.027888154610991478,0.30702510476112366,0.4129425585269928,0.6349087953567505,-9.708150863647461
1745667696.5250995,-0.13173945248126984,-0.019626017659902573,0.3090859055519104,0.39457982778549194,0.6721423864364624,-9.650285720825195
1745667696.5281165,-0.13242363929748535,-0.036560118198394775,0.3095993399620056,0.456981897354126,0.434490829706192,-9.841841697692871
1745667696.5570214,-0.12335339933633804,-0.02159622684121132,0.3106088638305664,0.3215053677558899,0.7823786735534668,-9.884576797485352
1745667696.5597084,-0.1304081529378891,-0.020161882042884827,0.31062746047973633,0.5049189329147339,0.47384029626846313,-9.819597244262695
1745667696.561548,-0.12147772312164307,-0.029100541025400162,0.3119560480117798,0.31040993332862854,0.9094551205635071,-9.632526397705078
1745667696.5624452,-0.12494520843029022,-0.0278921015560627,0.3123112618923187,0.49313288927078247,0.542984664440155,-9.898046493530273
1745667696.5979872,-0.11556830257177353,-0.024193445220589638,0.31305092573165894,0.34422022104263306,0.6755986213684082,-9.956843376159668
1745667696.60004,-0.125043123960495,-0.01713370345532894,0.3096556067466736,0.3433418869972229,0.7033829689025879,-9.671638488769531
1745667696.602492,-0.12344320118427277,-0.035711731761693954,0.31338027119636536,0.5294046998023987,0.45576897263526917,-9.563942909240723
1745667696.6038868,-0.11715775728225708,-0.018992042168974876,0.31277182698249817,0.37875649333000183,0.8793250322341919,-9.973339080810547
1745667696.6055,-0.13094891607761383,-0.02734939195215702,0.3144899010658264,0.47082677483558655,0.48179325461387634,-10.149358749389648
