timestamp,angular_vel_x,angular_vel_y,angular_vel_z,linear_acc_x,linear_acc_y,linear_acc_z
1745666602.0302453,-0.1004364937543869,-0.015154066495597363,0.35933488607406616,0.8995761871337891,-0.04882093518972397,-9.76014518737793
1745666602.0302927,-0.11837774515151978,-0.027839457616209984,0.3613251745700836,0.8161084055900574,0.12369148433208466,-9.907389640808105
1745666602.0303483,-0.12259455025196075,-0.020315418019890785,0.36326518654823303,0.9100534319877625,-0.059782929718494415,-9.828104019165039
1745666602.0405755,-0.12588882446289062,-0.030921394005417824,0.36507901549339294,0.9835769534111023,0.06595643609762192,-9.649027824401855
1745666602.0610888,-0.1631045639514923,-0.07147848606109619,0.4301382899284363,0.7294840812683105,0.4215543866157532,-9.680462837219238
1745666602.0626397,-0.17346087098121643,-0.06688492000102997,0.4287657141685486,0.5115268230438232,0.3318950831890106,-9.791261672973633
1745666602.0655098,-0.1630375236272812,-0.07592575252056122,0.43156352639198303,0.8233035206794739,0.32906073331832886,-9.702253341674805
1745666602.0747044,-0.17908631265163422,-0.06718425452709198,0.43108782172203064,0.5535194873809814,0.5215591788291931,-9.878236770629883
1745666602.1076705,-0.16916553676128387,-0.07070109993219376,0.4310878813266754,0.7482916116714478,0.22517649829387665,-9.88818073272705
1745666602.1077707,-0.1696670800447464,-0.07684288173913956,0.4379154145717621,0.7030854225158691,0.5744144320487976,-9.62999153137207
1745666602.1078308,-0.16453002393245697,-0.061262357980012894,0.4372519850730896,0.6778351068496704,0.34894677996635437,-9.765785217285156
1745666602.109747,-0.1613810956478119,-0.07561872899532318,0.4368644654750824,0.7329925298690796,0.4643847346305847,-9.870244979858398
1745666602.111395,-0.16167041659355164,-0.06673435866832733,0.44132596254348755,0.5718067288398743,0.5205342173576355,-9.799599647521973
1745666602.14966,-0.1509891152381897,-0.06873194128274918,0.4394070506095886,0.7864831686019897,0.48506149649620056,-9.620305061340332
1745666602.153191,-0.16914798319339752,-0.06908906996250153,0.4399847388267517,0.4437978267669678,0.578669548034668,-9.865377426147461
1745666602.154414,-0.15379193425178528,-0.06608644127845764,0.43944796919822693,0.7191063165664673,0.34557390213012695,-9.791908264160156
1745666602.159581,-0.16601574420928955,-0.06688517332077026,0.4400177597999573,0.622834324836731,0.7292425632476807,-9.60811996459961
1745666602.189143,-0.1679244041442871,-0.061033058911561966,0.4392850399017334,0.5834104418754578,0.29676851630210876,-9.81564712524414
1745666602.1915245,-0.15640459954738617,-0.06906758248806,0.44124507904052734,0.7750360369682312,0.5706815123558044,-9.747638702392578
1745666602.1927817,-0.17093391716480255,-0.05486796423792839,0.4420190751552582,0.508334219455719,0.48058995604515076,-9.846975326538086
1745666602.1942337,-0.15369102358818054,-0.061399418860673904,0.44551247358322144,0.706211507320404,0.41431841254234314,-9.666046142578125
1745666602.1942782,-0.16026321053504944,-0.06099369004368782,0.4477013945579529,0.4872283935546875,0.6826744675636292,-9.669815063476562
1745666602.230942,-0.1470302790403366,-0.05244266986846924,0.44584208726882935,0.6584383845329285,0.4546973705291748,-9.855974197387695
1745666602.2334938,-0.15423178672790527,-0.05795343592762947,0.4478550851345062,0.5738571882247925,0.8252070546150208,-9.829687118530273
1745666602.2364523,-0.14455190300941467,-0.05412549898028374,0.4449607729911804,0.5602222681045532,0.43200892210006714,-9.819032669067383
1745666602.2402258,-0.14296354353427887,-0.058428794145584106,0.4453778862953186,0.7039521932601929,0.6393033266067505,-9.638431549072266
1745666602.275981,-0.15162520110607147,-0.05795552209019661,0.4507056176662445,0.6132098436355591,0.7668612003326416,-9.73897647857666
1745666602.2784507,-0.15069565176963806,-0.04262080788612366,0.44975510239601135,0.5253579616546631,0.7431619763374329,-9.727361679077148
1745666602.2806168,-0.13672278821468353,-0.0476042702794075,0.45106297731399536,0.5681115984916687,0.6510828733444214,-9.716710090637207
1745666602.2844684,-0.13709352910518646,-0.04607463255524635,0.4528800845146179,0.42637091875076294,0.868175208568573,-9.686599731445312
1745666602.3181794,-0.1200980544090271,-0.04437922686338425,0.4510723948478699,0.6888135671615601,0.6055377125740051,-9.724514961242676
1745666602.3199604,-0.1287941038608551,-0.04044657200574875,0.4513954222202301,0.4454434812068939,0.8781471252441406,-9.911340713500977
1745666602.3218315,-0.12379568815231323,-0.03880580514669418,0.44866839051246643,0.6236264705657959,0.46016615629196167,-9.808809280395508
1745666602.3244898,-0.12145237624645233,-0.04266805201768875,0.4504268169403076,0.6738110780715942,0.6708608269691467,-9.490679740905762
1745666602.3595226,-0.13719981908798218,-0.0340721495449543,0.4501555562019348,0.48871612548828125,0.6056321263313293,-9.81372356414795
1745666602.3663,-0.13521194458007812,-0.04107361286878586,0.450054794549942,0.7156499028205872,0.41775423288345337,-9.982636451721191
1745666602.3700292,-0.1373661309480667,-0.02757798135280609,0.4517454504966736,0.48041003942489624,0.8492633700370789,-9.734488487243652
1745666602.377859,-0.13752374053001404,-0.03240886330604553,0.453585684299469,0.6029852628707886,0.544198215007782,-9.554708480834961
1745666602.3818464,-0.1328783482313156,-0.04086688160896301,0.4542471766471863,0.46960097551345825,0.8836929202079773,-9.698132514953613
1745666602.405189,-0.06834942102432251,-0.004162688739597797,0.4471687376499176,0.6635040044784546,0.657002329826355,-9.72301959991455
1745666602.4082427,-0.05560676008462906,-0.005721256136894226,0.44430679082870483,0.45515164732933044,1.1251935958862305,-9.69776439666748
1745666602.4113514,-0.05536316707730293,-0.013749442994594574,0.44464677572250366,0.6422083377838135,0.7772195339202881,-9.777104377746582
1745666602.4149415,-0.04421200230717659,-0.008879643864929676,0.4437731206417084,0.5488311648368835,0.9623093605041504,-9.778573989868164
1745666602.4546578,-0.05002341419458389,0.001816703355871141,0.44176730513572693,0.5245558023452759,0.9751556515693665,-9.734373092651367
1745666602.4547288,-0.0475732758641243,-0.016580456867814064,0.44190770387649536,0.6472471952438354,0.651562511920929,-9.606194496154785
1745666602.4547763,-0.03993893414735794,-0.00790472887456417,0.44041115045547485,0.5323574542999268,0.975704550743103,-9.698750495910645
1745666602.4559746,-0.05926116555929184,-0.007972801104187965,0.4415283203125,0.6320968270301819,0.5932992100715637,-9.960302352905273
1745666602.4889884,-0.04515267536044121,-0.012079063802957535,0.4417310357093811,0.5011075735092163,0.9270457029342651,-9.706243515014648
1745666602.4909527,-0.04649173840880394,-0.0037909068632870913,0.44419246912002563,0.7079252004623413,0.7704460024833679,-9.512897491455078
1745666602.4927995,-0.05122299864888191,-0.013479595072567463,0.4430978298187256,0.5044749975204468,0.8579322099685669,-9.803567886352539
1745666602.494647,-0.043911244720220566,-0.007205824367702007,0.4420706331729889,0.602472186088562,0.9214075207710266,-9.854843139648438
1745666602.4964037,-0.04082570597529411,-0.01435905136168003,0.44142141938209534,0.6168336868286133,0.8253065943717957,-9.702611923217773
1745666602.5343864,-0.033781491219997406,-0.0023834307212382555,0.4423247277736664,0.4404459595680237,1.084918737411499,-9.624070167541504
1745666602.5364313,-0.050408732146024704,-0.013882165774703026,0.44186025857925415,0.6480718851089478,0.5845112204551697,-9.747197151184082
1745666602.547494,-0.028145652264356613,-0.010867653414607048,0.4404551088809967,0.5371896624565125,1.0719926357269287,-9.677494049072266
1745666602.5475883,-0.046913161873817444,-0.004692888353019953,0.43954429030418396,0.5906903743743896,0.8414341807365417,-9.80400276184082
1745666602.577638,-0.037869177758693695,-0.01693730615079403,0.43880993127822876,0.5032731294631958,0.7962513566017151,-9.771143913269043
1745666602.5794063,-0.026820173487067223,-0.003851101268082857,0.4407733082771301,0.6756980419158936,0.9645599126815796,-9.53974723815918
1745666602.580488,-0.04628901928663254,-0.010141458362340927,0.4394788146018982,0.5841687917709351,0.7028418779373169,-9.797548294067383
1745666602.5839984,-0.023154180496931076,-0.011737948283553123,0.44066327810287476,0.45917338132858276,1.0013319253921509,-9.777976989746094
1745666602.6203005,-0.04096324369311333,-0.009198522195219994,0.44104114174842834,0.7343364953994751,0.6878932118415833,-9.629777908325195
1745666602.622818,-0.011943288147449493,-0.014015816152095795,0.4372914731502533,0.5983299612998962,1.0278222560882568,-9.739343643188477
1745666602.6250765,-0.037244439125061035,-0.010466624982655048,0.4360876977443695,0.6533985733985901,0.7722959518432617,-9.736690521240234
1745666602.6273613,-0.023711927235126495,-0.0182011891156435,0.4372870922088623,0.44378596544265747,0.9287204742431641,-9.701062202453613
1745666602.6634395,-0.015024146065115929,-0.015581488609313965,0.43835124373435974,0.7463548183441162,0.8754750490188599,-9.58071517944336
1745666602.6772857,-0.024035364389419556,-0.015207392163574696,0.43669700622558594,0.5061289072036743,0.9011052846908569,-9.86887264251709
1745666602.6817153,-0.012786979787051678,-0.01238598208874464,0.43601280450820923,0.5631928443908691,1.0435802936553955,-9.771982192993164
1745666602.6848457,-0.02422158792614937,-0.02697848342359066,0.4320315718650818,0.6166292428970337,0.7339504361152649,-9.666942596435547
1745666602.686931,-0.0026882090605795383,-0.012086641974747181,0.4341362416744232,0.4753209948539734,1.0245131254196167,-9.673428535461426
1745666602.7122796,-0.03159086033701897,-0.015950655564665794,0.4329361319541931,0.6022058129310608,0.6844724416732788,-9.757040023803711
1745666602.7123845,-0.013223953545093536,-0.02324211224913597,0.4305727481842041,0.5009933710098267,0.8593297004699707,-9.634933471679688
1745666602.712487,-0.020449114963412285,-0.012502023950219154,0.43233156204223633,0.7445744872093201,0.9135659337043762,-9.644540786743164
1745666602.7136192,-0.033525459468364716,-0.02571972645819187,0.4315134882926941,0.5063714385032654,0.7966991066932678,-10.014518737792969
1745666602.7508507,-0.0038332983385771513,-0.019314125180244446,0.4317246377468109,0.6340552568435669,0.9805711507797241,-9.693314552307129
1745666602.752514,-0.025920027866959572,-0.01941075548529625,0.4317944049835205,0.5905762910842896,0.836696445941925,-9.556108474731445
1745666602.7538226,-0.004512116778641939,-0.0295330248773098,0.4156227111816406,0.4085189700126648,0.9669289588928223,-9.80739688873291
1745666602.755841,0.014158599078655243,-0.03293532878160477,0.4152611196041107,0.5670729875564575,0.8024904131889343,-9.8775634765625
1745666602.7914503,-0.0018157928716391325,-0.03547259792685509,0.41492241621017456,0.5113556981086731,0.8918588757514954,-9.616851806640625
1745666602.7931893,0.02196190506219864,-0.02930859662592411,0.4142061173915863,0.5661371350288391,0.8809205889701843,-9.624914169311523
1745666602.7954159,-0.0008039761451072991,-0.036066651344299316,0.41137179732322693,0.5448220372200012,0.8520814776420593,-9.891342163085938
1745666602.7977142,0.010940934531390667,-0.032398756593465805,0.4131220281124115,0.412496954202652,0.770401656627655,-9.87191390991211
1745666602.8001163,0.013438221998512745,-0.03187447041273117,0.4131823182106018,0.690824568271637,0.8228800892829895,-9.456062316894531
1745666602.8346522,-0.010428790003061295,-0.03304102271795273,0.41028672456741333,0.3479234576225281,0.8475135564804077,-9.752718925476074
1745666602.8366096,0.018171006813645363,-0.03709930181503296,0.4122549891471863,0.6917927265167236,0.7496626973152161,-9.905146598815918
1745666602.8391924,-0.00394063675776124,-0.03149465471506119,0.4118730425834656,0.5092611908912659,0.9302407503128052,-9.80453109741211
1745666602.8417795,0.010352353565394878,-0.028128469362854958,0.4131500720977783,0.43798837065696716,0.8135193586349487,-9.642205238342285
1745666602.8857396,0.004049686715006828,-0.04346790909767151,0.4139195382595062,0.6135050058364868,0.795927882194519,-9.571185111999512
1745666602.8864377,0.008553232066333294,-0.02755533531308174,0.4104804992675781,0.4586420953273773,0.9001946449279785,-9.878899574279785
1745666602.8900023,0.013249089941382408,-0.031127264723181725,0.41180723905563354,0.6128774881362915,0.8417341113090515,-9.790863990783691
1745666602.8944144,0.004031309857964516,-0.035476505756378174,0.4110681116580963,0.32900989055633545,0.9172565340995789,-9.68256950378418
1745666602.9193518,0.02544419839978218,-0.03272433578968048,0.4095427393913269,0.6622561812400818,0.7539781928062439,-9.64006519317627
1745666602.921722,-0.0045164949260652065,-0.03252584859728813,0.40725359320640564,0.46628230810165405,0.8638724088668823,-9.832056045532227
1745666602.9246688,0.012585108168423176,-0.03278611972928047,0.4100421965122223,0.49049121141433716,0.644456148147583,-9.841642379760742
1745666602.928251,0.007702173199504614,-0.036648642271757126,0.40797877311706543,0.6438415050506592,0.82166987657547,-9.58935546875
1745666602.9294126,-0.005180270876735449,-0.026050299406051636,0.4078904092311859,0.33796507120132446,0.7983452081680298,-9.791887283325195
1745666602.964664,0.006308889947831631,-0.038895588368177414,0.4092397093772888,0.6569501161575317,0.6603966951370239,-9.7366361618042
1745666602.9692817,-0.0034041006583720446,-0.030525928363204002,0.4081266522407532,0.42570391297340393,0.9594729542732239,-9.711217880249023
1745666602.971663,0.015977725386619568,-0.03702109307050705,0.402194082736969,0.7045965790748596,0.7053414583206177,-9.647040367126465
1745666602.9760087,-0.0036424051504582167,-0.028985053300857544,0.40413063764572144,0.3978787958621979,0.9771644473075867,-9.78812026977539
1745666603.005474,0.003760798368602991,-0.03122461400926113,0.4030609726905823,0.6057864427566528,0.6118319034576416,-9.867561340332031
1745666603.0091543,0.001242903177626431,-0.03662413731217384,0.4036750793457031,0.5579643249511719,0.8728941082954407,-9.660199165344238
1745666603.0106695,0.0017618865240365267,-0.02536827325820923,0.40284985303878784,0.477985143661499,0.8365333676338196,-9.71334457397461
1745666603.0148382,-6.642956577707082e-05,-0.0373397171497345,0.4030476212501526,0.5176489949226379,0.7481314539909363,-9.738541603088379
1745666603.0166159,0.0018134638667106628,-0.02917507290840149,0.4024648070335388,0.41428476572036743,0.9224203824996948,-9.717582702636719
1745666603.049992,0.009898307733237743,-0.033598609268665314,0.40071767568588257,0.6447380185127258,0.7901526689529419,-9.7467679977417
1745666603.052636,0.0004655107914004475,-0.029962461441755295,0.3993412256240845,0.33596271276474,0.9946426153182983,-9.812548637390137
1745666603.0564294,0.014589952304959297,-0.03254365921020508,0.399549663066864,0.5884058475494385,0.660869300365448,-9.695320129394531
1745666603.0602129,0.008991534821689129,-0.03405186906456947,0.39947929978370667,0.525192141532898,0.956647515296936,-9.635396957397461
1745666603.0916474,0.006406890694051981,-0.029257437214255333,0.3993813097476959,0.43687018752098083,0.7382699251174927,-9.885817527770996
1745666603.0944576,0.012513944879174232,-0.03753260523080826,0.400146484375,0.6149641275405884,0.7345865964889526,-9.764063835144043
1745666603.0962722,0.005175426136702299,-0.024912526831030846,0.39766615629196167,0.42641329765319824,0.9366839528083801,-9.671937942504883
1745666603.0988386,0.0013844994828104973,-0.030516022816300392,0.3913532793521881,0.3767614960670471,0.7142072916030884,-9.76278305053711
1745666603.1377578,0.01835157535970211,-0.0249341893941164,0.39149367809295654,0.4718693792819977,0.8274649381637573,-9.55945110321045
1745666603.1405122,-0.003631322178989649,-0.029532333835959435,0.3930785655975342,0.538975179195404,0.6031469702720642,-9.818239212036133
1745666603.1427894,0.013758460059762001,-0.01921323873102665,0.3924221694469452,0.3825441300868988,0.9842798113822937,-9.858262062072754
1745666603.1437867,-0.0015509069198742509,-0.030864525586366653,0.3893272876739502,0.5373319387435913,0.5916180610656738,-9.768587112426758
1745666603.1803687,0.014355230145156384,-0.02872738614678383,0.3903256952762604,0.37568777799606323,0.8847297430038452,-9.645105361938477
1745666603.1813626,-0.0018027725163847208,-0.018128151074051857,0.39076852798461914,0.5336954593658447,0.7246519923210144,-9.73271656036377
1745666603.185336,-0.0027360008098185062,-0.03284153714776039,0.38965100049972534,0.41407543420791626,0.6103556752204895,-9.841354370117188
1745666603.1867838,0.012157754972577095,-0.01946970447897911,0.3907109200954437,0.5410019159317017,0.8925096392631531,-9.687111854553223
1745666603.1902628,-0.012933099642395973,-0.027717873454093933,0.3900398313999176,0.46733036637306213,0.6342417001724243,-9.79908561706543
1745666603.2227085,0.008274098858237267,-0.02620038390159607,0.3911765217781067,0.38718903064727783,0.8927543759346008,-9.747708320617676
1745666603.2238474,-0.00042142317397519946,-0.024710986763238907,0.3904716372489929,0.5989640951156616,0.7067475318908691,-9.667535781860352
1745666603.2263272,0.0053917719051241875,-0.018213417381048203,0.39170733094215393,0.3004005253314972,0.8710075616836548,-9.796716690063477
1745666603.2271783,0.008223259821534157,-0.02501070126891136,0.3928014636039734,0.567471444606781,0.7936056852340698,-9.709683418273926
1745666603.2637918,0.006365235894918442,-0.029020681977272034,0.39005476236343384,0.43154090642929077,0.7691332101821899,-9.829391479492188
1745666603.2655818,0.022937947884202003,-0.015606129541993141,0.39015036821365356,0.4455428123474121,0.8483184576034546,-9.76091480255127
1745666603.2693539,-0.009344397112727165,-0.0234295055270195,0.3892851173877716,0.4339364171028137,0.5309694409370422,-9.698427200317383
1745666603.2706044,0.0191032811999321,-0.025450795888900757,0.38946303725242615,0.4681158661842346,0.7985782623291016,-9.597626686096191
1745666603.2720454,-0.010884533636271954,-0.020969852805137634,0.3899739384651184,0.5934745073318481,0.6552576422691345,-9.864309310913086
1745666603.3102975,-0.004527459852397442,-0.022576382383704185,0.3908785879611969,0.2971465587615967,0.712002158164978,-10.032580375671387
1745666603.3117137,0.006239218637347221,-0.019730770960450172,0.39205852150917053,0.5957666635513306,0.7088890671730042,-9.511892318725586
1745666603.3144076,-0.015802130103111267,-0.020983627066016197,0.39144057035446167,0.40643492341041565,0.7722243070602417,-9.602399826049805
1745666603.3162835,0.011721298098564148,-0.013937125913798809,0.3895823657512665,0.6234904527664185,0.7965685129165649,-9.621776580810547
1745666603.356833,-0.019626708701252937,-0.020732132717967033,0.38993164896965027,0.31841081380844116,0.6393178701400757,-9.75913143157959
1745666603.3601258,0.012885048985481262,-0.023233989253640175,0.39148175716400146,0.5252269506454468,0.7375712990760803,-9.76304817199707
1745666603.363221,-0.013265540823340416,-0.018758565187454224,0.39189234375953674,0.5544309616088867,0.7502568364143372,-9.806477546691895
1745666603.3660975,-0.0022943902295082808,-0.01571674644947052,0.39002400636672974,0.2935599684715271,0.8022938966751099,-9.806282043457031
1745666603.3933141,-0.002034845296293497,-0.0257932897657156,0.3917481005191803,0.5803958177566528,0.700165867805481,-9.557815551757812
1745666603.3954027,-0.006869148463010788,-0.015102645382285118,0.3902657628059387,0.33198490738868713,0.8228775262832642,-9.76761245727539
1745666603.3962698,0.005323342978954315,-0.01723921298980713,0.38978272676467896,0.5389102697372437,0.7445814609527588,-9.817561149597168
1745666603.410046,-0.01374148577451706,-0.02318505570292473,0.38953742384910583,0.3383523225784302,0.7855443954467773,-9.829275131225586
1745666603.4389617,0.01419848669320345,-0.013993424363434315,0.39039549231529236,0.5307422876358032,0.7572405338287354,-9.68958854675293
1745666603.440454,-0.016016192734241486,-0.019827429205179214,0.3888755142688751,0.4792771339416504,0.7692841291427612,-9.747554779052734
1745666603.444595,-0.0005870357272215188,-0.020106161013245583,0.38914331793785095,0.38313060998916626,0.6808488965034485,-9.817052841186523
1745666603.4473126,-0.0010333128739148378,-0.017790645360946655,0.388021856546402,0.661943793296814,0.7180427312850952,-9.68229866027832
1745666603.4814367,-0.007417936809360981,-0.026080116629600525,0.3751331865787506,0.43642526865005493,0.597304105758667,-10.120019912719727
1745666603.4863818,0.007340680807828903,-0.03507210686802864,0.37488362193107605,0.4505307674407959,0.8920825123786926,-9.676226615905762
1745666603.4884524,0.003644342767074704,-0.024305615574121475,0.37765416502952576,0.34437352418899536,0.7762972116470337,-9.508562088012695
1745666603.5002658,0.006406264845281839,-0.04119426757097244,0.3757189214229584,0.4919905662536621,0.653107225894928,-9.727819442749023
1745666603.5003242,-0.0013767180498689413,-0.0282136257737875,0.3741540312767029,0.3332098126411438,0.7958332896232605,-9.962400436401367
1745666603.5241115,0.015272296965122223,-0.033863674849271774,0.37289685010910034,0.5584856867790222,0.736319899559021,-9.708828926086426
1745666603.5260224,-0.00851356890052557,-0.03322123736143112,0.3689066469669342,0.17446458339691162,0.8978180885314941,-9.719884872436523
1745666603.5276961,0.015634264796972275,-0.03801780566573143,0.36575236916542053,0.429175466299057,0.4755931794643402,-9.74341106414795
1745666603.530976,-0.010970679111778736,-0.034119755029678345,0.3648241460323334,0.3418380618095398,0.8400132060050964,-9.730545997619629
1745666603.572384,-0.0020606983453035355,-0.03572280332446098,0.3643067181110382,0.2382843941450119,0.4448966383934021,-9.910276412963867
1745666603.5724814,-0.00045549561036750674,-0.04085260257124901,0.36585864424705505,0.4187455177307129,0.6640002727508545,-9.605117797851562
1745666603.5725358,-0.015382200479507446,-0.03142177313566208,0.36416351795196533,0.24397365748882294,0.6417440176010132,-9.755642890930176
1745666603.5726025,0.00115220807492733,-0.03917150944471359,0.36629918217658997,0.5651286244392395,0.5913398265838623,-9.76269817352295
1745666603.5730267,-0.01648712158203125,-0.03795156255364418,0.3630867302417755,0.23504844307899475,0.8418172001838684,-9.94922161102295
1745666603.6090813,0.00011993609223281965,-0.03978851065039635,0.3624744415283203,0.42642441391944885,0.5659205913543701,-9.709980964660645
1745666603.6116238,-0.01577630266547203,-0.03344377875328064,0.36320269107818604,0.3028664290904999,0.7785982489585876,-9.554699897766113
1745666603.6144028,-0.007285439874976873,-0.03907487541437149,0.3618476390838623,0.4201176166534424,0.7759624719619751,-9.75454330444336
1745666603.6163974,-0.017422795295715332,-0.047397810965776443,0.35717764496803284,0.4536864757537842,0.7432172894477844,-9.96601676940918
1745666603.6525967,0.0027182004414498806,-0.03342938795685768,0.3566530644893646,0.2928306460380554,0.9192733764648438,-9.839006423950195
1745666603.6553183,-0.010238802060484886,-0.03478405624628067,0.3568740487098694,0.46887874603271484,0.7561261057853699,-9.521499633789062
1745666603.6578126,0.0006867093034088612,-0.04898723587393761,0.3549666404724121,0.3112839460372925,0.8103650808334351,-9.681866645812988
1745666603.6651783,0.010478654876351357,-0.04005428031086922,0.3556329607963562,0.5042538642883301,0.7458047270774841,-9.938955307006836
1745666603.695518,0.010005520656704903,-0.03739200159907341,0.3519170880317688,0.3535071015357971,0.5714790225028992,-9.916753768920898
1745666603.6983914,8.177365816663951e-05,-0.03821985423564911,0.3488295376300812,0.27525418996810913,0.665023922920227,-9.417203903198242
1745666603.7001615,0.007106332574039698,-0.040031082928180695,0.35039234161376953,0.5920118093490601,0.4483564794063568,-9.57726764678955
1745666603.7035463,-0.023074021562933922,-0.03712499141693115,0.34889402985572815,0.23625636100769043,0.7075132131576538,-10.165375709533691
1745666603.7373247,-0.005492339376360178,-0.035507526248693466,0.3493662178516388,0.37460312247276306,0.45934581756591797,-9.93409538269043
1745666603.7404127,-0.013762803748250008,-0.03887306898832321,0.35053256154060364,0.47101420164108276,0.8841935396194458,-9.270225524902344
1745666603.7422972,-0.016302816569805145,-0.03524208068847656,0.3475223779678345,0.2513051927089691,0.7213844060897827,-9.813115119934082
1745666603.7436116,0.0006400225684046745,-0.04342219606041908,0.3477163314819336,0.42761707305908203,0.7800994515419006,-10.070611000061035
1745666603.7830594,-0.004315488040447235,-0.027248084545135498,0.3462669253349304,0.2222534865140915,0.9477343559265137,-9.772298812866211
1745666603.7863948,0.01777319237589836,-0.035541832447052,0.34660011529922485,0.42251473665237427,0.736952006816864,-9.382832527160645
1745666603.7864718,0.002987691666930914,-0.04349161311984062,0.34485286474227905,0.21340015530586243,0.923688530921936,-9.81836223602295
1745666603.7913496,0.029913341626524925,-0.037915151566267014,0.3434177339076996,0.3946841359138489,0.785322904586792,-10.094206809997559
1745666603.7955613,0.018078956753015518,-0.027413491159677505,0.3393201529979706,0.18059909343719482,0.8463121652603149,-9.74510383605957
1745666603.8305123,0.03270803764462471,-0.026863789185881615,0.26643192768096924,0.2345893830060959,0.5538029074668884,-10.279788970947266
1745666603.8305688,0.035222653299570084,-0.02719229832291603,0.26333683729171753,0.1210884302854538,0.35716015100479126,-10.186923027038574
1745666603.8306088,0.04306045174598694,-0.015218058601021767,0.2636038362979889,0.31791752576828003,0.5764585733413696,-9.225878715515137
1745666603.8679097,0.002989446511492133,-0.033763252198696136,0.26145339012145996,0.1743558645248413,0.36581331491470337,-9.565476417541504
1745666603.872582,0.03265513479709625,-0.02840374782681465,0.26204660534858704,0.12864163517951965,0.6431143879890442,-10.206254959106445
1745666603.8763175,0.017498359084129333,-0.013906290754675865,0.2611723244190216,0.14471080899238586,0.6003659963607788,-9.97972297668457
1745666603.8808448,0.030955439433455467,-0.015870412811636925,0.2572806775569916,0.07541900873184204,0.9035204648971558,-9.308703422546387
1745666603.8838038,0.026821380481123924,-0.032541967928409576,0.25390368700027466,0.33406299352645874,0.6821691393852234,-9.527769088745117
1745666603.9111483,0.0431533083319664,-0.02348446659743786,0.2509371340274811,0.18420648574829102,0.8357788920402527,-10.32803726196289
1745666603.9152377,0.04615815728902817,-0.006574948783963919,0.24821750819683075,0.28288644552230835,0.7704298496246338,-10.03254508972168
1745666603.9189157,0.04633559659123421,-0.02971511520445347,0.2480722963809967,0.13400033116340637,0.4894612729549408,-9.296886444091797
1745666603.9221003,0.06107049062848091,-0.019244641065597534,0.24988150596618652,0.31301385164260864,0.7488856315612793,-9.397150039672852
1745666603.952636,0.0424579493701458,-0.023521646857261658,0.24689701199531555,0.29171425104141235,0.5285519361495972,-10.311460494995117
1745666603.9549203,0.06479079276323318,-0.011568262241780758,0.2456454336643219,0.0439009964466095,0.7807504534721375,-10.10138988494873
1745666603.957288,0.05748939514160156,-0.01734422706067562,0.2419041097164154,0.34710556268692017,0.6122896075248718,-9.280827522277832
1745666603.9586957,0.053458936512470245,-0.021991616114974022,0.23816868662834167,0.09745940566062927,0.6516019105911255,-9.633620262145996
1745666603.9610467,0.05725829675793648,-0.01663212850689888,0.23812039196491241,0.2514783442020416,0.3957182466983795,-10.226896286010742
1745666603.9983213,0.04901748150587082,-0.018784528598189354,0.23559746146202087,0.14700010418891907,0.55949467420578,-9.887442588806152
1745666603.9993339,0.0540519580245018,-0.008150470443069935,0.23488512635231018,0.15837368369102478,0.5327024459838867,-9.410003662109375
1745666604.002304,0.04078014940023422,-0.024564627557992935,0.23366184532642365,0.3377211093902588,0.4892209470272064,-9.601696014404297
1745666604.004503,0.05072511360049248,-0.014336002059280872,0.23323777318000793,0.08064213395118713,0.6705270409584045,-10.281155586242676
1745666604.0397754,0.05071588605642319,-0.013047778978943825,0.2273772954940796,0.2375674545764923,0.47072845697402954,-9.92046070098877
1745666604.0434248,0.05183759331703186,-0.009960005059838295,0.22721409797668457,0.07569430023431778,0.7003461718559265,-9.327906608581543
1745666604.0467641,0.07493779808282852,-0.00441009271889925,0.22174403071403503,0.23767578601837158,0.6894592046737671,-9.847628593444824
1745666604.0511565,0.04255801439285278,-0.012561348266899586,0.21954068541526794,0.18572863936424255,0.47116342186927795,-9.517951011657715
1745666604.0826461,0.06875424087047577,-0.0182318277657032,0.2198392152786255,0.20745031535625458,0.6429175138473511,-9.604592323303223
1745666604.0889559,0.057988978922367096,-0.011342022567987442,0.2158772498369217,0.34938615560531616,0.47556057572364807,-10.013525009155273
1745666604.0933266,0.05992913991212845,-0.007882226258516312,0.21582360565662384,0.05408374220132828,0.5856572985649109,-10.028715133666992
1745666604.0949655,0.0621989443898201,-0.015106302686035633,0.2136693000793457,0.29461491107940674,0.4669497609138489,-9.531709671020508
1745666604.0988314,0.06300440430641174,-0.016500437632203102,0.21428659558296204,0.1749320924282074,0.5785051584243774,-9.578452110290527
1745666604.126775,0.0623425729572773,-0.003716852515935898,0.21170563995838165,0.12589570879936218,0.6014828681945801,-10.029451370239258
1745666604.1279304,0.061095137149095535,-0.017685089260339737,0.2108226716518402,0.19331999123096466,0.3513965308666229,-9.901422500610352
1745666604.1300292,0.07165050506591797,-0.007440392859280109,0.20721499621868134,0.23722770810127258,0.7332357168197632,-9.445708274841309
1745666604.1339972,0.05189532786607742,-0.009269657544791698,0.2050221860408783,0.29751110076904297,0.3437454104423523,-9.791972160339355
1745666604.1682985,0.06162106990814209,-0.017660975456237793,0.20095527172088623,0.3135764002799988,0.6771653890609741,-10.005290031433105
1745666604.1728086,0.0711798444390297,-0.021580645814538002,0.19306182861328125,0.33216071128845215,0.7231308817863464,-9.949873924255371
1745666604.1757634,0.14371655881404877,0.012768475338816643,0.025135084986686707,0.42974528670310974,0.15058691799640656,-10.217752456665039
1745666604.1802871,0.1519908905029297,0.02420911006629467,0.020083516836166382,0.21135678887367249,0.5425578951835632,-9.913804054260254
1745666604.2109494,0.14323194324970245,0.020688265562057495,0.018714318051934242,0.4105614125728607,-0.036237794905900955,-9.407793998718262
1745666604.2134035,0.16131141781806946,0.011360837146639824,0.017147677019238472,0.27809083461761475,0.23604321479797363,-9.516886711120605
1745666604.2157423,0.1328156739473343,0.027308445423841476,0.014688750728964806,0.3356480002403259,0.022711778059601784,-10.082845687866211
1745666604.2180192,0.14688649773597717,0.022875310853123665,0.01157618872821331,0.29665321111679077,0.035771310329437256,-9.864274978637695
1745666604.2194173,0.13397642970085144,0.028390612453222275,0.006340512074530125,0.294562429189682,0.4740954339504242,-9.349810600280762
1745666604.2555323,0.13406506180763245,0.019194431602954865,-0.0003139288164675236,0.525056004524231,0.1363900601863861,-9.729266166687012
1745666604.2585473,0.1468971073627472,0.023553665727376938,-0.007423812057822943,0.26994389295578003,0.6378414630889893,-10.067667007446289
1745666604.2596447,0.14265704154968262,0.03056185506284237,-0.013127247802913189,0.5078879594802856,0.0462954007089138,-9.791333198547363
1745666604.261427,0.14475148916244507,0.023904817178845406,-0.014635766856372356,0.24980804324150085,0.2597540318965912,-9.437098503112793
1745666604.3058505,0.14748799800872803,0.025084787979722023,-0.014711113646626472,0.3444845676422119,0.027394887059926987,-9.739435195922852
1745666604.3101768,0.1572647988796234,0.02363511547446251,-0.014586865901947021,0.37304550409317017,0.2284814864397049,-9.945820808410645
1745666604.3141868,0.1541595458984375,0.03175782412290573,-0.017176372930407524,0.2702297568321228,0.31486278772354126,-9.854127883911133
1745666604.3249352,0.1746770143508911,0.021460896357893944,-0.022749250754714012,0.5065311193466187,0.15395179390907288,-9.58962631225586
1745666604.340015,0.1666998565196991,0.02205757610499859,-0.02844317816197872,0.2431197166442871,0.3546140193939209,-9.764795303344727
1745666604.343451,0.16152812540531158,0.024851497262716293,-0.03213812783360481,0.4937199056148529,-0.1722916215658188,-10.041955947875977
1745666604.3474023,0.1592613160610199,0.02247540093958378,-0.03638102486729622,0.30607372522354126,0.02193404734134674,-9.763418197631836
1745666604.35111,0.1460147649049759,0.02501530386507511,-0.03577089309692383,0.38723742961883545,-0.18034212291240692,-9.556306838989258
1745666604.353329,0.13258147239685059,0.018158871680498123,-0.0403350405395031,0.468980610370636,-0.09785710275173187,-9.676819801330566
1745666604.3830316,0.13950283825397491,0.028151577338576317,-0.04186319187283516,0.36029762029647827,0.18576523661613464,-9.966513633728027
1745666604.3858306,0.12941999733448029,0.016677528619766235,-0.04636690765619278,0.5532636642456055,-0.036644358187913895,-9.861659049987793
1745666604.3899524,0.13421618938446045,0.025409653782844543,-0.05070049688220024,0.23999348282814026,0.32005277276039124,-9.699913024902344
1745666604.3922796,0.15002790093421936,0.026889627799391747,-0.05672351270914078,0.3737347722053528,0.14303116500377655,-9.745519638061523
1745666604.4273498,0.15630565583705902,0.021265821531414986,-0.059435028582811356,0.423285573720932,0.007156158331781626,-9.744685173034668
1745666604.4295492,0.1608978807926178,0.03092770278453827,-0.06377215683460236,0.401465505361557,0.25300318002700806,-9.728128433227539
1745666604.434996,0.15394923090934753,0.018948862329125404,-0.06832750886678696,0.5753886699676514,-0.2273438721895218,-9.843153953552246
1745666604.4385478,0.15702882409095764,0.02607884630560875,-0.07204436510801315,0.3695879876613617,0.08732638508081436,-9.831382751464844
1745666604.4760299,0.14645764231681824,0.02365734614431858,-0.07087492197751999,0.5419778823852539,-0.32050254940986633,-9.787729263305664
1745666604.4760928,0.14617344737052917,0.020181383937597275,-0.07480929791927338,0.28538772463798523,-0.04349428415298462,-9.655757904052734
1745666604.4761338,0.1303148865699768,0.027551833540201187,-0.07504460960626602,0.5018222332000732,-0.18348664045333862,-9.670736312866211
1745666604.4901276,0.13814449310302734,0.017290038987994194,-0.08005266636610031,0.37129226326942444,-0.00989596638828516,-9.884527206420898
1745666604.4910994,0.13322244584560394,0.022935152053833008,-0.08352778851985931,0.3626803457736969,0.06732508540153503,-9.90681266784668
1745666604.5150368,0.13426722586154938,0.017954394221305847,-0.08567963540554047,0.47635072469711304,-0.17056088149547577,-9.77746295928955
1745666604.5165706,0.14594367146492004,0.02160898968577385,-0.08687321096658707,0.29094117879867554,0.08208995312452316,-9.660588264465332
1745666604.519271,0.1364583522081375,0.01582581177353859,-0.08832629024982452,0.5448036193847656,-0.40131106972694397,-9.788647651672363
1745666604.5214663,0.12254311144351959,0.007685309741646051,-0.18214234709739685,0.45734983682632446,-0.35480639338493347,-9.616862297058105
1745666604.5573947,0.11815100908279419,0.009567678906023502,-0.18418948352336884,0.4350045323371887,-0.2680279612541199,-9.805180549621582
1745666604.5672755,0.12108476459980011,0.008003082126379013,-0.18548661470413208,0.7277910113334656,-0.4826293885707855,-9.874381065368652
1745666604.5698552,0.10702382028102875,0.007386139128357172,-0.19038096070289612,0.5332663655281067,-0.17176726460456848,-9.81855583190918
1745666604.5721664,0.1288648396730423,0.0056530507281422615,-0.19145959615707397,0.7418078184127808,-0.5602543354034424,-9.669130325317383
1745666604.6005986,0.09595519304275513,0.0020067617297172546,-0.1928539276123047,0.48828068375587463,-0.24654309451580048,-9.813371658325195
1745666604.6017041,0.11361392587423325,0.007746667601168156,-0.19568932056427002,0.5655911564826965,-0.6511432528495789,-9.9712495803833
1745666604.6039,0.1131191998720169,-0.002972824964672327,-0.1952485889196396,0.5198563933372498,-0.24885573983192444,-9.604449272155762
1745666604.605216,0.09578558057546616,0.00626672338694334,-0.198558047413826,0.4060329794883728,-0.36496132612228394,-9.679394721984863
1745666604.607418,0.12202813476324081,0.0010983968386426568,-0.20065434277057648,0.5840107798576355,-0.33673447370529175,-9.723925590515137
1745666604.6416829,0.10252630710601807,0.003255185903981328,-0.20452499389648438,0.41063380241394043,-0.20189213752746582,-9.871357917785645
1745666604.6432078,0.12303414195775986,0.0021747108548879623,-0.20746159553527832,0.6436848044395447,-0.5585117340087891,-9.800950050354004
1745666604.644643,0.1064193844795227,-0.005960623733699322,-0.20708172023296356,0.46631675958633423,-0.43820327520370483,-9.759055137634277
1745666604.6552913,0.11225633323192596,0.0015760870883241296,-0.205619215965271,0.5676240921020508,-0.670989990234375,-9.82274055480957
1745666604.6832194,0.0926719456911087,-0.005875271745026112,-0.20459787547588348,0.5369699001312256,-0.4307937026023865,-9.659158706665039
1745666604.6868901,0.1044526919722557,0.0012753664050251245,-0.20880679786205292,0.48621517419815063,-0.5257624387741089,-9.694196701049805
1745666604.6906216,0.09408649057149887,-0.003000123193487525,-0.2084183692932129,0.6291748285293579,-0.2548010051250458,-9.66954231262207
1745666604.6959822,0.08884427696466446,-0.0013770756777375937,-0.2156796157360077,0.4047579765319824,-0.35982057452201843,-10.007542610168457
1745666604.700734,0.12253940105438232,-0.0021147215738892555,-0.21892347931861877,0.5848817825317383,-0.3530887961387634,-9.769281387329102
1745666604.7294714,0.08655353635549545,-0.010910416953265667,-0.22048397362232208,0.4272095263004303,-0.3729274570941925,-9.63340950012207
1745666604.7334087,0.12117893993854523,-0.0009186893585138023,-0.2195873260498047,0.5691340565681458,-0.612985372543335,-9.756943702697754
1745666604.736635,0.09414858371019363,-0.010058732703328133,-0.21791212260723114,0.5708361864089966,-0.47349804639816284,-9.764894485473633
1745666604.7773736,0.08968915790319443,-0.012246014550328255,-0.22552533447742462,0.37931686639785767,-0.6594178080558777,-9.789443016052246
1745666604.7805972,0.11002020537853241,-0.00805017352104187,-0.22693350911140442,0.5031614303588867,-0.4134034514427185,-9.52100944519043
1745666604.7844634,0.06572212278842926,-0.014649312011897564,-0.23000562191009521,0.5326831340789795,-0.6593189835548401,-9.757826805114746
1745666604.7894242,0.1067623496055603,-0.00784022081643343,-0.2263939380645752,0.39359164237976074,-0.5021380186080933,-9.923364639282227
1745666604.820456,0.07989063858985901,-0.013570278882980347,-0.2329697608947754,0.6272352933883667,-0.40360432863235474,-9.763314247131348
1745666604.8205469,0.09734917432069778,-0.0093084666877985,-0.2327953279018402,0.4345472455024719,-0.4999472200870514,-9.804532051086426
1745666604.820602,0.10133136808872223,-0.015261886641383171,-0.23160520195960999,0.6382110714912415,-0.4496416449546814,-9.645072937011719
1745666604.8233066,0.08704931288957596,-0.016768351197242737,-0.2341156005859375,0.43363484740257263,-0.5243401527404785,-9.779871940612793
1745666604.8256433,0.10396543890237808,-0.008071715012192726,-0.23260028660297394,0.5053383111953735,-0.5903011560440063,-9.814697265625
1745666604.8593483,0.08448503911495209,-0.016149045899510384,-0.23502011597156525,0.47986602783203125,-0.6342002749443054,-9.750327110290527
1745666604.867057,0.1010277047753334,-0.01183389499783516,-0.23581382632255554,0.4581742286682129,-0.3827732503414154,-9.698549270629883
1745666604.8698196,0.07633034139871597,-0.020407356321811676,-0.23600438237190247,0.5630760192871094,-0.7126642465591431,-9.913312911987305
1745666604.8727262,0.10436202585697174,-0.012400886975228786,-0.24075262248516083,0.3871288597583771,-0.34689968824386597,-9.726425170898438
1745666604.902831,0.05555173009634018,-0.01514335535466671,-0.26331672072410583,0.4859137535095215,-0.7687518000602722,-9.699897766113281
1745666604.9076045,0.07183205336332321,-0.02867230772972107,-0.262944757938385,0.503785252571106,-0.5539481043815613,-9.821699142456055
1745666604.9122105,0.053405433893203735,-0.017510462552309036,-0.26569151878356934,0.38779014348983765,-0.5828076004981995,-9.932096481323242
1745666604.91678,0.07156054675579071,-0.021443432196974754,-0.2637539505958557,0.5791853070259094,-0.8233127593994141,-9.743692398071289
1745666604.9420414,0.06209776923060417,-0.02086719498038292,-0.264157235622406,0.38440975546836853,-0.5200783610343933,-9.531583786010742
1745666604.9451652,0.06382933259010315,-0.02176039293408394,-0.2637363374233246,0.6053160429000854,-0.8689413070678711,-9.739935874938965
1745666604.9472163,0.06320659816265106,-0.023492489010095596,-0.26220977306365967,0.44482022523880005,-0.6125707626342773,-9.93903923034668
1745666604.950473,0.06568341702222824,-0.01574232429265976,-0.26571857929229736,0.48151254653930664,-0.7657263875007629,-9.899459838867188
1745666604.953624,0.05794970318675041,-0.026325982064008713,-0.2652805745601654,0.5285611748695374,-0.6394109129905701,-9.616170883178711
1745666604.9883432,0.05931388586759567,-0.02261168882250786,-0.26779717206954956,0.34029659628868103,-0.8011006116867065,-9.74547004699707
1745666604.9934494,0.05985144525766373,-0.022293537855148315,-0.2689879536628723,0.5446099042892456,-0.687961220741272,-9.702800750732422
1745666604.9958975,0.039737679064273834,-0.017414938658475876,-0.26929861307144165,0.3893969655036926,-0.7348269820213318,-9.813260078430176
1745666604.9996958,0.06504611670970917,-0.0168362595140934,-0.26853013038635254,0.523446261882782,-0.7902876138687134,-9.67998218536377
1745666605.0286543,0.039946187287569046,-0.024428270757198334,-0.2719860076904297,0.4351356625556946,-0.5923606157302856,-9.737078666687012
1745666605.0319083,0.05401614308357239,-0.014559137634932995,-0.27039995789527893,0.5503219366073608,-0.883586049079895,-9.914437294006348
1745666605.0360901,0.05100022628903389,-0.02535863220691681,-0.2703089118003845,0.5015181303024292,-0.6508579850196838,-9.689799308776855
1745666605.0398993,0.04682844132184982,-0.01621406152844429,-0.2699553072452545,0.429398775100708,-0.7803187966346741,-9.673375129699707
1745666605.042434,0.04615090414881706,-0.01985245756804943,-0.2694466710090637,0.5818874835968018,-0.837232232093811,-9.71430778503418
1745666605.0749266,0.04270673170685768,-0.019338209182024002,-0.26848679780960083,0.35934633016586304,-0.6827789545059204,-9.84376335144043
1745666605.078116,0.04845527932047844,-0.017720073461532593,-0.2692326009273529,0.5726493000984192,-0.6574398875236511,-9.723319053649902
1745666605.0817246,0.03838362172245979,-0.02228725329041481,-0.2713509798049927,0.36487382650375366,-0.6809554696083069,-9.797447204589844
1745666605.0850003,0.06792302429676056,-0.01558704487979412,-0.27278777956962585,0.4838795065879822,-0.6195316910743713,-9.674174308776855
1745666605.11698,0.03290282189846039,-0.021960148587822914,-0.2739385664463043,0.5604166984558105,-0.6945635080337524,-9.740255355834961
1745666605.1241117,0.05798940733075142,-0.02081681787967682,-0.27150800824165344,0.5749576687812805,-0.7110530734062195,-9.72972297668457
1745666605.1256351,0.04282858595252037,-0.02167387679219246,-0.2720218300819397,0.42907795310020447,-0.7199013233184814,-9.818779945373535
1745666605.1263134,0.052284907549619675,-0.01660793647170067,-0.2737332284450531,0.5082977414131165,-0.816493809223175,-9.771728515625
1745666605.1619616,0.03781126067042351,-0.02054770290851593,-0.2723866403102875,0.4372376501560211,-0.7543063163757324,-9.66739273071289
1745666605.166783,0.054674822837114334,-0.013941076584160328,-0.27316799759864807,0.4372186064720154,-0.7565299868583679,-9.633672714233398
1745666605.1719532,0.02599472366273403,-0.01691160723567009,-0.27220234274864197,0.5244410634040833,-0.8415094614028931,-9.809283256530762
1745666605.1762872,0.0566263385117054,-0.014989176765084267,-0.27213600277900696,0.3694794476032257,-0.7346078753471375,-9.925180435180664
1745666605.1778426,0.039074502885341644,-0.019385209307074547,-0.2739303708076477,0.5369045734405518,-0.5643536448478699,-9.605794906616211
1745666605.201906,0.04075666517019272,-0.012030133977532387,-0.2741587460041046,0.3767772912979126,-0.7865330576896667,-9.639421463012695
1745666605.2061942,0.0635509267449379,-0.015562755055725574,-0.2747597396373749,0.524580180644989,-0.5920761823654175,-9.663630485534668
1745666605.2096577,0.03214505314826965,-0.019789401441812515,-0.2759605348110199,0.4909885823726654,-0.8202077150344849,-9.963449478149414
1745666605.210675,0.059958480298519135,-0.0091863963752985,-0.2750702202320099,0.41462746262550354,-0.7618535757064819,-9.82227897644043
1745666605.2455387,0.035978782922029495,-0.020338337868452072,-0.2764027714729309,0.5040222406387329,-0.8498491048812866,-9.622148513793945
1745666605.2483928,0.02840491198003292,-0.022745560854673386,-0.279670774936676,0.40454500913619995,-0.7559413909912109,-9.703120231628418
1745666605.2500727,0.02062421478331089,-0.015826856717467308,-0.2783634066581726,0.47556430101394653,-0.8937469720840454,-9.726634979248047
1745666605.2528346,0.02667415142059326,-0.022482294589281082,-0.2799227833747864,0.5300445556640625,-0.6258659362792969,-9.65562629699707
1745666605.287555,0.011999932117760181,-0.014284873381257057,-0.28240060806274414,0.39947324991226196,-0.8427468538284302,-9.886717796325684
1745666605.2885654,0.03749728947877884,-0.024305522441864014,-0.28077930212020874,0.5187149047851562,-0.7600258588790894,-9.832257270812988
1745666605.2920084,0.022612417116761208,-0.018864454701542854,-0.28398793935775757,0.3786751329898834,-0.5972786545753479,-9.67177677154541
1745666605.2947025,0.02641758881509304,-0.017323050647974014,-0.2802619934082031,0.5509105920791626,-1.0347950458526611,-9.67411994934082
1745666605.2958088,0.03576594218611717,-0.019783679395914078,-0.2798795700073242,0.34402889013290405,-0.48493337631225586,-9.65022087097168
1745666605.3320374,0.023288030177354813,-0.014806012623012066,-0.2823270261287689,0.5562400817871094,-0.9867137670516968,-9.859124183654785
1745666605.3357604,0.03473687544465065,-0.023155976086854935,-0.27916431427001953,0.4544692635536194,-0.6715675592422485,-9.845688819885254
1745666605.3377557,0.02875666320323944,-0.01808486133813858,-0.2808024287223816,0.4379808306694031,-0.9421293139457703,-9.846857070922852
1745666605.340072,0.020022768527269363,-0.025315916165709496,-0.27980488538742065,0.5307325720787048,-0.8724265098571777,-9.653170585632324
1745666605.3750744,0.02029353752732277,-0.017184574156999588,-0.27963101863861084,0.34815970063209534,-0.7951124906539917,-9.705162048339844
1745666605.3774369,0.02606535516679287,-0.022091710940003395,-0.2809145748615265,0.5713626146316528,-0.8437628746032715,-9.632183074951172
1745666605.3790312,0.013074216432869434,-0.019901009276509285,-0.27840226888656616,0.42903441190719604,-0.6533607840538025,-9.746587753295898
1745666605.3813472,0.025895949453115463,-0.014716806821525097,-0.2804381847381592,0.5162464380264282,-0.9504788517951965,-9.951072692871094
1745666605.4164546,0.024200862273573875,-0.025884395465254784,-0.27851951122283936,0.39268824458122253,-0.5917876958847046,-9.741853713989258
1745666605.4203746,0.01756773144006729,-0.015088279731571674,-0.2811329960823059,0.43083906173706055,-0.9272148013114929,-9.675326347351074
1745666605.4249077,0.03450671583414078,-0.02209988236427307,-0.2783697843551636,0.4971514344215393,-0.7177766561508179,-9.655815124511719
1745666605.4268537,0.022581985220313072,-0.017533740028738976,-0.27586638927459717,0.42016926407814026,-0.773077130317688,-9.80135440826416
1745666605.4300764,0.031359173357486725,-0.018072694540023804,-0.2776828706264496,0.5815593600273132,-0.8169941902160645,-9.736703872680664
1745666605.4636686,0.025982487946748734,-0.020428769290447235,-0.27665311098098755,0.36307162046432495,-0.7977821230888367,-9.793214797973633
1745666605.466463,0.013292631134390831,-0.017179101705551147,-0.2778376638889313,0.43364962935447693,-1.013165831565857,-9.798651695251465
1745666605.468313,0.03203895315527916,-0.019180094823241234,-0.2750888764858246,0.5134636759757996,-0.71109539270401,-9.828411102294922
1745666605.4696093,0.008196829818189144,-0.020661436021327972,-0.2782282829284668,0.33050721883773804,-0.7726281881332397,-9.88310432434082
1745666605.504721,0.03369484096765518,-0.01617845520377159,-0.27741506695747375,0.5622786283493042,-0.8746736645698547,-9.653242111206055
1745666605.5086918,0.013182958588004112,-0.02599739097058773,-0.2759922444820404,0.40455618500709534,-0.6832231283187866,-9.61060619354248
1745666605.5124185,0.026838818565011024,-0.01879359409213066,-0.27662697434425354,0.49590009450912476,-0.914225697517395,-9.80563735961914
1745666605.515845,0.012308578006923199,-0.022135654464364052,-0.2752291262149811,0.5116496086120605,-0.8324779272079468,-9.809972763061523
1745666605.5472305,0.022161787375807762,-0.01486928015947342,-0.2750858962535858,0.35372307896614075,-0.8423148989677429,-9.769108772277832
1745666605.5522156,0.014479758217930794,-0.02242254838347435,-0.2747553586959839,0.5846816897392273,-0.7192460298538208,-9.580159187316895
1745666605.5548148,0.010870831087231636,-0.02369058132171631,-0.2760058343410492,0.3288511633872986,-0.8759185075759888,-9.947015762329102
1745666605.558932,0.0337359756231308,-0.01885266974568367,-0.2749635875225067,0.49362391233444214,-0.6409372091293335,-9.70557975769043
1745666605.5625312,0.0022691930644214153,-0.02030637487769127,-0.27841851115226746,0.45158085227012634,-0.7289113998413086,-9.596914291381836
1745666605.591662,0.039375897496938705,-0.013488292694091797,-0.277685284614563,0.43371790647506714,-0.8673076629638672,-9.654369354248047
1745666605.5933397,0.01315421424806118,-0.024274207651615143,-0.27741044759750366,0.48543453216552734,-0.6699212789535522,-9.783151626586914
1745666605.59665,0.03815682232379913,-0.016353312879800797,-0.2743787169456482,0.2713019847869873,-0.6389247179031372,-9.83899211883545
1745666605.6082764,0.00639425590634346,-0.01927117630839348,-0.2738219201564789,0.5167546272277832,-0.8545176386833191,-9.570250511169434
1745666605.6352856,0.03159692883491516,-0.020250318571925163,-0.2734270393848419,0.36486297845840454,-0.7639871835708618,-9.713708877563477
1745666605.6394954,0.02228851430118084,-0.01817617192864418,-0.27439138293266296,0.4776805341243744,-0.8074744343757629,-9.797609329223633
1745666605.6448154,0.023279402405023575,-0.022407885640859604,-0.2718421220779419,0.4587821364402771,-0.8171526789665222,-9.793615341186523
1745666605.6494572,0.024288831278681755,-0.014343571849167347,-0.27395766973495483,0.4061041474342346,-0.9241325259208679,-9.652664184570312
1745666605.6803937,0.010881511494517326,-0.024261942133307457,-0.27232447266578674,0.49335116147994995,-0.9317076802253723,-9.693876266479492
1745666605.6805515,0.012013830244541168,-0.020939838141202927,-0.27453118562698364,0.3759366571903229,-0.7550461292266846,-9.823019027709961
1745666605.6809807,-0.0020382110960781574,-0.01909984089434147,-0.2734171450138092,0.5438449382781982,-1.077635407447815,-9.854238510131836
1745666605.6853359,0.018865374848246574,-0.022450491786003113,-0.27519235014915466,0.3204212784767151,-0.6016761660575867,-9.589999198913574
1745666605.7181292,-0.008133874274790287,-0.017118051648139954,-0.2767869830131531,0.5718887448310852,-0.921648383140564,-9.63875961303711
1745666605.720102,0.01712118834257126,-0.02038045972585678,-0.27301591634750366,0.4540565609931946,-0.7906485795974731,-9.809528350830078
1745666605.723265,0.007892834953963757,-0.016644690185785294,-0.27358680963516235,0.3720166087150574,-0.6899017095565796,-9.842399597167969
1745666605.7270277,0.01037281658500433,-0.02045167051255703,-0.27459773421287537,0.4897628426551819,-0.914251446723938,-9.735352516174316
1745666605.729702,0.020831547677516937,-0.018529266119003296,-0.27144020795822144,0.2786352038383484,-0.6501534581184387,-9.674184799194336
1745666605.7622457,0.013087024912238121,-0.022996336221694946,-0.27221783995628357,0.5384088754653931,-0.8892320394515991,-9.720464706420898
1745666605.7742996,0.014828289858996868,-0.017627371475100517,-0.27267611026763916,0.41898036003112793,-0.7209901809692383,-9.817476272583008
1745666605.7744482,0.01139306090772152,-0.017524486407637596,-0.2757030129432678,0.5050293207168579,-0.9406299591064453,-9.751823425292969
1745666605.7745364,0.012055245228111744,-0.023355534300208092,-0.2748453617095947,0.46151119470596313,-0.756986141204834,-9.59455680847168
1745666605.8072698,-0.006215737201273441,-0.0146641805768013,-0.2739675045013428,0.3813447952270508,-0.9816858172416687,-9.850131034851074
1745666605.8098576,0.009725136682391167,-0.02193976566195488,-0.27223265171051025,0.5165554881095886,-0.8748512268066406,-9.850008010864258
1745666605.8145115,0.0018295303452759981,-0.020515363663434982,-0.2708633840084076,0.4819389283657074,-0.8490282893180847,-9.593778610229492
1745666605.8191385,-0.003885307116433978,-0.015828076750040054,-0.27165842056274414,0.4168061316013336,-0.7994274497032166,-9.756673812866211
1745666605.8505342,0.005087855271995068,-0.020256776362657547,-0.2703337073326111,0.6217896938323975,-0.8850116729736328,-9.801037788391113
1745666605.8536682,-0.015478762798011303,-0.016777534037828445,-0.2735916078090668,0.3393261730670929,-0.6770718097686768,-9.837762832641602
1745666605.8564754,0.00032172127976082265,-0.01259920746088028,-0.2727756202220917,0.4664466977119446,-0.9999865293502808,-9.74356460571289
1745666605.8589902,-0.006014357320964336,-0.023916780948638916,-0.27209994196891785,0.37030237913131714,-0.55573570728302,-9.57139778137207
1745666605.889456,-0.008874043822288513,-0.015320701524615288,-0.2720227539539337,0.39074140787124634,-0.9183090925216675,-9.87801456451416
1745666605.8909824,0.011212066747248173,-0.01679081842303276,-0.2711845934391022,0.46120113134384155,-0.6062989234924316,-9.764646530151367
1745666605.8948352,-0.0028829933144152164,-0.01281957607716322,-0.2739000916481018,0.33865004777908325,-0.7974177002906799,-9.656133651733398
1745666605.8984785,0.009192727506160736,-0.01873236708343029,-0.2715819180011749,0.552765965461731,-0.8349474668502808,-9.607882499694824
1745666605.903044,-0.0005062558921054006,-0.017949901521205902,-0.27128860354423523,0.3589744567871094,-0.8411490321159363,-9.961283683776855
1745666605.9389303,0.0006028242059983313,-0.014938677661120892,-0.2709645628929138,0.4972001910209656,-0.9722626805305481,-9.954641342163086
1745666605.9390116,-0.010883970186114311,-0.01698041893541813,-0.2686311602592468,0.3887874186038971,-0.7337738871574402,-9.5986909866333
1745666605.942047,0.0008563920855522156,-0.014407703652977943,-0.2692314684391022,0.37473613023757935,-0.9862068295478821,-9.532400131225586
1745666605.9473197,0.010883936658501625,-0.016088759526610374,-0.2709727883338928,0.3377177119255066,-0.6669820547103882,-9.718988418579102
1745666605.9774394,-0.005466393195092678,-0.013907188549637794,-0.2713381350040436,0.5598398447036743,-0.8226653337478638,-9.917518615722656
1745666605.978959,0.014595854096114635,-0.015750227496027946,-0.2718479633331299,0.364522248506546,-0.7688034772872925,-9.78355598449707
1745666605.9800324,-0.009849103167653084,-0.010036068968474865,-0.27020102739334106,0.5144826173782349,-0.7590717673301697,-9.51331901550293
1745666605.9831147,0.0005618262803182006,-0.014727270230650902,-0.2718563675880432,0.40139341354370117,-0.894760012626648,-9.767247200012207
1745666606.018681,0.008469125255942345,-0.014308827929198742,-0.27219992876052856,0.4082527756690979,-0.5789624452590942,-9.82966136932373
1745666606.0210493,-0.00961928442120552,-0.018008427694439888,-0.27107399702072144,0.5112370252609253,-0.9008280634880066,-9.853673934936523
1745666606.022366,0.020285705104470253,-0.011224602349102497,-0.2726640999317169,0.2936897873878479,-0.5856614112854004,-9.721681594848633
1745666606.02453,-0.003999491222202778,-0.01944109797477722,-0.2699896991252899,0.5648530721664429,-0.8376344442367554,-9.655179023742676
1745666606.0258412,0.013588400557637215,-0.015075606293976307,-0.2699546813964844,0.32489728927612305,-0.7198720574378967,-9.76978874206543
1745666606.063694,0.00478374445810914,-0.012367958202958107,-0.26825961470603943,0.4801986813545227,-0.8188681602478027,-9.77483081817627
1745666606.0672066,0.009878752753138542,-0.02113882265985012,-0.2684205174446106,0.3816887438297272,-0.7518541216850281,-9.77963638305664
1745666606.0721626,0.004682180937379599,-0.010725902393460274,-0.2703526020050049,0.40710800886154175,-0.6674286127090454,-9.7568359375
1745666606.0781722,0.00763220340013504,-0.020637059584259987,-0.2706145942211151,0.5112118124961853,-0.9160503149032593,-9.759872436523438
1745666606.1072106,0.01345977745950222,-0.013231592252850533,-0.27278658747673035,0.356216698884964,-0.5065217018127441,-9.666948318481445
1745666606.1094787,-0.011080877855420113,-0.015736917033791542,-0.27091771364212036,0.5920709371566772,-0.9786356687545776,-9.76301097869873
1745666606.111609,0.022431274875998497,-0.015509826131165028,-0.27180933952331543,0.27147960662841797,-0.6230762600898743,-9.748479843139648
1745666606.1163275,-0.003390468657016754,-0.015344682149589062,-0.269052654504776,0.47447341680526733,-0.8037174344062805,-9.775686264038086
1745666606.1512976,0.007642177399247885,-0.022389953956007957,-0.2716068625450134,0.42079979181289673,-0.8356382250785828,-9.846233367919922
1745666606.1540277,0.014574414119124413,-0.014367515221238136,-0.2695707380771637,0.3727080225944519,-0.653968870639801,-9.734262466430664
1745666606.1562474,0.0036318772472441196,-0.02132626436650753,-0.2689361572265625,0.49101749062538147,-0.8724910616874695,-9.693733215332031
1745666606.1604724,0.01258561946451664,-0.015748251229524612,-0.26904749870300293,0.33914899826049805,-0.6601964235305786,-9.736753463745117
1745666606.1629634,0.011142641305923462,-0.014191366732120514,-0.27198120951652527,0.28151172399520874,-0.4769473969936371,-9.677961349487305
1745666606.1927128,0.005131210200488567,-0.01557649951428175,-0.26966410875320435,0.5368801355361938,-0.9808440208435059,-9.787117958068848
1745666606.1948512,0.016774442046880722,-0.020969441160559654,-0.27129417657852173,0.27466487884521484,-0.5479556322097778,-9.855588912963867
1745666606.197508,0.009235130622982979,-0.016970306634902954,-0.27032724022865295,0.4840453267097473,-0.8899986147880554,-9.854047775268555
1745666606.1994736,0.009395232424139977,-0.021460283547639847,-0.27123671770095825,0.3608347475528717,-0.6739722490310669,-9.658955574035645
1745666606.2334409,0.009967299178242683,-0.014207251369953156,-0.27230843901634216,0.40537866950035095,-0.8517264127731323,-9.669204711914062
1745666606.2366347,0.01215752586722374,-0.02468511089682579,-0.27018284797668457,0.5152490139007568,-0.7390060424804688,-9.674250602722168
1745666606.240256,-0.009878559969365597,-0.01392778754234314,-0.27060744166374207,0.31697410345077515,-0.768507719039917,-9.979558944702148
1745666606.2439208,0.01531964261084795,-0.017536092549562454,-0.2718968987464905,0.5371289849281311,-0.8918631672859192,-9.8219633102417
1745666606.2465346,-0.0041159046813845634,-0.023250360041856766,-0.2690812051296234,0.29850679636001587,-0.5433987975120544,-9.581684112548828
1745666606.2799933,-0.0032292399555444717,-0.019304241985082626,-0.2712032198905945,0.5203410387039185,-1.009513258934021,-9.758443832397461
1745666606.2852612,0.00875233393162489,-0.019768591970205307,-0.27208298444747925,0.3189311623573303,-0.48992720246315,-9.813875198364258
1745666606.2926834,-0.0028106223326176405,-0.016598042100667953,-0.27383407950401306,0.4251009523868561,-0.8165091276168823,-9.79949951171875
1745666606.2995408,0.008969787508249283,-0.02182195708155632,-0.2704523801803589,0.47260913252830505,-0.6881409883499146,-9.594282150268555
1745666606.320764,-0.002634664997458458,-0.02525634691119194,-0.26707321405410767,0.5035580396652222,-0.5783277750015259,-9.6264009475708
1745666606.32304,-0.00552219757810235,-0.02108980156481266,-0.26849380135536194,0.35704800486564636,-0.7319185733795166,-10.056534767150879
1745666606.324981,0.007350408937782049,-0.02163373865187168,-0.26756739616394043,0.518569827079773,-0.6827410459518433,-9.84886646270752
1745666606.3281257,-0.002578947925940156,-0.02736714482307434,-0.2666754722595215,0.2811839282512665,-0.6793229579925537,-9.69494915008545
1745666606.3662467,0.0026764371432363987,-0.024388393387198448,-0.2694881856441498,0.44354599714279175,-0.7715999484062195,-9.650591850280762
1745666606.3686538,-0.013444557785987854,-0.026728102937340736,-0.26693400740623474,0.4163817763328552,-0.7962082028388977,-9.78317928314209
1745666606.371883,0.009340448305010796,-0.019019654020667076,-0.26913097500801086,0.3777696192264557,-0.7049152255058289,-9.691537857055664
1745666606.3747292,-0.028088953346014023,-0.02301524020731449,-0.2681587338447571,0.5141555070877075,-0.7506985664367676,-9.681755065917969
1745666606.407575,0.0007840528851374984,-0.01994696632027626,-0.269325315952301,0.34596341848373413,-0.7741919755935669,-9.900419235229492
1745666606.4093428,-0.008077388629317284,-0.026850422844290733,-0.267873615026474,0.5195099115371704,-0.6318511962890625,-9.765328407287598
1745666606.4114814,-0.018956806510686874,-0.025811603292822838,-0.2687622606754303,0.3012580871582031,-0.8212800025939941,-9.824731826782227
1745666606.4139252,0.00978097878396511,-0.018050536513328552,-0.2689376771450043,0.38060492277145386,-0.5714558362960815,-9.574742317199707
1745666606.41401,-0.017541203647851944,-0.02378624491393566,-0.2677063047885895,0.3665745258331299,-0.757603108882904,-9.629427909851074
1745666606.4514377,0.007513277232646942,-0.016018345952033997,-0.26728492975234985,0.36396798491477966,-0.6046180725097656,-9.797895431518555
1745666606.4580395,-0.012289101257920265,-0.024603594094514847,-0.26782315969467163,0.5169376134872437,-0.7540069818496704,-9.878843307495117
1745666606.4588978,0.004472480621188879,-0.019389215856790543,-0.2684793174266815,0.3101654350757599,-0.6295245289802551,-9.897209167480469
1745666606.4611666,-0.011330187320709229,-0.021482717245817184,-0.2680909037590027,0.5141168832778931,-0.7276685833930969,-9.634248733520508
1745666606.4939847,0.007567089982330799,-0.023531243205070496,-0.2687724232673645,0.34453096985816956,-0.7835753560066223,-9.60763168334961
1745666606.4952924,-0.0024192356504499912,-0.017223432660102844,-0.2663029134273529,0.46841588616371155,-0.5934693217277527,-9.663152694702148
1745666606.5050795,-0.010591166093945503,-0.019812170416116714,-0.2666230797767639,0.38361865282058716,-0.8255159258842468,-9.972183227539062
1745666606.5052772,0.022547803819179535,-0.01317770965397358,-0.26717355847358704,0.28489047288894653,-0.4524018168449402,-9.717244148254395
1745666606.5349278,-0.012500310316681862,-0.02138606645166874,-0.26785486936569214,0.4003826677799225,-0.8352750539779663,-9.773627281188965
1745666606.5383847,0.01303847599774599,-0.015808705240488052,-0.26809102296829224,0.2849586606025696,-0.39847496151924133,-9.489758491516113
1745666606.5419722,-0.02287173457443714,-0.02176675759255886,-0.2686083912849426,0.5706456303596497,-0.8357828855514526,-9.781339645385742
1745666606.5462403,0.018526431173086166,-0.014514493755996227,-0.2678055167198181,0.24161989986896515,-0.6118313670158386,-9.944905281066895
1745666606.5479605,-0.005305523052811623,-0.014057597145438194,-0.2693478465080261,0.45078620314598083,-0.6647364497184753,-9.663362503051758
1745666606.5803516,-0.0012224264210090041,-0.0207887701690197,-0.2668156027793884,0.39346233010292053,-0.8581092953681946,-9.717927932739258
1745666606.5846157,0.005959120579063892,-0.01831226237118244,-0.2668370008468628,0.43216538429260254,-0.6383047699928284,-9.84559440612793
1745666606.5856438,-0.010525219142436981,-0.022205665707588196,-0.26624178886413574,0.4572518765926361,-0.8270675539970398,-9.90498161315918
1745666606.586773,0.002754071494564414,-0.013170985504984856,-0.2670517563819885,0.360834002494812,-0.5891734957695007,-9.64323902130127
1745666606.6239097,-0.014932742342352867,-0.01899731531739235,-0.26686543226242065,0.49234437942504883,-0.8962480425834656,-9.573392868041992
1745666606.625547,-0.0012657239567488432,-0.019434059038758278,-0.2673411965370178,0.30300426483154297,-0.5129544138908386,-9.780593872070312
1745666606.6280177,-0.02703533135354519,-0.015721317380666733,-0.26678749918937683,0.4245326519012451,-0.9252378344535828,-10.050491333007812
1745666606.6300473,0.006735891103744507,-0.0181648600846529,-0.26721641421318054,0.24201998114585876,-0.5684362649917603,-9.730591773986816
1745666606.6638255,-0.013376611284911633,-0.015121519565582275,-0.2689853310585022,0.4360080659389496,-0.5704571008682251,-9.436756134033203
1745666606.6671762,-0.007840977981686592,-0.021157078444957733,-0.2694784104824066,0.47484445571899414,-0.7789093255996704,-9.772255897521973
1745666606.6716976,0.0005206707864999771,-0.01731288433074951,-0.2722774147987366,0.3810989260673523,-0.5130149126052856,-9.824804306030273
1745666606.6779256,-0.007876016199588776,-0.010410740971565247,-0.27098408341407776,0.35246744751930237,-0.9258562922477722,-9.94858169555664
1745666606.6814256,0.013377981260418892,-0.018824420869350433,-0.2722170948982239,0.41182130575180054,-0.6291112303733826,-9.536478042602539
1745666606.709703,-0.013073205947875977,-0.012509902939200401,-0.2715233266353607,0.3983065187931061,-0.5866913795471191,-9.639657974243164
1745666606.710408,0.009332058019936085,-0.013177931308746338,-0.2698494493961334,0.5020195841789246,-0.8275249600410461,-9.888705253601074
1745666606.7129302,0.007541051600128412,-0.011804936453700066,-0.27076226472854614,0.27283716201782227,-0.3274346590042114,-9.785992622375488
1745666606.7162294,0.006636305712163448,-0.012978756800293922,-0.2697562277317047,0.49676790833473206,-0.9085075259208679,-9.74979305267334
1745666606.7525785,0.013938355259597301,-0.0179408248513937,-0.27096444368362427,0.29176148772239685,-0.46447744965553284,-9.682231903076172
1745666606.7632778,0.01211816631257534,-0.01124196033924818,-0.2713633179664612,0.404548317193985,-0.7781063318252563,-9.852349281311035
1745666606.7633965,0.006874960847198963,-0.015393462963402271,-0.2698368430137634,0.4391414523124695,-0.706049919128418,-9.740636825561523
1745666606.7634752,0.003723619505763054,-0.007731132209300995,-0.2706659734249115,0.3607541024684906,-0.6918179392814636,-9.663515090942383
1745666606.7684486,0.011194592341780663,-0.017556404694914818,-0.2713829576969147,0.5272629857063293,-0.6798504590988159,-9.63452434539795
1745666606.7977426,-0.014316503889858723,-0.010726327076554298,-0.2744830846786499,0.24822013080120087,-0.5835481882095337,-9.966219902038574
1745666606.8025823,0.018250904977321625,-0.010530046187341213,-0.2726895213127136,0.5047054290771484,-0.7747918963432312,-9.830123901367188
1745666606.807058,-0.002562715206295252,-0.017842018976807594,-0.27436089515686035,0.3359415531158447,-0.42296847701072693,-9.542305946350098
1745666606.8120313,0.0027850798796862364,-0.012003857642412186,-0.27207663655281067,0.45255541801452637,-0.9132184982299805,-9.81227970123291
1745666606.8380587,0.014322822913527489,-0.01494826190173626,-0.27297917008399963,0.36468881368637085,-0.5279668569564819,-9.829839706420898
1745666606.84266,0.001841499237343669,-0.008453655056655407,-0.2720273435115814,0.3635185658931732,-0.7352085709571838,-9.7767915725708
1745666606.8465083,0.01098550669848919,-0.01580222323536873,-0.2696102261543274,0.4987673759460449,-0.705237627029419,-9.60825252532959
1745666606.8500788,0.0057589043863117695,-0.016173195093870163,-0.2716430425643921,0.28098225593566895,-0.5745620727539062,-9.846064567565918
1745666606.8550124,0.005226943641901016,-0.015092077665030956,-0.2732543647289276,0.4904238283634186,-0.7810811996459961,-9.935857772827148
1745666606.8858063,0.00584815489128232,-0.02056783065199852,-0.2694081962108612,0.37361350655555725,-0.6482937932014465,-9.720768928527832
1745666606.8861246,0.013889601454138756,-0.010327378287911415,-0.2708509564399719,0.3774624168872833,-0.7491021156311035,-9.941038131713867
1745666606.8884068,0.004345804452896118,-0.01678197644650936,-0.2691190838813782,0.4939296841621399,-0.582074761390686,-9.714675903320312
1745666606.8927095,0.0051100729033350945,-0.012302650138735771,-0.2717120051383972,0.32484522461891174,-0.7428829669952393,-9.717947006225586
1745666606.9288585,0.016172420233488083,-0.017595235258340836,-0.27114415168762207,0.5514866709709167,-0.5596839785575867,-9.64826488494873
1745666606.928998,-0.012713436968624592,-0.015500341542065144,-0.27251166105270386,0.36065858602523804,-0.6949160695075989,-9.964012145996094
1745666606.9302123,0.025537807494401932,-0.009067929349839687,-0.27113232016563416,0.39754027128219604,-0.7450884580612183,-9.773353576660156
1745666606.9329596,-0.006504856050014496,-0.01695697382092476,-0.2709103226661682,0.3324309289455414,-0.5000057220458984,-9.594289779663086
1745666606.9693942,0.020166505128145218,-0.012168558314442635,-0.2702986001968384,0.4036114811897278,-0.7458270788192749,-9.785654067993164
1745666606.9715803,0.009082114323973656,-0.018019050359725952,-0.268523633480072,0.42958393692970276,-0.5055633783340454,-9.827836990356445
1745666606.9730065,0.02056005224585533,-0.011523748748004436,-0.2716260850429535,0.3544924557209015,-0.6427215337753296,-9.82011604309082
1745666606.9757133,0.01548969279974699,-0.015616128221154213,-0.26862189173698425,0.5342031121253967,-0.683532178401947,-9.65791130065918
1745666607.0104902,0.010675610974431038,-0.015611818060278893,-0.27117300033569336,0.3009209632873535,-0.7039948105812073,-9.786725997924805
1745666607.013428,0.017835624516010284,-0.01246016938239336,-0.2690965235233307,0.4908207952976227,-0.6177950501441956,-9.707395553588867
1745666607.0148249,-0.011140158399939537,-0.015782343223690987,-0.27123579382896423,0.2655129134654999,-0.7424381971359253,-9.85405445098877
1745666607.0178156,0.0011406257981434464,-0.019309112802147865,-0.2696302533149719,0.48714810609817505,-0.6189741492271423,-9.631230354309082
1745666607.0191085,0.0059471637941896915,-0.020902179181575775,-0.2699955403804779,0.3343660235404968,-0.6515469551086426,-9.985950469970703
1745666607.0561452,0.01564256101846695,-0.013065305538475513,-0.26758524775505066,0.4455363154411316,-0.6472129821777344,-9.851155281066895
1745666607.0586462,0.004859469830989838,-0.019931837916374207,-0.2703191339969635,0.43084144592285156,-0.744823157787323,-9.613308906555176
1745666607.0587227,0.009466215968132019,-0.01768835447728634,-0.26880139112472534,0.39361339807510376,-0.5012128949165344,-9.65295124053955
1745666607.0617368,-0.008094456978142262,-0.0257636159658432,-0.27028578519821167,0.5038749575614929,-0.9539534449577332,-10.028186798095703
1745666607.100375,0.018526354804635048,-0.013777213171124458,-0.2693582773208618,0.28916823863983154,-0.4203309416770935,-9.766613960266113
1745666607.1047995,-0.018913986161351204,-0.020256390795111656,-0.2713400721549988,0.5621538162231445,-0.7951180338859558,-9.598260879516602
1745666607.1061487,0.009564416483044624,-0.018417391926050186,-0.26915282011032104,0.2930883765220642,-0.5834928750991821,-9.67984390258789
1745666607.1083226,-0.0007523655658587813,-0.017653439193964005,-0.26931673288345337,0.4334300458431244,-0.47769075632095337,-9.803431510925293
1745666607.1096232,0.006114467047154903,-0.018055949360132217,-0.27042585611343384,0.3629547357559204,-0.7066969871520996,-9.926039695739746
1745666607.140464,0.01865285076200962,-0.014233295805752277,-0.26860806345939636,0.31636422872543335,-0.4171285629272461,-9.719892501831055
1745666607.1437078,0.008319152519106865,-0.025233248248696327,-0.2681196331977844,0.4927045404911041,-0.7982408404350281,-9.688580513000488
1745666607.145114,0.02330005168914795,-0.01674366369843483,-0.2692388892173767,0.3073030114173889,-0.48084336519241333,-9.781075477600098
1745666607.1466415,0.010119521990418434,-0.017800215631723404,-0.2656562328338623,0.4925316870212555,-0.8108019828796387,-9.784149169921875
1745666607.1810837,0.02520502731204033,-0.019291967153549194,-0.2669700086116791,0.3154488801956177,-0.449871689081192,-9.582176208496094
1745666607.1830919,-0.0004755486734211445,-0.013654420152306557,-0.2686903476715088,0.4337306022644043,-0.7640318870544434,-9.834698677062988
1745666607.186185,0.023573338985443115,-0.021509401500225067,-0.2690247893333435,0.39100879430770874,-0.6174983382225037,-9.920439720153809
1745666607.1900969,0.012507408857345581,-0.016788197681307793,-0.2694721817970276,0.3780769109725952,-0.45500850677490234,-9.732084274291992
1745666607.1930933,0.00783624593168497,-0.019479040056467056,-0.2709065079689026,0.4684203565120697,-0.8597434163093567,-9.7047758102417
1745666607.226783,0.028526093810796738,-0.014906440861523151,-0.268391489982605,0.2316550314426422,-0.3252253532409668,-9.629356384277344
1745666607.230055,0.029790550470352173,-0.019943078979849815,-0.2693662941455841,0.2545012831687927,-0.37578368186950684,-9.652514457702637
1745666607.233571,0.005778065416961908,-0.016995668411254883,-0.2668588161468506,0.4831492304801941,-0.7884695529937744,-9.59304428100586
1745666607.2363553,0.030214622616767883,-0.020718494430184364,-0.2673497796058655,0.38329556584358215,-0.5226513147354126,-9.81102180480957
1745666607.2777247,0.021143749356269836,-0.01216124091297388,-0.2678191065788269,0.40491166710853577,-0.6033775210380554,-9.869369506835938
1745666607.2786217,0.02576947584748268,-0.01797327771782875,-0.2662193179130554,0.4539991319179535,-0.7316071391105652,-9.665821075439453
1745666607.2806032,0.02771810255944729,-0.016453221440315247,-0.26346445083618164,0.29886603355407715,-0.5649049878120422,-9.717607498168945
1745666607.2822504,0.027960270643234253,-0.020831238478422165,-0.2643599212169647,0.4614006578922272,-0.8060638308525085,-9.889908790588379
1745666607.3117695,0.02222740463912487,-0.01595030538737774,-0.2656351625919342,0.23223340511322021,-0.38653820753097534,-9.792673110961914
1745666607.3131049,0.03342021629214287,-0.014980390667915344,-0.26653236150741577,0.43914324045181274,-0.8857048749923706,-9.635468482971191
1745666607.3152583,0.031296975910663605,-0.0203279796987772,-0.26716679334640503,0.3797122836112976,-0.40698185563087463,-9.532838821411133
1745666607.317223,0.012957115657627583,-0.012444652616977692,-0.26539909839630127,0.5000900030136108,-0.8096373677253723,-9.958574295043945
1745666607.3549366,0.03717978298664093,-0.01625220663845539,-0.26698237657546997,0.4216669201850891,-0.723685622215271,-9.905534744262695
1745666607.3583403,0.013627646490931511,-0.01272351574152708,-0.26556459069252014,0.27818307280540466,-0.5927966833114624,-9.675849914550781
1745666607.3618586,0.030496543273329735,-0.017313014715909958,-0.2635399401187897,0.48128741979599,-0.7864977121353149,-9.597783088684082
1745666607.3659668,0.022438598796725273,-0.01693914644420147,-0.2641211152076721,0.2080962210893631,-0.4048582911491394,-9.755868911743164
1745666607.3703396,-6.258934445213526e-05,-0.017862018197774887,-0.26834240555763245,0.30154305696487427,-0.6667147874832153,-9.78911304473877
1745666607.39827,0.034749262034893036,-0.011506025679409504,-0.2671281397342682,0.447989284992218,-0.7509106993675232,-9.71545124053955
1745666607.4032912,0.005173436366021633,-0.02348824217915535,-0.2658149302005768,0.44914546608924866,-0.7283024191856384,-9.741071701049805
1745666607.405058,0.01969439536333084,-0.011399139650166035,-0.2659406065940857,0.37144219875335693,-0.7377135157585144,-9.779672622680664
1745666607.4091575,0.003404768882319331,-0.016613949090242386,-0.2644493877887726,0.49416646361351013,-0.7563745379447937,-9.727570533752441
1745666607.4405432,0.010368147864937782,-0.014946943148970604,-0.26464465260505676,0.26342132687568665,-0.6621130108833313,-9.79601764678955
1745666607.4437222,0.007036109454929829,-0.016018053516745567,-0.2640237808227539,0.4619944989681244,-0.5681658387184143,-9.696669578552246
1745666607.4460833,0.001458996906876564,-0.019749905914068222,-0.26535964012145996,0.2443753480911255,-0.7929202318191528,-9.90285873413086
1745666607.448749,0.02666713297367096,-0.01196286454796791,-0.267822802066803,0.4125693440437317,-0.49899354577064514,-9.614989280700684
1745666607.452391,-0.01412906963378191,-0.019983315840363503,-0.2666746973991394,0.46558254957199097,-0.7644650936126709,-9.680575370788574
1745666607.4831254,0.031503066420555115,-0.007689036428928375,-0.26460081338882446,0.30108439922332764,-0.6735162734985352,-9.799992561340332
1745666607.4861455,-0.002247026888653636,-0.016588851809501648,-0.2641335427761078,0.4830052852630615,-0.6224797964096069,-9.763740539550781
1745666607.4953086,0.012529334053397179,-0.014067791402339935,-0.2645975351333618,0.3232783377170563,-0.7844266891479492,-9.881420135498047
1745666607.4954243,0.009641654789447784,-0.014873513951897621,-0.2643408179283142,0.48932480812072754,-0.6450701355934143,-9.751015663146973
1745666607.5272012,-0.0014263030607253313,-0.019595632329583168,-0.26338234543800354,0.3004741370677948,-0.71869295835495,-9.800278663635254
1745666607.531315,0.009686076082289219,-0.012615454383194447,-0.2656640112400055,0.41670385003089905,-0.6711881756782532,-9.695463180541992
1745666607.5350237,-0.009153574705123901,-0.015938911586999893,-0.26488080620765686,0.37698155641555786,-0.7357893586158752,-9.681832313537598
1745666607.539537,0.017420535907149315,-0.012458767741918564,-0.26419275999069214,0.3723061680793762,-0.48042482137680054,-9.659189224243164
1745666607.542079,-0.018097106367349625,-0.017912644892930984,-0.2664870321750641,0.455707848072052,-0.7931417226791382,-9.933402061462402
1745666607.570225,0.027325931936502457,-0.01164596900343895,-0.2651207149028778,0.3066731095314026,-0.5760316848754883,-9.901025772094727
1745666607.5727222,-0.003941200207918882,-0.018745481967926025,-0.26427164673805237,0.5314868092536926,-0.6454820036888123,-9.597095489501953
1745666607.5738313,0.004401639569550753,-0.017711138352751732,-0.26517006754875183,0.31738144159317017,-0.8085562586784363,-9.759498596191406
1745666607.5761786,-0.009729470126330853,-0.014656479470431805,-0.265402615070343,0.5286940336227417,-0.8086131811141968,-9.679903030395508
1745666607.6130898,0.008809780701994896,-0.020438890904188156,-0.26288509368896484,0.3565340042114258,-0.7185569405555725,-9.59521770477295
1745666607.6165106,-0.009843933396041393,-0.01081011164933443,-0.2632181942462921,0.4684898853302002,-0.5914617776870728,-9.748102188110352
1745666607.6198342,0.0016098052728921175,-0.018401049077510834,-0.26180481910705566,0.3543245196342468,-0.7951802015304565,-9.972094535827637
1745666607.621993,0.020342573523521423,-0.01111534796655178,-0.2619895040988922,0.32183021306991577,-0.3211304247379303,-9.675409317016602
1745666607.6606183,-0.0068699209950864315,-0.019538218155503273,-0.26300519704818726,0.4509667754173279,-0.7650185227394104,-9.68671989440918
1745666607.6606681,0.03602687269449234,-0.012430212460458279,-0.2630946636199951,0.2509448826313019,-0.3967686593532562,-9.797179222106934
1745666607.6607056,0.0006711549940519035,-0.0146065354347229,-0.2639137804508209,0.5016692280769348,-0.7920485138893127,-9.764144897460938
1745666607.662424,0.016976159065961838,-0.015140119008719921,-0.2625964283943176,0.34010764956474304,-0.7099751234054565,-9.659026145935059
1745666607.6637685,0.004626053385436535,-0.012893701903522015,-0.2636953890323639,0.49280065298080444,-0.8056580424308777,-9.760995864868164
1745666607.6991723,-0.003825587686151266,-0.0209040530025959,-0.2596896290779114,0.37998420000076294,-0.798808217048645,-9.987187385559082
1745666607.7019937,-0.002557303523644805,-0.010822869837284088,-0.26176372170448303,0.4037608504295349,-0.5778377652168274,-9.776800155639648
1745666607.7041702,-0.007570220623165369,-0.020718690007925034,-0.26043885946273804,0.490882009267807,-0.9033061861991882,-9.623883247375488
1745666607.7071779,0.0027862198185175657,-0.014887921512126923,-0.2609213590621948,0.26075729727745056,-0.317642480134964,-9.629406929016113
1745666607.7432718,0.0014687165385112166,-0.003449582029134035,-0.2610722482204437,0.474525511264801,-0.8529208898544312,-9.841641426086426
1745666607.7472305,0.016443613916635513,-0.016818199306726456,-0.2604939043521881,0.37333670258522034,-0.4417782723903656,-9.593864440917969
1745666607.7492878,-0.00342531013302505,-0.009729504585266113,-0.2617211937904358,0.312614381313324,-0.6990415453910828,-9.84780502319336
1745666607.7505314,0.023816172033548355,-0.011861363425850868,-0.2570545971393585,0.42965084314346313,-0.629314124584198,-9.851006507873535
1745666607.7840855,0.0107631990686059,-0.0072185685858130455,-0.2594424784183502,0.2779463529586792,-0.47131356596946716,-9.626380920410156
1745666607.7855592,0.022610880434513092,-0.010283710435032845,-0.2579413056373596,0.5592585802078247,-0.7388091683387756,-9.555116653442383
1745666607.7866728,0.013400433585047722,-0.013691571541130543,-0.26179227232933044,0.36176958680152893,-0.5166534185409546,-9.937552452087402
1745666607.7890992,0.02166074700653553,-0.007500998675823212,-0.25845032930374146,0.4545941948890686,-0.7465153336524963,-10.067279815673828
1745666607.8276322,0.008111918345093727,-0.011994967237114906,-0.260187566280365,0.3608052134513855,-0.5449735522270203,-9.63632583618164
1745666607.8298042,0.01155305840075016,-0.011494380421936512,-0.2596520185470581,0.34108152985572815,-0.8840428590774536,-9.554322242736816
1745666607.8325062,0.013862269930541515,-0.016721168532967567,-0.26097550988197327,0.47923144698143005,-0.5370470881462097,-9.656034469604492
1745666607.8351495,-0.004135298077017069,-0.00575922941789031,-0.25850343704223633,0.35505449771881104,-0.5994378328323364,-10.032100677490234
1745666607.838652,0.0295941773802042,-0.0077746352180838585,-0.2612242102622986,0.4512486457824707,-0.6360992789268494,-9.749688148498535
1745666607.8700304,0.007673308253288269,-0.01151539757847786,-0.2602395713329315,0.28937357664108276,-0.36946457624435425,-9.578886032104492
1745666607.8716016,0.02705797180533409,-0.010478909127414227,-0.26091668009757996,0.4797734320163727,-0.8308850526809692,-9.845124244689941
1745666607.8738804,0.019940217956900597,-0.014911236241459846,-0.2584208846092224,0.31142720580101013,-0.5084287524223328,-9.90420150756836
1745666607.8822224,0.026489023119211197,-0.005418872460722923,-0.259319931268692,0.36231154203414917,-0.7459809184074402,-9.760324478149414
1745666607.9174933,0.016421843320131302,-0.013135850429534912,-0.25931018590927124,0.4715428948402405,-0.6562326550483704,-9.517782211303711
1745666607.9210796,0.017065761610865593,-0.008028878830373287,-0.2595371603965759,0.36316028237342834,-0.6509032249450684,-9.751626968383789
1745666607.9249947,0.016594544053077698,-0.013984853401780128,-0.2614976465702057,0.5809254050254822,-0.6224042177200317,-9.883357048034668
1745666607.928729,-0.004602807108312845,-0.011458909139037132,-0.26179787516593933,0.24240174889564514,-0.7303364276885986,-10.02680778503418
1745666607.9316106,0.0322670117020607,-0.009485817514359951,-0.2619897723197937,0.4279398024082184,-0.6416694521903992,-9.597384452819824
1745666607.9575036,-0.00852673314511776,-0.015712205320596695,-0.2609178423881531,0.390685498714447,-0.517424464225769,-9.499221801757812
1745666607.9579768,0.032557837665081024,-0.014541544020175934,-0.26079460978507996,0.4817329943180084,-0.6066489815711975,-9.595660209655762
1745666607.9613607,0.019223365932703018,-0.015546789392828941,-0.2607637047767639,0.3125503659248352,-0.6108919382095337,-9.8223295211792
1745666607.9624221,0.030382802709937096,-0.01028473675251007,-0.25930914282798767,0.45534929633140564,-0.7530328631401062,-9.94294548034668
1745666607.998343,0.00946270301938057,-0.011940600350499153,-0.26140421628952026,0.3423057198524475,-0.676064670085907,-9.6669921875
1745666608.0023851,0.030820559710264206,-0.008970269933342934,-0.26220494508743286,0.47046899795532227,-0.6976798176765442,-9.453924179077148
1745666608.002499,-0.008875294588506222,-0.016424551606178284,-0.2612374424934387,0.45338892936706543,-0.6949890851974487,-9.834732055664062
1745666608.0036855,0.021532800048589706,-0.006909899413585663,-0.2634667754173279,0.33954259753227234,-0.6697787046432495,-10.088507652282715
1745666608.0061295,0.008412637747824192,-0.013600677251815796,-0.2633979022502899,0.44224634766578674,-0.5597521066665649,-9.664204597473145
1745666608.0475247,0.003412242280319333,-0.012561420910060406,-0.2629431188106537,0.3155565857887268,-0.7566431760787964,-9.568399429321289
1745666608.0476696,0.025187134742736816,-0.014950737357139587,-0.2616458237171173,0.4945620894432068,-0.6194747090339661,-9.692179679870605
1745666608.0501132,0.002022871281951666,-0.01449249405413866,-0.2588541507720947,0.314769983291626,-0.6702214479446411,-9.987809181213379
1745666608.0536335,0.029476333409547806,-0.007028563413769007,-0.2576417624950409,0.4174273610115051,-0.6057194471359253,-9.694361686706543
1745666608.0877883,0.006458149291574955,-0.018452538177371025,-0.2604665160179138,0.4237942695617676,-0.637438178062439,-9.64782428741455
1745666608.092721,0.00547320069745183,-0.015944384038448334,-0.26393353939056396,0.46392887830734253,-0.784180223941803,-9.799978256225586
1745666608.0969326,0.015056517906486988,-0.013769489713013172,-0.261826753616333,0.24632537364959717,-0.5681840181350708,-9.808900833129883
1745666608.0998607,0.006944669876247644,-0.012096421793103218,-0.2656514346599579,0.4832756519317627,-0.6607813239097595,-9.667986869812012
1745666608.1302226,0.018808359280228615,-0.016296079382300377,-0.2614908218383789,0.3943761885166168,-0.5829307436943054,-9.680516242980957
1745666608.1321042,0.005715887527912855,-0.009362809360027313,-0.26628726720809937,0.4495255947113037,-0.480278342962265,-9.764047622680664
1745666608.1338081,0.006363200955092907,-0.015021850354969501,-0.2670896053314209,0.4295889437198639,-0.8364987373352051,-9.93617057800293
1745666608.1369963,0.02805262804031372,-0.009505725465714931,-0.2640935778617859,0.29761046171188354,-0.41644057631492615,-9.720318794250488
1745666608.1757176,-0.007459206972271204,-0.018135713413357735,-0.26608315110206604,0.47392892837524414,-0.8410159349441528,-9.673959732055664
1745666608.1779478,0.031019743531942368,-0.011399058625102043,-0.26468580961227417,0.28925031423568726,-0.4978836178779602,-9.762968063354492
1745666608.1798115,0.008107592351734638,-0.011563492938876152,-0.2648988664150238,0.4810643196105957,-0.6579815745353699,-9.759686470031738
1745666608.182305,0.018726471811532974,-0.010899151675403118,-0.26379793882369995,0.30809304118156433,-0.5961145162582397,-9.712560653686523
1745666608.1880593,0.020399032160639763,-0.010279538109898567,-0.2667505145072937,0.44150176644325256,-0.678972601890564,-9.773004531860352
1745666608.2163315,0.0103090088814497,-0.01906474679708481,-0.26508060097694397,0.379727303981781,-0.755630373954773,-9.951589584350586
1745666608.2192862,0.014972222037613392,-0.008423658087849617,-0.2639029920101166,0.32041406631469727,-0.4968253970146179,-9.7924165725708
1745666608.2224238,0.005889298859983683,-0.018150342628359795,-0.26214566826820374,0.4267359673976898,-0.9084262847900391,-9.659818649291992
1745666608.2225175,0.022191902622580528,-0.010899830609560013,-0.26488861441612244,0.3277565836906433,-0.3577776849269867,-9.546426773071289
1745666608.2584708,-0.007302357815206051,-0.012419046834111214,-0.26327547430992126,0.5676425695419312,-0.8418755531311035,-9.903907775878906
1745666608.2614393,0.024812329560518265,-0.01232933346182108,-0.26515012979507446,0.25723931193351746,-0.5431575775146484,-9.939714431762695
1745666608.2625864,0.007554435636848211,-0.009051252156496048,-0.26403406262397766,0.44304734468460083,-0.5808451771736145,-9.701632499694824
1745666608.2662437,0.011240361258387566,-0.017071891576051712,-0.26317042112350464,0.3637249171733856,-0.7435399889945984,-9.727556228637695
1745666608.2707503,0.019647330045700073,-0.012198077514767647,-0.2634771466255188,0.2980124354362488,-0.4977218508720398,-9.724623680114746
1745666608.3030097,0.008409595116972923,-0.016441021114587784,-0.2625705897808075,0.45368343591690063,-0.7647610306739807,-9.809693336486816
1745666608.3079035,-0.0003511883260216564,-0.010668803937733173,-0.2605198323726654,0.39683371782302856,-0.5456783175468445,-9.548897743225098
1745666608.3091156,0.010681777261197567,-0.017252473160624504,-0.26151973009109497,0.460615336894989,-0.7392536401748657,-9.802712440490723
1745666608.3434548,0.01907471753656864,-0.010093295015394688,-0.2642647325992584,0.3047058880329132,-0.26253265142440796,-9.854072570800781
1745666608.3459373,0.005749945528805256,-0.014630069956183434,-0.26327043771743774,0.550618588924408,-0.8596517443656921,-9.892892837524414
1745666608.3482735,0.021767746657133102,-0.016012806445360184,-0.2634742856025696,0.28285080194473267,-0.4584721028804779,-9.737360000610352
1745666608.351968,0.012943118810653687,-0.01605231501162052,-0.26234814524650574,0.445927232503891,-0.8150347471237183,-9.741188049316406
1745666608.35522,0.00963585264980793,-0.019527751952409744,-0.26083606481552124,0.3330462574958801,-0.654269814491272,-9.772140502929688
1745666608.389927,0.01050421129912138,-0.006938321981579065,-0.25899749994277954,0.40857821702957153,-0.6284396648406982,-9.686027526855469
1745666608.3925738,0.019594427198171616,-0.019013436511158943,-0.26144102215766907,0.44748538732528687,-0.615403413772583,-9.651864051818848
1745666608.3948402,0.0006386857712641358,-0.011252837255597115,-0.2629588544368744,0.3442729711532593,-0.4550727903842926,-9.852970123291016
1745666608.3990514,0.018274765461683273,-0.01818767562508583,-0.26326027512550354,0.5360272526741028,-0.8056095242500305,-9.967523574829102
1745666608.4296603,0.016904380172491074,-0.015843041241168976,-0.26492729783058167,0.2511407732963562,-0.4428617060184479,-9.720207214355469
1745666608.4330063,0.0019783831667155027,-0.01442110538482666,-0.2633494734764099,0.4687368869781494,-0.9624323844909668,-9.630253791809082
1745666608.4350517,0.01718446984887123,-0.015841934829950333,-0.25982391834259033,0.30647772550582886,-0.5673670172691345,-9.656340599060059
1745666608.4360502,0.029229288920760155,-0.012594930827617645,-0.26575833559036255,0.38307303190231323,-0.7937195897102356,-9.81375503540039
1745666608.4382153,0.03429529815912247,-0.016698380932211876,-0.26516908407211304,0.39976590871810913,-0.49486207962036133,-9.628064155578613
1745666608.4751437,0.019612643867731094,-0.01202327013015747,-0.26313748955726624,0.33713918924331665,-0.7323693633079529,-9.797164916992188
1745666608.479907,0.03302938863635063,-0.017984693869948387,-0.2643927037715912,0.4918384552001953,-0.7387825846672058,-9.798007011413574
1745666608.4830978,0.017362138256430626,-0.015962831676006317,-0.2627257704734802,0.3019365072250366,-0.6584854125976562,-9.843362808227539
1745666608.486357,0.027414556592702866,-0.01723981276154518,-0.26270121335983276,0.49858999252319336,-0.7552044987678528,-9.753225326538086
1745666608.5179298,0.0058922977186739445,-0.01894344575703144,-0.2635168135166168,0.37709784507751465,-0.5838804841041565,-9.706372261047363
1745666608.521298,0.03986251726746559,-0.015293637290596962,-0.26276132464408875,0.4176088869571686,-0.6767286062240601,-9.727858543395996
1745666608.522823,0.0008520334959030151,-0.017996490001678467,-0.26374995708465576,0.42827504873275757,-0.5547608137130737,-9.697135925292969
1745666608.5293064,0.026154283434152603,-0.011699294671416283,-0.2645983099937439,0.3122708201408386,-0.7473464012145996,-9.826906204223633
1745666608.557405,0.029675230383872986,-0.01928681693971157,-0.2642396092414856,0.4532243609428406,-0.48379650712013245,-9.71086311340332
1745666608.5605319,0.011186053045094013,-0.015502884984016418,-0.26496919989585876,0.25355368852615356,-0.6349135041236877,-9.850850105285645
1745666608.5621514,0.049577198922634125,-0.01370567362755537,-0.26589304208755493,0.489418089389801,-0.6200736165046692,-9.695274353027344
1745666608.5651984,0.01422878634184599,-0.01881977543234825,-0.26320192217826843,0.3731120526790619,-0.6574529409408569,-9.670469284057617
1745666608.5683277,0.04048178344964981,-0.013391589745879173,-0.2627686560153961,0.4165242612361908,-0.709078311920166,-9.742176055908203
1745666608.6049104,0.01869969628751278,-0.019606266170740128,-0.2622882127761841,0.4004901945590973,-0.7384803891181946,-9.860751152038574
1745666608.6049943,0.030083561316132545,-0.009644824080169201,-0.2634231150150299,0.2852194309234619,-0.6743003129959106,-9.802976608276367
1745666608.614672,0.011274551041424274,-0.017491504549980164,-0.2635624408721924,0.5086058974266052,-0.6147364377975464,-9.604503631591797
1745666608.6148076,0.021107768639922142,-0.01728965900838375,-0.2653499245643616,0.2577332556247711,-0.7466703653335571,-9.820841789245605
1745666608.644386,0.02745264209806919,-0.011895239353179932,-0.2657124698162079,0.4878295063972473,-0.4735206663608551,-9.691073417663574
1745666608.6483896,0.0015340365935117006,-0.014150905422866344,-0.2659962773323059,0.3472363352775574,-0.7401267290115356,-9.78901481628418
1745666608.651575,0.04237409681081772,-0.008330137468874454,-0.26649051904678345,0.3754754364490509,-0.5996316075325012,-9.671257972717285
1745666608.65795,0.02005363255739212,-0.01635199971497059,-0.2659672796726227,0.2859903872013092,-0.6515709161758423,-9.908050537109375
1745666608.689301,0.03541064262390137,-0.010248562321066856,-0.265535831451416,0.4146224856376648,-0.5335121154785156,-9.616838455200195
1745666608.6940293,0.0018581440672278404,-0.020322419703006744,-0.26581472158432007,0.37367695569992065,-0.8867391347885132,-9.769222259521484
1745666608.6981611,0.04055537283420563,-0.011249514296650887,-0.267753005027771,0.29347366094589233,-0.5260026454925537,-9.822240829467773
1745666608.7071953,0.00449626287445426,-0.016883324831724167,-0.2677844166755676,0.558659017086029,-0.6959099173545837,-9.788355827331543
1745666608.7072785,0.02700648084282875,-0.009612755849957466,-0.2647208571434021,0.3306162357330322,-0.7444728016853333,-9.701276779174805
1745666608.7311082,0.024810532107949257,-0.01446475274860859,-0.2655830979347229,0.496101438999176,-0.5574734807014465,-9.602816581726074
1745666608.7341616,0.014104465022683144,-0.015319975093007088,-0.2648676037788391,0.29257911443710327,-0.7658607363700867,-9.972359657287598
1745666608.7361042,0.03793749958276749,-0.007116880267858505,-0.2609395384788513,0.3507198393344879,-0.5135869979858398,-9.825315475463867
1745666608.7375386,0.018054572865366936,-0.01691542938351631,-0.26470327377319336,0.37984350323677063,-0.6730033159255981,-9.668593406677246
1745666608.7794435,0.03662087768316269,-0.012923486530780792,-0.2658584415912628,0.3307126462459564,-0.5011447072029114,-9.707297325134277
1745666608.7795448,0.01645132526755333,-0.016346249729394913,-0.26585260033607483,0.51576167345047,-0.7733457684516907,-9.821151733398438
1745666608.7840402,0.041653573513031006,-0.012776993215084076,-0.26786938309669495,0.3070351183414459,-0.5878257751464844,-9.760004997253418
1745666608.8167763,0.032299239188432693,-0.009951680898666382,-0.26555198431015015,0.4147367477416992,-0.839974045753479,-9.597829818725586
1745666608.8194861,0.03613876551389694,-0.02149803191423416,-0.2662537693977356,0.36950239539146423,-0.5328380465507507,-9.530774116516113
1745666608.8206782,0.018708789721131325,-0.0106227220967412,-0.265805721282959,0.32300901412963867,-0.736457347869873,-10.001348495483398
1745666608.8253965,0.042239416390657425,-0.017390718683600426,-0.26961812376976013,0.4791540205478668,-0.7370338439941406,-9.931222915649414
1745666608.826638,0.02350979670882225,-0.01239745132625103,-0.26786720752716064,0.344620019197464,-0.5478924512863159,-9.560544967651367
1745666608.8602693,0.023866955190896988,-0.01719905436038971,-0.2657588720321655,0.5704127550125122,-1.0763766765594482,-9.663500785827637
1745666608.8625188,0.03323787823319435,-0.01579185202717781,-0.26610657572746277,0.2717663049697876,-0.4325447976589203,-9.809507369995117
1745666608.874176,0.023240236565470695,-0.009033373557031155,-0.26475438475608826,0.4905933439731598,-0.8970061540603638,-9.910018920898438
1745666608.8742208,0.03470660746097565,-0.016895541921257973,-0.26236048340797424,0.3653011918067932,-0.5327650904655457,-9.612443923950195
1745666608.9025378,0.032036878168582916,-0.013978971168398857,-0.2661328911781311,0.3822997212409973,-0.6318637728691101,-9.699666023254395
1745666608.9059527,0.035118572413921356,-0.021967921406030655,-0.2648579180240631,0.42849722504615784,-0.6514586210250854,-9.928550720214844
1745666608.9089816,0.032856620848178864,-0.011508898809552193,-0.2679731547832489,0.26851531863212585,-0.5837635397911072,-9.807393074035645
1745666608.9113786,0.04602446407079697,-0.016093190759420395,-0.26565733551979065,0.5371078252792358,-0.8423815965652466,-9.469991683959961
1745666608.9135203,0.01822621002793312,-0.016305502504110336,-0.2669907212257385,0.34029102325439453,-0.604228138923645,-9.651497840881348
1745666608.9478927,0.03286310285329819,-0.013329776003956795,-0.2651258111000061,0.527640700340271,-1.0030744075775146,-9.99681568145752
1745666608.954551,0.031372420489788055,-0.018366128206253052,-0.2641330361366272,0.3339797556400299,-0.5239015817642212,-9.817209243774414
1745666608.9565852,0.019069787114858627,-0.012377050705254078,-0.26462340354919434,0.41609853506088257,-0.8715831637382507,-9.626655578613281
1745666608.9591856,0.03471306711435318,-0.01928352192044258,-0.2631087303161621,0.43895095586776733,-0.6772700548171997,-9.617440223693848
1745666608.9892795,0.035295091569423676,-0.01928645744919777,-0.25604119896888733,0.19209371507167816,-0.7330209612846375,-9.869607925415039
1745666608.9911652,0.04257569462060928,-0.018584344536066055,-0.25124016404151917,-0.04639619588851929,-0.8768617510795593,-9.730108261108398
1745666608.9935997,0.020839616656303406,-0.009642338380217552,-0.24132904410362244,-0.16706633567810059,-1.0920850038528442,-9.52079963684082
1745666608.9953249,-0.0057038371451199055,-0.05160464718937874,-0.22977428138256073,-0.2546446919441223,-1.4082796573638916,-9.888083457946777
1745666608.9966416,-0.07867880910634995,-0.06047419458627701,-0.1955229938030243,0.12609966099262238,-1.0824615955352783,-8.888872146606445
1745666609.0386703,0.007207890041172504,-0.06198818236589432,-0.19072690606117249,0.13077349960803986,0.3074784278869629,-10.167951583862305
1745666609.038839,-0.032840196043252945,-0.040433820337057114,-0.19492511451244354,-0.15041086077690125,-0.18632712960243225,-11.073716163635254
1745666609.0389495,0.04038477689027786,-0.053119026124477386,-0.19228683412075043,-0.1346505582332611,-0.6429871320724487,-9.336416244506836
1745666609.0400763,-0.013408338651061058,-0.06029476597905159,-0.19128169119358063,-0.03594379499554634,-0.55405592918396,-8.347186088562012
1745666609.0781078,-0.04120346158742905,-0.07000081241130829,-0.18647149205207825,-0.02370501682162285,-1.5655182600021362,-10.429097175598145
1745666609.083351,-0.011690686456859112,-0.047274649143218994,-0.1795531064271927,-0.13257810473442078,-0.4901341497898102,-10.532400131225586
1745666609.0870504,-0.0850641280412674,-0.03828126937150955,-0.17515547573566437,0.35998237133026123,-1.2696044445037842,-9.211634635925293
1745666609.0910592,-0.047674473375082016,-0.07189241796731949,-0.16806848347187042,0.13680076599121094,-0.9265645146369934,-8.911749839782715
1745666609.117822,-0.11621854454278946,-0.06783951818943024,-0.16805952787399292,0.18524447083473206,-0.7655298709869385,-10.30290412902832
1745666609.119565,-0.061178840696811676,-0.05159745365381241,-0.1626148819923401,-0.16028495132923126,-0.8549898266792297,-10.821998596191406
1745666609.121747,-0.08474372327327728,-0.044339220970869064,-0.16040417551994324,-0.16588835418224335,-0.16449661552906036,-9.025337219238281
1745666609.1228325,-0.07558558881282806,-0.08399802446365356,-0.16554108262062073,-0.16693618893623352,-0.4353765845298767,-9.01404857635498
1745666609.1250558,-0.06957458704710007,-0.06428142637014389,-0.16942666471004486,-0.35793817043304443,-0.2630717158317566,-10.161528587341309
1745666609.165505,-0.09540094435214996,0.007125889416784048,-0.015286740846931934,0.5198480486869812,-0.8709161877632141,-9.15151596069336
1745666609.1669157,-0.08305476605892181,-0.013004270382225513,-0.004253486171364784,0.9335213899612427,-0.6696590185165405,-9.80174446105957
1745666609.169191,-0.10190586000680923,0.003585127415135503,0.0031338080298155546,0.639697253704071,-0.450636625289917,-10.734966278076172
1745666609.1732917,-0.08695679157972336,0.021264171227812767,0.00879529770463705,0.15866389870643616,-0.4345936179161072,-10.080100059509277
1745666609.2077692,-0.10316605865955353,0.010259665548801422,0.008413238450884819,0.03768090531229973,-0.15947861969470978,-8.7514066696167
1745666609.2102518,-0.09713564813137054,0.014924375340342522,0.013520309701561928,0.11781557649374008,-0.29341211915016174,-9.36767292022705
1745666609.213999,-0.1019379124045372,0.021958407014608383,0.01459020096808672,0.25896406173706055,-0.17355965077877045,-10.5453462600708
1745666609.2172973,-0.0937977060675621,0.033960144966840744,0.017759401351213455,0.1876097470521927,-0.49012184143066406,-10.164285659790039
1745666609.2467837,-0.09596331417560577,0.040640585124492645,0.02671285904943943,0.5763438940048218,-0.5258787870407104,-9.073450088500977
1745666609.249141,-0.10886988788843155,0.028943413868546486,0.03620700538158417,0.5557698011398315,-0.5711785554885864,-9.576372146606445
1745666609.2510438,-0.09428969770669937,0.032593078911304474,0.046121545135974884,0.6979511380195618,-0.7584026455879211,-10.51893424987793
1745666609.252968,-0.12076832354068756,0.04387172684073448,0.057913877069950104,0.42456379532814026,-0.5461370348930359,-10.145635604858398
1745666609.2553165,-0.11513175070285797,0.04715779796242714,0.061437368392944336,0.14237245917320251,-0.4825119078159332,-9.242498397827148
1745666609.2927847,-0.1336423009634018,0.03531734272837639,0.06452116370201111,0.33919471502304077,-0.1928928792476654,-9.277326583862305
1745666609.296784,-0.13414479792118073,0.04481057450175285,0.06279212236404419,0.2190437763929367,-0.1711609959602356,-10.369778633117676
1745666609.301343,-0.1345556080341339,0.048904333263635635,0.059924133121967316,0.4331425726413727,-0.11361591517925262,-10.192476272583008
1745666609.304074,-0.1359906941652298,0.042625438421964645,0.06300042569637299,0.30453842878341675,-0.22026705741882324,-9.465229988098145
1745666609.3358028,-0.12585487961769104,0.05266261100769043,0.07101943343877792,0.4954838752746582,-0.4443514943122864,-9.431970596313477
1745666609.340534,-0.14278492331504822,0.04114445671439171,0.0802808552980423,0.539656400680542,-0.4978157579898834,-10.062721252441406
1745666609.3427439,-0.12537537515163422,0.05499112606048584,0.08961857855319977,0.5386152267456055,-0.43410825729370117,-10.019889831542969
1745666609.3449662,-0.12535588443279266,0.053888190537691116,0.10008616745471954,0.4574058949947357,-0.1255708634853363,-9.588371276855469
1745666609.384651,-0.1514197289943695,0.05939691141247749,0.12657293677330017,0.48116499185562134,-0.3336217701435089,-9.979310989379883
1745666609.3875363,-0.15760354697704315,0.06882397085428238,0.13337229192256927,0.5139976143836975,-0.2418752908706665,-9.742300033569336
1745666609.3909,-0.14925289154052734,0.05764787644147873,0.13616998493671417,0.28716522455215454,0.048943839967250824,-9.550113677978516
1745666609.395303,-0.14641092717647552,0.05428605154156685,0.13810159265995026,0.43181926012039185,-0.11758111417293549,-9.751065254211426
1745666609.419794,-0.13926848769187927,0.05825866013765335,0.137807235121727,0.20185506343841553,0.07901860773563385,-9.981760025024414
1745666609.423462,-0.14223870635032654,0.0667281299829483,0.14076633751392365,0.25820547342300415,-0.050372399389743805,-9.685673713684082
1745666609.4262083,-0.14114509522914886,0.052785176783800125,0.14173762500286102,0.5156177878379822,-0.07477934658527374,-9.389200210571289
1745666609.4276915,-0.14237451553344727,0.05666304752230644,0.14566126465797424,0.5638333559036255,-0.12757734954357147,-9.864689826965332
1745666609.429364,-0.15304750204086304,0.05138060450553894,0.14959824085235596,0.6803267598152161,-0.2927890419960022,-10.178129196166992
1745666609.4648502,-0.1465739756822586,0.05353763699531555,0.1547858864068985,0.40468066930770874,-0.1825893372297287,-9.713476181030273
1745666609.4684122,-0.1547209471464157,0.05737712234258652,0.16278377175331116,0.5755329132080078,-0.28603631258010864,-9.273866653442383
1745666609.4727094,-0.15446536242961884,0.048490144312381744,0.16931435465812683,0.3618454933166504,-0.0509694442152977,-9.726591110229492
1745666609.4734032,-0.15025058388710022,0.05133332684636116,0.17029215395450592,0.4310544431209564,0.10162930190563202,-9.992776870727539
1745666609.5042121,-0.14645211398601532,0.04965364187955856,0.17016194760799408,0.35697776079177856,0.10842102766036987,-9.759634971618652
1745666609.508388,-0.1330200731754303,0.05748105049133301,0.16969338059425354,0.27065739035606384,0.22708067297935486,-9.474308967590332
1745666609.5096927,-0.1388084590435028,0.010160724632441998,0.23861996829509735,0.40438514947891235,0.18991273641586304,-9.902851104736328
1745666609.512337,-0.15006741881370544,-0.003822912694886327,0.2391677349805832,0.5036196112632751,0.2802360951900482,-9.464953422546387
1745666609.5159898,-0.14411742985248566,-0.0015732828760519624,0.2400711476802826,0.48514705896377563,0.116463303565979,-9.703983306884766
1745666609.5507905,-0.15125957131385803,-0.004639435559511185,0.24303099513053894,0.5934041738510132,0.16481450200080872,-9.958760261535645
1745666609.552285,-0.1574835479259491,-0.0004132579197175801,0.2455262839794159,0.3127051889896393,0.1900283247232437,-9.8424072265625
1745666609.5544825,-0.14471347630023956,-0.006250110454857349,0.2480722963809967,0.5506170392036438,0.2429310828447342,-9.397629737854004
1745666609.5579343,-0.16156694293022156,-0.010428646579384804,0.2488095462322235,0.37229037284851074,0.3915349841117859,-9.722394943237305
1745666609.5941942,-0.1498745083808899,-0.007143790367990732,0.24902884662151337,0.46327072381973267,0.18749961256980896,-10.09129524230957
1745666609.596239,-0.14763112366199493,-0.010237494483590126,0.25062501430511475,0.47569185495376587,0.4015342593193054,-9.67791748046875
1745666609.6043952,-0.1467178612947464,-0.003617816837504506,0.2530422806739807,0.3310113549232483,0.3051251471042633,-9.511873245239258
1745666609.6045191,-0.14758960902690887,-0.01799948699772358,0.2541379928588867,0.5133481621742249,0.23944643139839172,-9.732220649719238
1745666609.6360931,-0.14705340564250946,-0.012464044615626335,0.256380170583725,0.4336594045162201,0.40264591574668884,-9.961549758911133
1745666609.6399662,-0.1407316029071808,-0.010371245443820953,0.25684547424316406,0.5954118967056274,0.23068097233772278,-9.776273727416992
1745666609.6437645,-0.14835593104362488,-0.017812339588999748,0.2599565088748932,0.33453094959259033,0.4013012945652008,-9.62714672088623
1745666609.6460893,-0.14477382600307465,-0.0180092491209507,0.2584336996078491,0.5258078575134277,0.18254999816417694,-9.752389907836914
1745666609.6478133,-0.15233315527439117,-0.01705334335565567,0.2625119984149933,0.4713079035282135,0.44932037591934204,-9.81035041809082
1745666609.682918,-0.15039169788360596,-0.016456086188554764,0.2620166838169098,0.324725866317749,0.2446635663509369,-9.840129852294922
1745666609.6873536,-0.14780345559120178,-0.02460321970283985,0.2646823525428772,0.5616942644119263,0.4075288772583008,-9.61235523223877
1745666609.6973577,-0.15158124268054962,-0.01767605170607567,0.26441532373428345,0.36320188641548157,0.4356270432472229,-9.830591201782227
1745666609.697474,-0.14610065519809723,-0.022448759526014328,0.26750656962394714,0.4622364044189453,0.31580880284309387,-9.856663703918457
1745666609.7209063,-0.1438445746898651,-0.024726305156946182,0.26985853910446167,0.3411918580532074,0.46432551741600037,-9.68302059173584
1745666609.7253006,-0.14223332703113556,-0.034018624573946,0.2823109030723572,0.3599199652671814,0.4646598696708679,-9.664789199829102
1745666609.7262022,-0.14303940534591675,-0.023451555520296097,0.2839197516441345,0.445006787776947,0.4795655608177185,-9.721392631530762
1745666609.7295232,-0.14493019878864288,-0.02719098888337612,0.2853200435638428,0.4735379219055176,0.3748059570789337,-9.947359085083008
1745666609.7696993,-0.13352450728416443,-0.02715032733976841,0.28700655698776245,0.3492310643196106,0.7080463171005249,-9.779205322265625
1745666609.7697704,-0.13775959610939026,-0.03299745172262192,0.2856281101703644,0.526751697063446,0.38602977991104126,-9.773110389709473
1745666609.7698238,-0.13048604130744934,-0.026242827996611595,0.2865135073661804,0.2810184359550476,0.682965874671936,-9.84483814239502
1745666609.774042,-0.1426374465227127,-0.026316145434975624,0.2866423726081848,0.44927462935447693,0.35939639806747437,-9.82255744934082
1745666609.77514,-0.129211887717247,-0.035135459154844284,0.2875138223171234,0.4237450063228607,0.5423329472541809,-9.66025161743164
1745666609.808171,-0.14073030650615692,-0.02604517713189125,0.28868603706359863,0.3974786698818207,0.5350281596183777,-9.846132278442383
1745666609.8100011,-0.14598555862903595,-0.034730684012174606,0.2909245789051056,0.466574102640152,0.2992483973503113,-9.976737022399902
1745666609.8110626,-0.12728875875473022,-0.0286411140114069,0.29384946823120117,0.43720394372940063,0.6876301169395447,-9.686830520629883
1745666609.8147306,-0.1461324542760849,-0.027385849505662918,0.2941315770149231,0.48067742586135864,0.42429208755493164,-9.74275016784668
1745666609.8489766,-0.12688027322292328,-0.03374018892645836,0.29718518257141113,0.2461966574192047,0.650438666343689,-9.896288871765137
1745666609.8541636,-0.13178342580795288,-0.02552797459065914,0.29569438099861145,0.48073968291282654,0.5135580897331238,-9.73225212097168
1745666609.8621056,-0.12833699584007263,-0.031640421599149704,0.29658952355384827,0.33974605798721313,0.5676371455192566,-9.717373847961426
1745666609.8622131,-0.13299499452114105,-0.022498657926917076,0.3139245808124542,0.2939344048500061,0.8366683125495911,-9.650716781616211
1745666609.863406,-0.11330214887857437,-0.027061641216278076,0.3139569163322449,0.42086130380630493,0.6723468899726868,-9.908943176269531
1745666609.8950343,-0.12723328173160553,-0.031096279621124268,0.31545490026474,0.38530606031417847,0.8728753328323364,-9.786240577697754
1745666609.8972728,-0.10194315016269684,-0.02023686096072197,0.31418874859809875,0.42237401008605957,0.8101345896720886,-9.711421012878418
1745666609.89936,-0.11663348972797394,-0.030704613775014877,0.315861314535141,0.41718873381614685,0.8537130355834961,-9.783625602722168
1745666609.9025068,-0.11187803745269775,-0.028959086164832115,0.31358852982521057,0.3221138119697571,0.7557340860366821,-9.905412673950195
1745666609.9390438,-0.10056933015584946,-0.027530720457434654,0.31445151567459106,0.5859984159469604,0.7453430891036987,-9.612236022949219
1745666609.9424057,-0.12818849086761475,-0.02682960405945778,0.3132052421569824,0.23433442413806915,0.8486064672470093,-9.779778480529785
1745666609.9503264,-0.10432746261358261,-0.03206895291805267,0.3154006600379944,0.5259018540382385,0.5847932696342468,-9.80720329284668
1745666609.9503994,-0.11875929683446884,-0.027030576020479202,0.31628578901290894,0.4201318323612213,0.8797496557235718,-9.728212356567383
1745666609.979254,-0.111803337931633,-0.019971927627921104,0.3188510537147522,0.33646339178085327,0.745907187461853,-9.759222030639648
1745666609.9831111,-0.10822254419326782,-0.03747563809156418,0.318046897649765,0.4065256118774414,0.8148462176322937,-9.676979064941406
1745666609.989181,-0.10784456878900528,-0.020977089181542397,0.3194238841533661,0.36728349328041077,0.9191786646842957,-9.739736557006836
1745666609.9945998,-0.09501204639673233,-0.02695012092590332,0.31781142950057983,0.5269509553909302,0.7884606122970581,-9.791296005249023
1745666609.9981854,-0.10545854270458221,-0.028962796553969383,0.317154198884964,0.22293618321418762,1.0028631687164307,-9.886868476867676
1745666610.0236971,-0.09407882392406464,-0.027943696826696396,0.3168864846229553,0.5030766725540161,0.5919337272644043,-9.722440719604492
1745666610.0282457,-0.10755376517772675,-0.024489542469382286,0.31819385290145874,0.364066481590271,0.9617165327072144,-9.496648788452148
1745666610.0367093,-0.10804059356451035,-0.027219098061323166,0.316189706325531,0.3789874017238617,0.6315960884094238,-9.801114082336426
1745666610.036793,-0.10567189753055573,-0.03386106342077255,0.3184449374675751,0.5284877419471741,0.8035904765129089,-9.837848663330078
1745666610.065797,-0.11169479042291641,-0.01791728101670742,0.3197660744190216,0.3455076813697815,0.9212427139282227,-9.802446365356445
1745666610.0689068,-0.10974903404712677,-0.031883638352155685,0.31838542222976685,0.48356398940086365,0.7523813247680664,-9.65377140045166
1745666610.0735364,-0.0990423709154129,-0.025643328204751015,0.3194650113582611,0.45900797843933105,0.6768451929092407,-9.945573806762695
1745666610.0762234,-0.09019431471824646,-0.031028464436531067,0.3197251856327057,0.2632412910461426,0.9475639462471008,-9.795167922973633
1745666610.108157,-0.09128282219171524,-0.021538201719522476,0.3206160068511963,0.45036157965660095,0.8566741943359375,-9.453908920288086
1745666610.110374,-0.09551911056041718,-0.029980704188346863,0.32010167837142944,0.35884028673171997,0.8579915761947632,-9.658903121948242
1745666610.1124942,-0.08781656622886658,-0.027536367997527122,0.32109516859054565,0.3457106053829193,1.089760184288025,-9.89251708984375
1745666610.1150799,-0.08725570142269135,-0.028856683522462845,0.3190101087093353,0.4804718494415283,0.8113754391670227,-9.840032577514648
1745666610.1159139,-0.07586568593978882,-0.019989660009741783,0.31839245557785034,0.2898758053779602,1.1346760988235474,-9.573423385620117
1745666610.1560285,-0.0951259508728981,-0.029829848557710648,0.3203824758529663,0.47527098655700684,0.6377037167549133,-9.613225936889648
1745666610.1576495,-0.07722528278827667,-0.03317463397979736,0.3194519877433777,0.37046971917152405,0.9827292561531067,-9.726372718811035
1745666610.164659,-0.09334331750869751,-0.017071541398763657,0.32144683599472046,0.4151400923728943,0.8757071495056152,-9.879595756530762
1745666610.1680832,-0.0976124256849289,-0.03033219650387764,0.3199872672557831,0.37564927339553833,0.8195362091064453,-9.711698532104492
1745666610.1945837,-0.0746736228466034,-0.02542378567159176,0.3191993236541748,0.46313586831092834,1.0895459651947021,-9.488157272338867
1745666610.1959507,-0.09754055738449097,-0.02424883283674717,0.3205624222755432,0.4364432692527771,0.8888537287712097,-9.868875503540039
1745666610.1982744,-0.07440216839313507,-0.025519991293549538,0.3205217719078064,0.22340741753578186,1.0896894931793213,-9.895339012145996
1745666610.1997638,-0.08137760311365128,-0.027068963274359703,0.3219528794288635,0.52909916639328,0.8988563418388367,-9.47901725769043
1745666610.201712,-0.022264432162046432,-0.03165842965245247,0.31833621859550476,0.5406188368797302,0.9636421203613281,-9.432258605957031
1745666610.2387066,-0.03201303258538246,-0.020081985741853714,0.3191946744918823,0.30867621302604675,1.1146730184555054,-9.596452713012695
1745666610.24099,-0.02176040969789028,-0.025813153013586998,0.3209114968776703,0.43986621499061584,0.8470607995986938,-9.98318862915039
1745666610.2423506,-0.028556445613503456,-0.025935346260666847,0.31821998953819275,0.36092904210090637,1.1749528646469116,-9.757613182067871
1745666610.2458043,-0.009849515743553638,-0.02003227360546589,0.31915757060050964,0.488198459148407,0.9887970685958862,-9.561973571777344
1745666610.280913,-0.022725334390997887,-0.029295921325683594,0.31814658641815186,0.345783531665802,1.1536980867385864,-9.756547927856445
1745666610.2820623,-0.011215073987841606,-0.02645237371325493,0.31820493936538696,0.33871811628341675,1.016405701637268,-9.915815353393555
1745666610.285565,-0.0016184782143682241,-0.026400834321975708,0.31776267290115356,0.4902128279209137,1.0414810180664062,-9.564733505249023
1745666610.286401,-0.014852561056613922,-0.021564632654190063,0.3160521984100342,0.1989193707704544,1.1155343055725098,-9.687755584716797
1745666610.3242555,-0.003319817828014493,-0.031859807670116425,0.31736433506011963,0.5555931329727173,0.8272267580032349,-9.81334400177002
1745666610.3292427,-0.006503658834844828,-0.027439434081315994,0.3166055679321289,0.36994585394859314,1.1539623737335205,-9.801080703735352
1745666610.3362176,-0.0021077143028378487,-0.018424388021230698,0.31796497106552124,0.38770660758018494,0.8777843713760376,-9.740842819213867
1745666610.3363028,-0.0042859651148319244,-0.034267131239175797,0.3170430064201355,0.3243693709373474,1.019435167312622,-9.577751159667969
1745666610.3363464,-0.004339268896728754,-0.021200334653258324,0.31826072931289673,0.42733460664749146,0.9844120144844055,-9.658586502075195
1745666610.368749,-0.001151797128841281,-0.02569563314318657,0.31823891401290894,0.4531555771827698,0.9750343561172485,-9.875481605529785
1745666610.3702815,-0.004889477975666523,-0.023614156991243362,0.3156817853450775,0.20859090983867645,1.1513108015060425,-9.896220207214355
1745666610.3725605,0.0025039881002157927,-0.02586725354194641,0.31611448526382446,0.5209742784500122,0.807812511920929,-9.567143440246582
1745666610.3759289,-0.00039924122393131256,-0.02362075075507164,0.3161669671535492,0.3104860484600067,1.2585055828094482,-9.542694091796875
1745666610.4112003,-0.005774673540145159,-0.026287207379937172,0.31673651933670044,0.409795343875885,0.7880831360816956,-9.963521957397461
1745666610.4175506,0.0077361962758004665,-0.030030012130737305,0.3139723241329193,0.43062344193458557,1.0680015087127686,-9.81876277923584
1745666610.4201252,0.00039312877925112844,-0.014155241660773754,0.31591659784317017,0.40495744347572327,1.0895531177520752,-9.614364624023438
1745666610.4246228,0.022699076682329178,-0.018766243010759354,0.3161768913269043,0.4039468765258789,1.1013681888580322,-9.720602035522461
1745666610.451484,0.000763044401537627,-0.025984490290284157,0.31688863039016724,0.3925996422767639,0.7914352416992188,-10.042566299438477
1745666610.455205,0.024042872712016106,-0.026073578745126724,0.3164258301258087,0.3064909875392914,1.114640474319458,-9.692909240722656
1745666610.4573936,0.013638826087117195,-0.021011201664805412,0.31630751490592957,0.5267175436019897,0.9530463218688965,-9.493215560913086
1745666610.4597857,0.01335143018513918,-0.024404047057032585,0.3171800971031189,0.23239025473594666,0.9632469415664673,-9.865132331848145
1745666610.4646418,0.024338480085134506,-0.020800357684493065,0.31820911169052124,0.4344044625759125,1.0417225360870361,-9.801700592041016
1745666610.4984798,0.014282439835369587,-0.026884760707616806,0.3153105676174164,0.403843492269516,0.9036580324172974,-9.679753303527832
1745666610.5027156,0.029663119465112686,-0.01566126197576523,0.3157810866832733,0.3433093726634979,1.0858741998672485,-9.703283309936523
1745666610.5077395,0.005300954449921846,-0.030545365065336227,0.316017210483551,0.4051826596260071,0.8115606307983398,-9.821439743041992
1745666610.5099037,0.03362628445029259,-0.02040839195251465,0.314680814743042,0.32634076476097107,1.1098573207855225,-9.70921516418457
1745666610.5376506,0.010989191010594368,-0.017699938267469406,0.3143630921840668,0.4599124491214752,0.909210205078125,-9.668874740600586
1745666610.5403306,0.014156250283122063,-0.026971448212862015,0.3153631091117859,0.2468186318874359,0.9370731115341187,-9.841436386108398
1745666610.5416095,0.030744966119527817,-0.023376494646072388,0.3155119717121124,0.48360323905944824,0.9764605760574341,-9.64734935760498
1745666610.5445948,0.009262758307158947,-0.01911497861146927,0.31689560413360596,0.29273542761802673,0.9144827723503113,-9.735135078430176
1745666610.5446985,0.03370530158281326,-0.017080899327993393,0.3162979483604431,0.31953516602516174,0.9694118499755859,-9.688197135925293
