timestamp,angular_vel_x,angular_vel_y,angular_vel_z,linear_acc_x,linear_acc_y,linear_acc_z
1745730370.0064757,0.008486694656312466,0.001250017317943275,0.0010456058662384748,0.2356555014848709,0.053468991070985794,-9.775979042053223
1745730370.0067682,-0.005300252698361874,-0.001935635693371296,0.0013448044192045927,0.37080541253089905,-0.018197419121861458,-9.787640571594238
1745730370.0068083,0.006416962947696447,-0.0025773721281439066,0.0010834125569090247,0.21511554718017578,0.14076153934001923,-9.795061111450195
1745730370.0080988,-0.0006425498286262155,0.0025951950810849667,-0.0004847838426940143,0.36426645517349243,-0.07885777950286865,-9.77880859375
1745730370.009451,0.0030407279264181852,-0.002251014579087496,0.0021321114618331194,0.2714718282222748,0.1597261130809784,-9.744573593139648
1745730370.0349097,0.0018152229022234678,0.0003032173262909055,-0.0009127067169174552,0.2914299964904785,-0.061349473893642426,-9.823519706726074
1745730370.0402715,-0.0021902481094002724,-0.001352907158434391,0.00019939258345402777,0.3215782046318054,0.12351975589990616,-9.772361755371094
1745730370.0403905,0.006599191576242447,0.0007938946364447474,0.0016565369442105293,0.2569736838340759,0.019267765805125237,-9.804655075073242
1745730370.0437741,-0.004399376455694437,-0.0013142067473381758,-0.00010315375402569771,0.37785083055496216,0.018311886116862297,-9.751324653625488
1745730370.0764186,0.00746019696816802,-0.0021951659582555294,0.0010053610894829035,0.21748706698417664,0.09844555705785751,-9.760839462280273
1745730370.0798192,-0.003144244896247983,0.0011018627556040883,0.0006499616429209709,0.38156241178512573,-0.05900942161679268,-9.798253059387207
1745730370.082937,0.005144568160176277,-0.0011636235285550356,3.0447588869719766e-05,0.24180659651756287,0.16722089052200317,-9.778315544128418
1745730370.0851228,0.001738023362122476,0.0006154318107292056,0.0008184565231204033,0.32191407680511475,-0.08515391498804092,-9.788731575012207
1745730370.0879874,-0.00031565717654302716,-0.0037534800358116627,0.0015702161472290754,0.2938873767852783,0.13025353848934174,-9.753438949584961
1745730370.1247551,0.00789718795567751,-0.0010170359164476395,0.0003863392339553684,0.21559444069862366,0.1072305291891098,-9.799123764038086
1745730370.1248126,-0.004317688290029764,0.0010309531353414059,0.002025714609771967,0.3664171099662781,-0.03878520056605339,-9.801960945129395
1745730370.1264167,0.006942234002053738,-0.0025487644597887993,0.0005727397510781884,0.22612988948822021,0.15140151977539062,-9.780723571777344
1745730370.1299725,-1.17918480100343e-05,0.003377601969987154,0.0012991445837542415,0.33494195342063904,-0.0645742267370224,-9.787798881530762
1745730370.1635165,0.0007942094234749675,-0.0030237038154155016,8.035134669626132e-05,0.2941126227378845,0.15050308406352997,-9.758659362792969
1745730370.1651502,0.0029951247852295637,0.0005319951451383531,0.0002099411067320034,0.27436214685440063,-0.04928286001086235,-9.806963920593262
1745730370.1663888,-0.0027091451920568943,-0.0030134005937725306,0.0028255346696823835,0.3366760313510895,0.0938524603843689,-9.764004707336426
1745730370.168615,0.00573382806032896,0.0005085025914013386,-0.00025520235067233443,0.22872285544872284,0.0393550731241703,-9.79478645324707
1745730370.2066257,-0.003028369741514325,-0.0020028124563395977,0.0034509904216974974,0.37718451023101807,-0.021719085052609444,-9.773675918579102
1745730370.2092245,0.006680968217551708,-0.0011681090109050274,-0.0002905509027186781,0.21201300621032715,0.13858464360237122,-9.782690048217773
1745730370.210301,-0.004091600421816111,0.0004190569743514061,-0.00019574511679820716,0.3546169698238373,-0.060494400560855865,-9.807487487792969
1745730370.2120204,0.0034656270872801542,-0.0020451247692108154,0.002265223767608404,0.254474937915802,0.15753208100795746,-9.775993347167969
1745730370.2161605,0.0022185640409588814,0.001613260479643941,0.0017228921642526984,0.3066225051879883,-0.06026969105005264,-9.801835060119629
1745730370.2511625,-0.0017219173023477197,-0.001863469136878848,7.995427586138248e-05,0.3132091462612152,0.1401894986629486,-9.741899490356445
1745730370.2512174,0.0054196747951209545,0.0013578587677329779,0.002192108426243067,0.245777890086174,0.0076864599250257015,-9.805381774902344
1745730370.253255,-0.0023507773876190186,-0.0004328203503973782,0.0010187964653596282,0.3608836233615875,0.039093583822250366,-9.776304244995117
1745730370.2584348,0.14033882319927216,-0.008790938183665276,-0.014462573453783989,0.5730928182601929,0.8055086135864258,-7.092611789703369
1745730370.2949674,0.10466517508029938,-0.025070618838071823,-0.028608661144971848,0.4886024594306946,0.2827870845794678,-9.805516242980957
1745730370.3035302,0.12547513842582703,0.014415532350540161,-0.045149143785238266,0.3354957103729248,0.11554551124572754,-12.300524711608887
1745730370.3036268,0.02242608740925789,0.027360856533050537,-0.04662460833787918,0.6113570332527161,-1.8525902032852173,-9.764883995056152
1745730370.303717,0.021831462159752846,0.002730212640017271,-0.03337792307138443,0.517316997051239,-0.8776100277900696,-7.161386966705322
1745730370.34566,-0.04174493998289108,0.0033540658187121153,-0.021825497969985008,0.4759581685066223,-0.5974999666213989,-9.68376350402832
1745730370.3461845,-0.06363064050674438,0.02436579391360283,-0.01930309645831585,0.6015356779098511,-0.48502930998802185,-11.890158653259277
1745730370.348933,0.023122524842619896,0.03824649006128311,-0.02275637909770012,0.7148538827896118,0.9223125576972961,-9.491497993469238
1745730370.3690486,-0.008193868212401867,0.0015563281485810876,-0.027025019749999046,0.5132664442062378,0.6349309086799622,-8.592357635498047
1745730370.3848174,0.07417622208595276,-0.008582745678722858,-0.03464478999376297,-0.19936315715312958,0.8159850239753723,-10.273180961608887
1745730370.4049103,0.07503119111061096,0.032288558781147,-0.03695438802242279,0.13504520058631897,-0.020645052194595337,-10.746652603149414
1745730370.404978,0.08538366854190826,0.01978655345737934,-0.032063983380794525,0.47179046273231506,0.250727117061615,-9.17992877960205
1745730370.405031,0.09486830979585648,-0.0014001341769471765,-0.030151953920722008,0.5133099555969238,-0.09402831643819809,-9.01584243774414
1745730370.4050713,0.07516128569841385,0.010748099535703659,-0.031153548508882523,0.6351825594902039,-0.0709168091416359,-10.441476821899414
1745730370.486968,0.07426275312900543,0.030278880149126053,-0.04068870469927788,0.7266073822975159,-0.14001445472240448,-10.231781959533691
1745730370.4886827,0.03019934520125389,0.010777548886835575,-0.04709228128194809,1.0804269313812256,-0.43610692024230957,-9.183340072631836
1745730370.4891899,0.02693912945687771,-0.0022502331994473934,-0.04912473261356354,0.9009591937065125,-0.0642106756567955,-9.838854789733887
1745730370.499125,0.021440427750349045,0.02372932992875576,-0.055128313601017,0.3564017415046692,0.02117694355547428,-10.736372947692871
1745730370.500832,0.04538996145129204,0.044412434101104736,-0.06879095733165741,0.7771273255348206,0.5568357706069946,-8.866963386535645
1745730370.5008943,0.07095973193645477,0.03253958746790886,-0.07663280516862869,0.9367416501045227,0.5928488969802856,-8.531075477600098
1745730370.506212,0.11231305450201035,0.011956979520618916,-0.08214808255434036,1.0176525115966797,0.6853108406066895,-10.337455749511719
1745730370.5411508,0.12558956444263458,0.08775285631418228,-0.13249526917934418,0.6499202251434326,0.37291887402534485,-8.547801971435547
1745730370.541276,0.13081364333629608,0.06403818726539612,-0.13695040345191956,0.8304225206375122,0.8498340845108032,-8.712448120117188
1745730370.5491498,0.21157260239124298,0.07108546793460846,-0.14804160594940186,0.58168625831604,0.9992058873176575,-10.95147705078125
1745730370.5721443,0.2469022274017334,0.09613235294818878,-0.16084033250808716,0.701229453086853,0.5120581388473511,-10.610140800476074
1745730370.5722148,0.25323158502578735,0.08609066903591156,-0.16761240363121033,0.664359450340271,0.2079942673444748,-8.522397994995117
1745730370.572266,0.26098719239234924,0.07647185772657394,-0.17251646518707275,0.6984006762504578,-0.3302658200263977,-8.910703659057617
1745730370.572737,0.2174125611782074,0.08513273298740387,-0.17368564009666443,0.9405628442764282,-0.38998332619667053,-10.74150562286377
1745730370.5728056,0.22967877984046936,0.10953426361083984,-0.18156620860099792,1.0237890481948853,-0.6261593699455261,-10.359197616577148
1745730370.5773244,0.1802556812763214,0.09427820146083832,-0.18658699095249176,1.1090173721313477,-0.4426942765712738,-8.67720890045166
1745730370.5791445,0.17002210021018982,0.07980206608772278,-0.19230815768241882,0.9444241523742676,-0.28597623109817505,-9.107585906982422
1745730370.5873137,0.17450395226478577,0.1007239818572998,-0.1998414546251297,0.8321394920349121,-0.19513334333896637,-10.68548583984375
1745730370.5958197,0.17565378546714783,0.10653519630432129,-0.20290212333202362,0.67218017578125,-0.01729077659547329,-10.101030349731445
1745730370.5974493,0.19778598845005035,0.105582095682621,-0.20630736649036407,0.6616237163543701,-0.03277534246444702,-8.746652603149414
1745730370.604281,0.21002963185310364,0.08996864408254623,-0.20622730255126953,0.48032790422439575,0.18657654523849487,-9.301226615905762
1745730370.655,0.24606263637542725,0.10706724226474762,-0.21332912147045135,0.6454417705535889,0.0900895968079567,-10.404280662536621
1745730370.657831,0.16621017456054688,0.008714635856449604,-0.32087570428848267,1.042299747467041,-0.665486216545105,-9.55583381652832
1745730370.657915,0.16205129027366638,0.0028000257443636656,-0.32397228479385376,1.1644761562347412,-0.9140825271606445,-9.953518867492676
1745730370.6582065,0.13790982961654663,0.010239006951451302,-0.32595375180244446,1.0266138315200806,-0.661574125289917,-9.971766471862793
1745730370.6608176,0.14964212477207184,0.005822405219078064,-0.32562845945358276,0.763841450214386,-0.761822521686554,-9.507074356079102
1745730370.7012618,0.1607162058353424,0.00020544827566482127,-0.32814449071884155,1.0426373481750488,-0.47805255651474,-9.248979568481445
1745730370.7013345,0.15766583383083344,0.0009116760338656604,-0.32763805985450745,0.7880092263221741,-0.33335843682289124,-9.897012710571289
1745730370.7013881,0.18035197257995605,-0.000695934344548732,-0.3336268663406372,1.0260717868804932,-0.5895155668258667,-10.098490715026855
1745730370.7167752,0.19968359172344208,-0.005990481469780207,-0.33615872263908386,0.9011393785476685,-0.21729426085948944,-9.53603458404541
1745730370.730245,0.18206092715263367,-0.009121703915297985,-0.3406227231025696,1.0332951545715332,-0.8570681810379028,-9.553988456726074
1745730370.7344582,0.18721303343772888,-0.018036603927612305,-0.3435390591621399,1.0990338325500488,-0.6382521986961365,-9.89504337310791
1745730370.7359343,0.168348491191864,-0.018323753029108047,-0.34526464343070984,1.113560438156128,-1.142639398574829,-10.0175142288208
1745730370.73646,0.1481233388185501,-0.020456820726394653,-0.34577709436416626,1.2199201583862305,-0.941999614238739,-9.608384132385254
1745730370.7458205,0.13449671864509583,-0.034042034298181534,-0.34802621603012085,0.9889030456542969,-0.9192846417427063,-9.655129432678223
1745730370.7723844,0.12566180527210236,-0.036072876304388046,-0.34693580865859985,1.1592063903808594,-0.8915284276008606,-9.95014762878418
1745730370.773977,0.12199711799621582,-0.03541320562362671,-0.3519119620323181,0.9119540452957153,-0.42997127771377563,-9.962074279785156
1745730370.775376,0.12263606488704681,-0.04394947364926338,-0.3547429144382477,0.8756721615791321,-0.8944772481918335,-9.719266891479492
1745730370.7770994,0.1473318636417389,-0.04963989183306694,-0.3566892743110657,0.8252900838851929,-0.2894039750099182,-9.405546188354492
1745730370.809929,0.136744424700737,-0.046829719096422195,-0.35893315076828003,0.8450843691825867,-0.7552226781845093,-9.860831260681152
1745730370.813126,0.16183343529701233,-0.05022282153367996,-0.35836324095726013,1.0106431245803833,-0.707502007484436,-9.806914329528809
1745730370.8131852,0.15802258253097534,-0.049016933888196945,-0.36003732681274414,0.8674529194831848,-0.6663150787353516,-9.618795394897461
1745730370.8167145,0.14942681789398193,-0.05594777315855026,-0.36026430130004883,1.118813157081604,-1.0023713111877441,-9.715367317199707
1745730370.8528192,0.12162353843450546,-0.07555533945560455,-0.37653136253356934,0.9588554501533508,-0.9341918230056763,-9.850809097290039
1745730370.8540943,0.15434758365154266,-0.07101479917764664,-0.37260934710502625,0.9182904362678528,-0.5669907331466675,-9.755401611328125
1745730370.8556004,0.13341103494167328,-0.07761596143245697,-0.37755686044692993,0.9442943334579468,-1.0736013650894165,-9.812495231628418
1745730370.8689866,0.13463452458381653,-0.0846615880727768,-0.3752879202365875,0.9963471293449402,-0.856188178062439,-9.679511070251465
1745730370.894986,0.12194938957691193,-0.07597189396619797,-0.3784967362880707,0.9587479829788208,-1.0590074062347412,-9.761628150939941
1745730370.8969636,0.10249602794647217,-0.08481103181838989,-0.38104844093322754,0.9532259106636047,-1.022766351699829,-9.838245391845703
1745730370.899157,0.09795336425304413,-0.08656515926122665,-0.382708340883255,0.8570930361747742,-0.8347597122192383,-9.802614212036133
1745730370.9003327,0.07845164835453033,-0.08683981001377106,-0.38428086042404175,0.9593396186828613,-1.1635007858276367,-9.813182830810547
1745730370.9017432,0.09166889637708664,-0.0880265161395073,-0.3885369598865509,0.6880565881729126,-0.5964125394821167,-9.69041919708252
1745730370.9393218,0.08127616345882416,-0.08894068747758865,-0.3887614607810974,0.8887907266616821,-1.0198514461517334,-9.663003921508789
1745730370.9401615,0.1070547103881836,-0.08279908448457718,-0.38553670048713684,0.8210163116455078,-0.6003125309944153,-9.534002304077148
1745730370.9417915,0.10208890587091446,-0.08197730779647827,-0.38695400953292847,0.6005695462226868,-0.8046265840530396,-9.834197044372559
1745730370.9438584,0.11726666986942291,-0.08775763213634491,-0.38776880502700806,0.9266237020492554,-0.774328351020813,-9.667671203613281
1745730370.982067,0.12963488698005676,-0.0769442468881607,-0.38681894540786743,0.7498322129249573,-0.6733200550079346,-9.675647735595703
1745730370.9838738,0.11137412488460541,-0.08782627433538437,-0.39076659083366394,0.8503823280334473,-1.05074143409729,-9.927332878112793
1745730370.9857361,0.017715344205498695,-0.06943505257368088,-0.2805423140525818,0.4242013096809387,-0.19360175728797913,-12.40922737121582
1745730370.9875607,-0.015981560572981834,-0.08512174338102341,-0.2726002633571625,0.10166807472705841,-1.510750412940979,-6.755728721618652
1745730370.98939,-0.035233061760663986,-0.0982755795121193,-0.2585006356239319,0.5002694129943848,-1.2912776470184326,-6.519120693206787
1745730371.0312524,-0.13598021864891052,-0.11261379718780518,-0.24169258773326874,1.3506757020950317,-1.855068564414978,-12.25980281829834
1745730371.0313518,-0.06051252409815788,-0.05705612897872925,-0.23010912537574768,1.1134322881698608,-0.8596601486206055,-12.961280822753906
1745730371.031401,-0.12241242825984955,-0.04922813922166824,-0.21732380986213684,0.9149592518806458,-0.8318473100662231,-7.6082048416137695
1745730371.031456,-0.10870774835348129,-0.10656581073999405,-0.2033451348543167,0.8672526478767395,-0.5701050162315369,-6.95418643951416
1745730371.0674205,-0.09222002327442169,-0.10261565446853638,-0.19310392439365387,1.0249725580215454,-0.341435968875885,-11.76383113861084
1745730371.0704784,-0.045807547867298126,-0.0452549085021019,-0.18659907579421997,0.3680106997489929,-0.4940863251686096,-12.712592124938965
1745730371.0729444,-0.011732484214007854,-0.03980787470936775,-0.17398197948932648,-0.11705400049686432,-0.3195766508579254,-7.7686004638671875
1745730371.0758147,-0.028816869482398033,-0.08711467683315277,-0.16084587574005127,0.6073078513145447,-0.712807297706604,-6.587808132171631
1745730371.0772696,0.005691438913345337,-0.06923791021108627,-0.15381090342998505,0.3837808668613434,-0.48257946968078613,-11.551626205444336
1745730371.1123147,-0.022603262215852737,-0.031100735068321228,-0.15300659835338593,0.706851601600647,-1.3588626384735107,-12.739799499511719
1745730371.115195,-0.016439814120531082,-0.028841901570558548,-0.14219853281974792,0.7347723245620728,-1.514711618423462,-8.291558265686035
1745730371.1194677,-0.1061132401227951,-0.05335943028330803,-0.13071969151496887,0.6943150758743286,-1.834606409072876,-7.213313102722168
1745730371.120498,-0.13896246254444122,-0.06861940026283264,-0.11615429073572159,0.8456907272338867,-1.860982894897461,-11.045921325683594
1745730371.1535985,-0.17649655044078827,-0.02598493918776512,-0.10375376790761948,0.8201238512992859,-1.7143385410308838,-12.106840133666992
1745730371.156098,-0.20755049586296082,-0.010896192863583565,-0.09120917320251465,0.6419245004653931,-1.5133875608444214,-8.879894256591797
1745730371.1579854,-0.22243496775627136,-0.05014444515109062,-0.08569146692752838,0.19089028239250183,-0.5658613443374634,-7.516831398010254
1745730371.1612911,-0.23925228416919708,-0.04987447336316109,-0.0809747651219368,0.599067747592926,-0.8425588607788086,-10.524679183959961
1745730371.1970148,-0.18687699735164642,-0.014213765040040016,-0.07580442726612091,0.5877562761306763,-0.005778849124908447,-11.704405784606934
1745730371.199994,-0.2155216634273529,0.004816137719899416,-0.0062597570940852165,0.41675442457199097,-1.0738434791564941,-9.019990921020508
1745730371.2013152,-0.22515654563903809,0.0009385563316754997,0.006336993537843227,0.4107438921928406,-0.9574034810066223,-9.352848052978516
1745730371.2031085,-0.22617296874523163,0.005913475062698126,0.013539047911763191,0.6797858476638794,-0.8201748728752136,-10.20253849029541
1745730371.240436,-0.22848717868328094,0.009380487725138664,0.02343418076634407,0.8577240705490112,-0.7514113187789917,-10.327332496643066
1745730371.2416015,-0.20470628142356873,0.014473987743258476,0.02777639590203762,0.4105533957481384,-0.4365922510623932,-9.54194450378418
1745730371.2431486,-0.22680148482322693,0.011797134764492512,0.03429211676120758,0.503372311592102,-0.7405070066452026,-9.219499588012695
1745730371.2448506,-0.21256665885448456,0.0060530127957463264,0.04140510410070419,0.6577672362327576,-0.45427075028419495,-9.683900833129883
1745730371.2459662,-0.22701427340507507,0.02013881877064705,0.048594456166028976,0.680217981338501,-0.7536036372184753,-10.381613731384277
1745730371.2823834,-0.22126777470111847,0.017217259854078293,0.050550468266010284,0.5439416766166687,-0.371701180934906,-9.867609024047852
1745730371.2846663,-0.2307635098695755,0.0215755645185709,0.05604332685470581,0.5418980121612549,-0.5341464877128601,-9.188131332397461
1745730371.2871401,-0.23377983272075653,0.016061745584011078,0.05938522145152092,0.8339096903800964,-0.4038156569004059,-9.459760665893555
1745730371.2936049,-0.2314843237400055,0.016889261081814766,0.06374455988407135,0.7253890633583069,-0.4493989944458008,-10.42165470123291
1745730371.3249145,-0.22707799077033997,0.02172360196709633,0.07086995989084244,0.6780740022659302,-0.6033424139022827,-10.219493865966797
1745730371.3275042,-0.22077897191047668,0.02687118388712406,0.08051196485757828,0.4138961434364319,-0.4721340537071228,-9.081814765930176
1745730371.3296595,-0.22543449699878693,0.02836090698838234,0.08991168439388275,0.5506479740142822,-0.691778302192688,-9.155020713806152
1745730371.3315332,-0.2317659854888916,0.03834989294409752,0.21059775352478027,0.5964179635047913,-0.12010706961154938,-9.806572914123535
1745730371.332983,-0.24947819113731384,0.03395940363407135,0.21359007060527802,0.6734722852706909,-0.09981776773929596,-9.300809860229492
1745730371.3699808,-0.24600210785865784,0.020895224064588547,0.21461674571037292,0.6325925588607788,0.1347661018371582,-9.541078567504883
1745730371.3728864,-0.24829979240894318,0.026966679841279984,0.21898654103279114,0.7719129920005798,-0.15440988540649414,-10.158210754394531
1745730371.3733606,-0.24093382060527802,0.03393714874982834,0.22227028012275696,0.6418551206588745,0.15783068537712097,-9.892001152038574
1745730371.3756082,-0.24340006709098816,0.03138236328959465,0.2276463508605957,0.560962975025177,-0.09831316769123077,-9.404427528381348
1745730371.412789,-0.24375608563423157,0.017827849835157394,0.2311953604221344,0.6059861183166504,0.10129618644714355,-9.402791976928711
1745730371.4148734,-0.2323514223098755,0.028726935386657715,0.23914778232574463,0.6334968209266663,0.05602305009961128,-9.97825813293457
1745730371.4167209,-0.24284043908119202,0.029194558039307594,0.2386840581893921,0.6593766212463379,0.13230183720588684,-10.010190963745117
1745730371.418674,-0.22533492743968964,0.024642406031489372,0.24092593789100647,0.5031262636184692,0.1903103142976761,-9.506601333618164
1745730371.4188843,-0.23665189743041992,0.02444778010249138,0.24509155750274658,0.7318519353866577,0.0742860808968544,-9.429193496704102
1745730371.4601955,-0.23417456448078156,0.021223705261945724,0.2467060387134552,0.6161115765571594,0.13345354795455933,-9.95763874053955
1745730371.4602816,-0.23435649275779724,0.024675387889146805,0.24820442497730255,0.643947184085846,0.03319646045565605,-9.953557968139648
1745730371.461272,-0.24617747962474823,0.020250391215085983,0.25432276725769043,0.659855306148529,0.06743526458740234,-9.556116104125977
1745730371.462832,-0.23214218020439148,0.0231868177652359,0.25853854417800903,0.6610082387924194,0.14740051329135895,-9.457732200622559
1745730371.4989107,-0.24669785797595978,0.016936015337705612,0.26278167963027954,0.7409368753433228,0.2648511528968811,-9.870389938354492
1745730371.5016937,-0.2254888117313385,0.016262125223875046,0.2628646194934845,0.5803812742233276,0.4145592153072357,-10.029973983764648
1745730371.5026696,-0.2249540388584137,0.01625634916126728,0.264278382062912,0.7561838030815125,0.2593599557876587,-9.68225383758545
1745730371.5045283,-0.2195056676864624,0.014014726504683495,0.2666243016719818,0.4950234293937683,0.43369612097740173,-9.552047729492188
1745730371.5525732,-0.21880106627941132,0.010710458271205425,0.26947274804115295,0.6116513013839722,0.12601789832115173,-9.760478019714355
1745730371.5548866,-0.21356900036334991,0.008974545635282993,0.27226048707962036,0.6679644584655762,0.3567558526992798,-9.820877075195312
1745730371.558479,-0.21482078731060028,0.002754251006990671,0.29314514994621277,0.6257576942443848,0.4542974829673767,-9.82613754272461
1745730371.566559,-0.20032791793346405,0.0011864457046613097,0.2929830551147461,0.5626322627067566,0.3665239214897156,-9.707684516906738
1745730371.5847847,-0.20957818627357483,-0.0013679644325748086,0.2952232360839844,0.7655184864997864,0.395423024892807,-9.667675971984863
1745730371.5938933,-0.19200623035430908,-0.0007205779547803104,0.3005951941013336,0.5217395424842834,0.4541098475456238,-9.825549125671387
1745730371.595454,-0.20166876912117004,0.0015582798514515162,0.30418896675109863,0.6172285079956055,0.2850624918937683,-9.809709548950195
1745730371.5971508,-0.18849284946918488,-0.005826582200825214,0.30462831258773804,0.6047835350036621,0.5368348360061646,-9.627664566040039
1745730371.6281526,-0.19097469747066498,-8.530281775165349e-05,0.30823683738708496,0.6617707014083862,0.4291268289089203,-9.736818313598633
1745730371.6311214,-0.18424786627292633,-0.008253764361143112,0.30861300230026245,0.6104004979133606,0.6436501741409302,-9.866633415222168
1745730371.632247,-0.1770373284816742,-0.00535173062235117,0.307860404253006,0.5841957926750183,0.49882668256759644,-9.906980514526367
1745730371.6330853,-0.18132582306861877,-0.007920573465526104,0.30889928340911865,0.6478613018989563,0.49904513359069824,-9.661508560180664
1745730371.6347594,-0.17148849368095398,-0.009091950953006744,0.3091357350349426,0.4938766360282898,0.4520357549190521,-9.594131469726562
1745730371.670522,-0.18791820108890533,-0.011793019250035286,0.3143140375614166,0.6805129051208496,0.25233402848243713,-9.85405158996582
1745730371.6741252,-0.182518869638443,-0.009711051359772682,0.3159152865409851,0.6186884641647339,0.5615556836128235,-9.877047538757324
1745730371.677386,-0.18068455159664154,-0.008773669600486755,0.3166523575782776,0.662812352180481,0.2962244153022766,-9.703577041625977
1745730371.6778028,-0.11927635967731476,-0.028658833354711533,0.3499647378921509,0.5785247087478638,0.8390796780586243,-9.600054740905762
1745730371.717508,-0.11991040408611298,-0.024406269192695618,0.3486071228981018,0.5225709080696106,0.641461193561554,-9.80561351776123
1745730371.71915,-0.12249603122472763,-0.03045540675520897,0.3520916700363159,0.5218730568885803,0.8409843444824219,-9.844922065734863
1745730371.7221081,-0.109545037150383,-0.02664499543607235,0.3502885401248932,0.5095611810684204,0.7297188639640808,-9.777599334716797
1745730371.723664,-0.11728887259960175,-0.02773308753967285,0.3507971167564392,0.6208184957504272,0.751788854598999,-9.708967208862305
1745730371.7583473,-0.11153749376535416,-0.025735056027770042,0.3503652811050415,0.4361650347709656,0.8010154962539673,-9.73996353149414
1745730371.7605388,-0.12161865085363388,-0.028800899162888527,0.35215482115745544,0.637365460395813,0.5210442543029785,-9.776962280273438
1745730371.7617211,-0.11711281538009644,-0.028118308633565903,0.3536764681339264,0.5855698585510254,0.8824356198310852,-9.75786304473877
1745730371.7645397,-0.11765094846487045,-0.023336360231041908,0.35534629225730896,0.5773217082023621,0.5539736747741699,-9.875981330871582
1745730371.7997308,-0.116346076130867,-0.027899008244276047,0.35701990127563477,0.47089189291000366,0.8683619499206543,-9.690089225769043
1745730371.8025167,-0.10941843688488007,-0.024913514032959938,0.35622745752334595,0.5321828126907349,0.7323312759399414,-9.629487991333008
1745730371.804198,-0.12352119386196136,-0.026810690760612488,0.3594200015068054,0.6326687335968018,0.7929862141609192,-9.759049415588379
1745730371.8052945,-0.0973036140203476,-0.026838213205337524,0.3586803078651428,0.4878303110599518,0.8646748661994934,-9.903703689575195
1745730371.8067088,-0.11839573085308075,-0.027743026614189148,0.3583221733570099,0.6268302798271179,0.7189159989356995,-9.845658302307129
1745730371.8440328,-0.10056400299072266,-0.02881387248635292,0.3583415746688843,0.4527023434638977,0.8957880735397339,-9.698263168334961
1745730371.8478858,-0.10635868459939957,-0.024824034422636032,0.359301894903183,0.6156086921691895,0.7179585099220276,-9.613103866577148
1745730371.8486328,-0.11258405447006226,-0.03247493505477905,0.35745659470558167,0.5477766990661621,0.8500776290893555,-9.866985321044922
1745730371.853801,-0.09977836906909943,-0.02912299335002899,0.3613927364349365,0.5950075387954712,0.7334774136543274,-9.949539184570312
1745730371.8834536,-0.10997666418552399,-0.028123408555984497,0.36190637946128845,0.5739231705665588,0.8084709048271179,-9.653648376464844
1745730371.885976,-0.09491264075040817,-0.025666493922472,0.3614533841609955,0.43273741006851196,0.8545862436294556,-9.590716361999512
1745730371.888116,-0.10737264156341553,-0.033340007066726685,0.3640109598636627,0.628686785697937,0.6995876431465149,-9.810178756713867
1745730371.8934119,-0.09346848726272583,-0.030664095655083656,0.3648953139781952,0.486267626285553,1.0068645477294922,-9.87519645690918
1745730371.894004,-0.08933655917644501,-0.029682379215955734,0.3643629848957062,0.4830576479434967,0.934160053730011,-9.70842170715332
1745730371.9306853,-0.09793374687433243,-0.0237119197845459,0.3666446805000305,0.6461353898048401,0.8057700991630554,-9.813348770141602
1745730371.9333756,-0.08504227548837662,-0.02983216382563114,0.36583060026168823,0.47567325830459595,0.9545489549636841,-9.847663879394531
1745730371.934902,-0.08294038474559784,-0.02742767706513405,0.36634892225265503,0.5552676916122437,0.8620936274528503,-9.657177925109863
1745730371.9360044,-0.08348910510540009,-0.03312619775533676,0.36682647466659546,0.590283989906311,0.9339884519577026,-9.662418365478516
1745730371.9752643,-0.07843177020549774,-0.028793027624487877,0.36562007665634155,0.4756407141685486,0.91876620054245,-9.892403602600098
1745730371.9754124,-0.09223470091819763,-0.031363386660814285,0.3658793568611145,0.5658659934997559,0.7768365740776062,-9.835994720458984
1745730371.9769468,-0.07303334772586823,-0.031097551807761192,0.3637770116329193,0.5030359625816345,0.9176797866821289,-9.59430980682373
1745730371.97998,-0.09765906631946564,-0.02723446488380432,0.3654422163963318,0.6740835905075073,0.737545371055603,-9.709200859069824
1745730371.9811203,-0.08218418061733246,-0.0354049988090992,0.36614781618118286,0.4250885844230652,0.9921461343765259,-9.875856399536133
1745730372.0175173,-0.08870722353458405,-0.02909858152270317,0.36740633845329285,0.5621989369392395,0.6894081234931946,-9.761835098266602
1745730372.0198672,-0.08187638223171234,-0.030770625919103622,0.36914491653442383,0.5665017366409302,1.0403597354888916,-9.508085250854492
1745730372.0226889,-0.08344367891550064,-0.024731192737817764,0.36912769079208374,0.46514564752578735,0.8245217204093933,-9.803345680236816
1745730372.024963,-0.07686964422464371,-0.03154749050736427,0.37138697504997253,0.5669761300086975,1.0506325960159302,-9.831067085266113
1745730372.0594406,-0.046920038759708405,-0.030568430200219154,0.37383660674095154,0.5374804735183716,0.9281257390975952,-9.63851547241211
1745730372.0610795,-0.05023101717233658,-0.03246251866221428,0.3746551275253296,0.574734628200531,0.9938936233520508,-9.85888385772705
1745730372.0637765,-0.038885243237018585,-0.027117764577269554,0.373694509267807,0.40268421173095703,1.0516146421432495,-9.907572746276855
1745730372.0649135,-0.05324573442339897,-0.03059854544699192,0.37337055802345276,0.4992988705635071,0.88170325756073,-9.584309577941895
1745730372.1012173,-0.028484269976615906,-0.031936220824718475,0.3722589910030365,0.46131056547164917,1.14487624168396,-9.48007869720459
1745730372.1036289,-0.05321776866912842,-0.03088446334004402,0.37179458141326904,0.6265110373497009,0.8370286226272583,-9.940376281738281
1745730372.1073256,-0.03522145003080368,-0.03465800732374191,0.37458521127700806,0.4350977838039398,1.1152584552764893,-9.938234329223633
1745730372.1106021,-0.039947509765625,-0.025859519839286804,0.3745550513267517,0.49122533202171326,0.8011377453804016,-9.571001052856445
1745730372.1445782,-0.048477016389369965,-0.03515081852674484,0.37279659509658813,0.560505747795105,1.0419833660125732,-9.41907024383545
1745730372.1475697,-0.036999501287937164,-0.03006303310394287,0.37495511770248413,0.49228817224502563,0.9017536044120789,-9.991130828857422
1745730372.151256,-0.046394553035497665,-0.03198628127574921,0.3739863932132721,0.5611758232116699,1.096587061882019,-9.950538635253906
1745730372.154573,-0.030947869643568993,-0.028073813766241074,0.3731490969657898,0.4194294512271881,1.033382534980774,-9.553247451782227
1745730372.1563482,-0.042191922664642334,-0.033967409282922745,0.3713560998439789,0.5569525957107544,0.994006335735321,-9.512189865112305
1745730372.1912172,-0.03824501484632492,-0.03144235163927078,0.37343859672546387,0.3680422902107239,1.1113166809082031,-9.922977447509766
1745730372.1912777,-0.03174019977450371,-0.028708115220069885,0.3731955289840698,0.5681952238082886,0.7864247560501099,-9.886587142944336
1745730372.1914845,-0.039094869047403336,-0.032618921250104904,0.371708482503891,0.5636788606643677,1.1521036624908447,-9.527688026428223
1745730372.1936882,-0.031335681676864624,-0.029995864257216454,0.37088876962661743,0.4521770477294922,0.8729904890060425,-9.726239204406738
1745730372.231259,-0.03781837597489357,-0.033946357667446136,0.3731890320777893,0.5071734189987183,1.0606940984725952,-9.830587387084961
1745730372.233542,-0.02205442078411579,-0.0308938380330801,0.37155333161354065,0.47641873359680176,1.031417727470398,-9.741673469543457
1745730372.2356987,-0.04021661728620529,-0.028813254088163376,0.37359294295310974,0.5840670466423035,0.8700639009475708,-9.627538681030273
1745730372.237799,-0.01800880953669548,-0.035491347312927246,0.37268075346946716,0.4078914523124695,1.1990207433700562,-9.665668487548828
1745730372.2750676,-0.021730419248342514,-0.03486337885260582,0.37383943796157837,0.42783722281455994,1.2003484964370728,-9.792311668395996
1745730372.275745,-0.016600793227553368,-0.027293693274259567,0.37193018198013306,0.5146708488464355,0.9085327386856079,-9.818588256835938
1745730372.277904,-0.029124300926923752,-0.03773465007543564,0.3715362846851349,0.47205430269241333,1.1528916358947754,-9.68875503540039
1745730372.280236,-0.008504413068294525,-0.03280944004654884,0.3706778287887573,0.4342213571071625,0.9166444540023804,-9.728982925415039
1745730372.320227,-0.02717473730444908,-0.03278709203004837,0.3699100911617279,0.5381793975830078,1.042594075202942,-9.668542861938477
1745730372.3236032,-0.015756037086248398,-0.035260677337646484,0.36980777978897095,0.40082961320877075,1.0013304948806763,-9.830549240112305
1745730372.3275487,-0.020983722060918808,-0.0360315702855587,0.37073472142219543,0.6169646978378296,0.922415554523468,-9.745567321777344
1745730372.3320847,-0.012814024463295937,-0.034789033234119415,0.37102940678596497,0.42151904106140137,1.1774259805679321,-9.668146133422852
1745730372.3328428,-0.013860921375453472,-0.029024600982666016,0.37249571084976196,0.4862406253814697,0.8433531522750854,-9.73353099822998
1745730372.3589132,-0.00875604897737503,-0.03776121884584427,0.37108102440834045,0.456897109746933,1.13359534740448,-9.759629249572754
1745730372.3611987,-0.0009882505983114243,-0.031577400863170624,0.37117934226989746,0.46581602096557617,0.9959229230880737,-9.72525405883789
1745730372.3620627,-0.008540047332644463,-0.03499196097254753,0.3729574382305145,0.5161697864532471,1.0125097036361694,-9.703192710876465
1745730372.3641906,-0.0017647312488406897,-0.031738243997097015,0.36965519189834595,0.3596065938472748,1.0555522441864014,-9.78972053527832
1745730372.401572,-0.015436616726219654,-0.03367628902196884,0.370024174451828,0.5308103561401367,0.816309928894043,-9.698288917541504
1745730372.4038477,1.7239339285879396e-05,-0.03443559259176254,0.37030524015426636,0.4449922442436218,1.119084358215332,-9.573307991027832
1745730372.404588,0.008213791996240616,-0.02873898483812809,0.3664062023162842,0.3626537621021271,0.9460676312446594,-9.653865814208984
1745730372.4059463,-0.010937074199318886,-0.02848236635327339,0.3685968518257141,0.5289068818092346,1.0303623676300049,-9.626879692077637
1745730372.4074807,-0.003502023871988058,-0.030738789588212967,0.36828166246414185,0.4029645323753357,1.0039606094360352,-9.910738945007324
1745730372.4473858,-0.0013180412352085114,-0.029902011156082153,0.3662755489349365,0.5555728673934937,0.8714807629585266,-9.818023681640625
1745730372.4515367,-0.00559174083173275,-0.028120702132582664,0.36838722229003906,0.37228360772132874,1.0837247371673584,-9.590503692626953
1745730372.4515882,-0.003841663245111704,-0.024626005440950394,0.3691638708114624,0.4889043867588043,0.7938399314880371,-9.626980781555176
1745730372.451664,-0.005544375162571669,-0.030268725007772446,0.37129849195480347,0.49575191736221313,1.0363754034042358,-9.819761276245117
1745730372.4898968,0.0011296143056824803,-0.02708466723561287,0.37030166387557983,0.43435138463974,0.9775320291519165,-9.862626075744629
1745730372.4928172,-0.0028281807899475098,-0.030634012073278427,0.370501846075058,0.5484771728515625,0.9839202761650085,-9.633176803588867
1745730372.4959176,4.045590685564093e-05,-0.026130884885787964,0.36577388644218445,0.32428354024887085,1.1532293558120728,-9.720354080200195
1745730372.5061557,-0.012636485509574413,-0.028459643945097923,0.36754822731018066,0.46697741746902466,0.7496567964553833,-9.853431701660156
1745730372.506215,0.011979135684669018,-0.029770055785775185,0.3684330880641937,0.41110914945602417,1.1313453912734985,-9.63298511505127
1745730372.5322564,-0.01595764048397541,-0.021691258996725082,0.3681420683860779,0.5410426259040833,0.8168644905090332,-9.697925567626953
1745730372.5348423,-0.007329663727432489,-0.032950542867183685,0.3669247031211853,0.4020789563655853,1.0326719284057617,-9.744475364685059
1745730372.5365844,0.0033358782529830933,-0.02754087746143341,0.36796557903289795,0.4377354681491852,0.9238975644111633,-9.771203994750977
1745730372.5374417,-0.014059086330235004,-0.025848012417554855,0.36778756976127625,0.5307305455207825,1.0003561973571777,-9.714927673339844
1745730372.5773919,0.0027279695495963097,-0.02400430664420128,0.3708207905292511,0.37022486329078674,0.9379547238349915,-9.740033149719238
1745730372.5774553,-0.004983711056411266,-0.027891820296645164,0.3701786398887634,0.5496184229850769,0.9881440997123718,-9.606851577758789
1745730372.5798004,-0.0030244863592088223,-0.03057744726538658,0.3685818314552307,0.3942168951034546,1.0059717893600464,-9.837824821472168
1745730372.5829444,-0.004468204919248819,-0.02429075911641121,0.36827072501182556,0.47440868616104126,0.8657447695732117,-9.905603408813477
1745730372.6209266,-0.0007895202143117785,-0.030102666467428207,0.3674801290035248,0.4600369930267334,1.1273314952850342,-9.462843894958496
1745730372.6229675,-0.001974228536710143,-0.024485880509018898,0.36693626642227173,0.4156286120414734,0.9049829244613647,-9.814138412475586
1745730372.6266847,-0.014092430472373962,-0.029713734984397888,0.3665751516819,0.5064631700515747,0.8409803509712219,-9.943994522094727
1745730372.6292634,-0.0016588177531957626,-0.0256660133600235,0.36561888456344604,0.4460139870643616,1.0551187992095947,-9.647040367126465
1745730372.6602006,-0.019941307604312897,-0.025281231850385666,0.36816078424453735,0.5077529549598694,0.7865088582038879,-9.55982780456543
1745730372.6612127,-0.006655073259025812,-0.028793614357709885,0.36568933725357056,0.37045884132385254,1.1059401035308838,-9.728998184204102
1745730372.6636,-0.008103053085505962,-0.02532673254609108,0.3681366741657257,0.5485004782676697,0.822353720664978,-9.961869239807129
1745730372.665993,-0.010914451442658901,-0.027394384145736694,0.3697800636291504,0.45409202575683594,1.1868314743041992,-9.659070014953613
1745730372.70247,0.005096206441521645,-0.026192884892225266,0.36702582240104675,0.4161524772644043,0.9157723188400269,-9.584672927856445
1745730372.702825,-0.012628359720110893,-0.03220542147755623,0.36601728200912476,0.4970252513885498,1.0957211256027222,-9.751391410827637
1745730372.704167,0.003290327964350581,-0.022600948810577393,0.3668012022972107,0.32361602783203125,1.0141581296920776,-9.960040092468262
1745730372.7135348,-0.002885672962293029,-0.02645435370504856,0.36435434222221375,0.5367066264152527,0.9101236462593079,-9.555120468139648
1745730372.7135768,-0.005279385484755039,-0.02773515321314335,0.36336633563041687,0.38855302333831787,1.0640720129013062,-9.593338012695312
1745730372.745927,-0.008578380569815636,-0.03176749497652054,0.36410409212112427,0.5163602232933044,0.8060652613639832,-9.901753425598145
1745730372.7481139,0.0004298973944969475,-0.027333145961165428,0.36565783619880676,0.4216161370277405,1.063428282737732,-9.803571701049805
1745730372.750383,-0.006590792443603277,-0.02767854370176792,0.3572295606136322,0.5061062574386597,0.8245171308517456,-9.895870208740234
1745730372.7883325,0.0026495344936847687,-0.02936752699315548,0.3569435477256775,0.4241724908351898,1.0157655477523804,-9.572461128234863
1745730372.792019,-0.008638381026685238,-0.03077511116862297,0.3607122302055359,0.5399476885795593,0.7515514492988586,-9.599719047546387
1745730372.7945952,-0.00704239821061492,-0.02665020525455475,0.3589431345462799,0.38977566361427307,1.0411243438720703,-9.857381820678711
1745730372.8010612,5.672499355569016e-06,-0.024443499743938446,0.3621648848056793,0.46211427450180054,0.7768250703811646,-9.908669471740723
1745730372.8020651,-0.00611739931628108,-0.03039875254034996,0.36281171441078186,0.4727674126625061,1.1150975227355957,-9.505212783813477
1745730372.8353157,0.010645590722560883,-0.02762633003294468,0.3617526888847351,0.3967762887477875,0.9529256820678711,-9.666139602661133
1745730372.835413,-0.009298184886574745,-0.03022073768079281,0.3611970543861389,0.48353272676467896,0.9961426854133606,-9.952780723571777
1745730372.8399863,0.01306579727679491,-0.02678164467215538,0.36054518818855286,0.31931108236312866,0.9693156480789185,-9.807008743286133
1745730372.8423705,0.0035268161445856094,-0.028367996215820312,0.35968321561813354,0.5559767484664917,0.8297125697135925,-9.42579174041748
1745730372.8749042,-0.007074326276779175,-0.03149319440126419,0.3592287302017212,0.41807112097740173,0.9761260747909546,-9.791135787963867
1745730372.879189,-0.0009096318972297013,-0.030268153175711632,0.3606063723564148,0.46660104393959045,0.8124786615371704,-10.041915893554688
1745730372.881169,-0.006028604693710804,-0.029499193653464317,0.36188483238220215,0.3916964530944824,0.9952804446220398,-9.63598918914795
1745730372.8832548,-0.00449384655803442,-0.024567287415266037,0.36157190799713135,0.4710535407066345,0.8380972146987915,-9.45690631866455
1745730372.8853536,-0.011940902099013329,-0.0319705605506897,0.36204275488853455,0.5083490610122681,0.9074004888534546,-9.816314697265625
1745730372.9206908,0.007085590157657862,-0.027391839772462845,0.361809641122818,0.3561101257801056,1.0998772382736206,-9.951353073120117
1745730372.9241781,-0.004457114730030298,-0.025564823299646378,0.3629412055015564,0.5280618667602539,0.8621981739997864,-9.687861442565918
1745730372.927744,0.005338197108358145,-0.03147898241877556,0.36200040578842163,0.28446727991104126,1.1996004581451416,-9.567484855651855
1745730372.931955,-0.0005439240485429764,-0.02881450019776821,0.3602476418018341,0.4143923819065094,0.8266918063163757,-9.798518180847168
1745730372.9641225,0.007496990263462067,-0.029444297775626183,0.3588634431362152,0.41107115149497986,1.0650570392608643,-9.802725791931152
1745730372.9700952,0.000633298244792968,-0.03171924874186516,0.3594474792480469,0.6011651754379272,0.9234558343887329,-9.842453002929688
1745730372.9717703,0.013502439484000206,-0.02809666097164154,0.3629710078239441,0.358487993478775,0.8876351118087769,-9.846014976501465
1745730372.9745467,0.004304545931518078,-0.02523530088365078,0.36471229791641235,0.48185354471206665,0.8153188824653625,-9.585431098937988
1745730373.0054789,0.010209234431385994,-0.03138262778520584,0.3640034794807434,0.39696744084358215,0.9741447567939758,-9.649742126464844
1745730373.0104127,0.006899815984070301,-0.027120450511574745,0.36645394563674927,0.5028438568115234,0.8023704290390015,-9.877313613891602
1745730373.012002,0.009782643988728523,-0.026683354750275612,0.36497142910957336,0.4473162591457367,1.064943552017212,-9.773248672485352
1745730373.0132504,0.007478542625904083,-0.027394499629735947,0.36299920082092285,0.36235499382019043,0.9336565136909485,-9.730330467224121
1745730373.04712,0.006666131317615509,-0.03217408061027527,0.3611571192741394,0.44600215554237366,0.949744701385498,-9.661845207214355
1745730373.050329,0.015804113820195198,-0.024761639535427094,0.36208468675613403,0.36874744296073914,1.0418405532836914,-9.672374725341797
1745730373.0536096,-0.0037742636632174253,-0.02825198508799076,0.360542893409729,0.5204914212226868,0.7659342885017395,-9.852663040161133
1745730373.0559163,0.01591227576136589,-0.03226233273744583,0.3617914021015167,0.3986073136329651,1.0084322690963745,-9.76798152923584
1745730373.0594656,0.006475631147623062,-0.02684667706489563,0.36474594473838806,0.47361820936203003,0.7745915651321411,-9.655280113220215
1745730373.0942106,0.00529228150844574,-0.026425451040267944,0.36505311727523804,0.39016786217689514,0.9703534245491028,-9.649648666381836
1745730373.0942702,0.015455873683094978,-0.02415376901626587,0.36557137966156006,0.4374876916408539,0.798673689365387,-9.854193687438965
1745730373.0969172,0.008355590514838696,-0.03171522170305252,0.36568236351013184,0.48886117339134216,1.0883591175079346,-9.733247756958008
1745730373.0991242,0.021915027871727943,-0.026723045855760574,0.3631051182746887,0.3757973611354828,0.9096150398254395,-9.746805191040039
1745730373.136333,0.004197378642857075,-0.023003149777650833,0.3664414584636688,0.31126073002815247,0.9204435348510742,-9.55156135559082
1745730373.1377811,-0.0029196464456617832,-0.02380732074379921,0.3649059236049652,0.4813835024833679,0.7710666060447693,-9.553526878356934
1745730373.1411457,0.002959416713565588,-0.031545836478471756,0.3696821630001068,0.4197664260864258,0.9651263356208801,-9.926258087158203
1745730373.1437478,0.00262528657913208,-0.024887453764677048,0.3665660321712494,0.46175312995910645,0.8568326234817505,-9.907670974731445
1745730373.146943,0.008811099454760551,-0.025095200166106224,0.36755627393722534,0.41354647278785706,1.0212219953536987,-9.55048942565918
1745730373.1764839,0.004122464917600155,-0.027906369417905807,0.3654845356941223,0.3229743540287018,0.9348639249801636,-9.664372444152832
1745730373.178947,0.0032088763546198606,-0.03077295422554016,0.3641792833805084,0.4425799250602722,0.7424188852310181,-9.879228591918945
1745730373.1810484,0.013174429535865784,-0.022162655368447304,0.36544159054756165,0.3499821424484253,0.9496169090270996,-9.68822956085205
1745730373.1836598,-0.011194737628102303,-0.023195479065179825,0.36588674783706665,0.49304890632629395,0.6629186868667603,-9.63313102722168
1745730373.222062,0.0029163225553929806,-0.03381500020623207,0.3683566153049469,0.3846384286880493,0.9525831341743469,-9.721357345581055
1745730373.2293966,-0.002768363105133176,-0.025098389014601707,0.3681353032588959,0.47083306312561035,0.7503894567489624,-9.896588325500488
1745730373.2307074,-0.006238115951418877,-0.02163126692175865,0.36944517493247986,0.4231865406036377,0.9153070449829102,-9.724708557128906
1745730373.2350314,0.0025158454664051533,-0.023494426161050797,0.36908021569252014,0.387423574924469,0.8182631731033325,-9.620981216430664
1745730373.2630584,-0.005665699485689402,-0.031084543094038963,0.36866721510887146,0.47594714164733887,1.0464004278182983,-9.700235366821289
1745730373.2656252,0.0023065644782036543,-0.02646275795996189,0.36904120445251465,0.347962349653244,0.8355528116226196,-9.985666275024414
1745730373.269909,-0.0012235462199896574,-0.02559768781065941,0.3687019646167755,0.4455811083316803,0.9368669390678406,-9.735722541809082
1745730373.2699866,-0.0032145604491233826,-0.02425488457083702,0.3700774908065796,0.29245203733444214,0.9495534896850586,-9.55034065246582
1745730373.2713552,0.0032990635372698307,-0.02875913307070732,0.3674749732017517,0.5343144536018372,0.8130943179130554,-9.709177017211914
1745730373.3075395,-0.00432587880641222,-0.030452866107225418,0.36691585183143616,0.4787921905517578,1.0131722688674927,-10.018516540527344
1745730373.3087327,0.00741741294041276,-0.022083137184381485,0.36705368757247925,0.36265313625335693,0.8242641687393188,-9.884077072143555
1745730373.3176596,-0.00812439899891615,-0.02872270904481411,0.3673822581768036,0.5490516424179077,0.8010340929031372,-9.862698554992676
1745730373.3177018,-0.006249813362956047,-0.026211906224489212,0.37046509981155396,0.3493131995201111,0.9809675216674805,-9.694663047790527
1745730373.3515558,0.0031518929172307253,-0.025142764672636986,0.36887219548225403,0.4251564145088196,0.8153632879257202,-9.629069328308105
1745730373.3533273,-0.012371325865387917,-0.03224078565835953,0.3690534234046936,0.37590986490249634,0.9758948087692261,-9.828900337219238
1745730373.3554864,0.0039355820044875145,-0.02558288350701332,0.36844250559806824,0.3411802649497986,0.7687609791755676,-9.87388801574707
1745730373.3579342,-0.007274669595062733,-0.02615896798670292,0.3689689040184021,0.47492751479148865,0.8954600095748901,-9.50622844696045
1745730373.391936,-0.011273592710494995,-0.025656655430793762,0.36826208233833313,0.3497571051120758,0.8419076204299927,-9.76590347290039
1745730373.394002,-0.011697427369654179,-0.034036774188280106,0.3672298789024353,0.5220528841018677,0.803113579750061,-9.928122520446777
1745730373.39544,-0.007261733524501324,-0.02546553872525692,0.3689689040184021,0.3631187379360199,0.9098039865493774,-9.765172958374023
1745730373.396533,-0.01650199666619301,-0.021664295345544815,0.3676908016204834,0.4191754460334778,0.7058150768280029,-9.541143417358398
1745730373.3997147,-0.01779748871922493,-0.030073512345552444,0.3704409897327423,0.3488103151321411,0.7956537008285522,-9.71272087097168
1745730373.4357433,-0.012688541784882545,-0.027646521106362343,0.3718104958534241,0.4405713677406311,0.8367677927017212,-9.839422225952148
1745730373.4393368,-0.02063748426735401,-0.025441955775022507,0.3703547716140747,0.4579910337924957,0.9080236554145813,-9.801565170288086
1745730373.4423785,-0.012411484494805336,-0.024067295715212822,0.36944666504859924,0.28660207986831665,0.9738321304321289,-9.727500915527344
1745730373.4455414,-0.022999579086899757,-0.02914280816912651,0.3672962784767151,0.43148931860923767,0.8510832786560059,-9.642003059387207
1745730373.4771714,-0.010909226723015308,-0.027324605733156204,0.3673095107078552,0.3599560856819153,0.9673478007316589,-9.725722312927246
1745730373.479569,-0.02023816853761673,-0.02825194224715233,0.37025946378707886,0.3506161570549011,1.0685536861419678,-9.753961563110352
1745730373.4811604,-0.011311100795865059,-0.02452295646071434,0.36921873688697815,0.43516770005226135,0.8081210851669312,-9.759123802185059
1745730373.483581,-0.02248692512512207,-0.03051999770104885,0.369764506816864,0.3823663890361786,0.9944507479667664,-9.752047538757324
1745730373.4849465,-0.013869324699044228,-0.02591187134385109,0.37031692266464233,0.317374587059021,0.751099705696106,-9.769193649291992
1745730373.5207627,-0.01930954121053219,-0.02960546687245369,0.3692484200000763,0.47179922461509705,0.8499388694763184,-9.587455749511719
1745730373.5237527,-0.021045152097940445,-0.02740509808063507,0.3698371946811676,0.37605756521224976,0.8903369903564453,-9.84269905090332
1745730373.5260267,-0.02552008628845215,-0.0323936864733696,0.3675306439399719,0.5218617916107178,0.7954427599906921,-9.884126663208008
1745730373.564169,-0.017236707732081413,-0.02856503427028656,0.36883673071861267,0.33355239033699036,0.969316840171814,-9.679227828979492
1745730373.5665493,-0.024162622168660164,-0.025426900014281273,0.36999455094337463,0.49143514037132263,0.7808626890182495,-9.577288627624512
1745730373.574257,-0.025914307683706284,-0.029957760125398636,0.37068408727645874,0.34488680958747864,0.9070650339126587,-9.799562454223633
1745730373.5746045,-0.013735446147620678,-0.02756689488887787,0.37256917357444763,0.35659441351890564,0.8946613073348999,-9.835116386413574
1745730373.5776117,-0.023977695032954216,-0.030327731743454933,0.3701494038105011,0.46830374002456665,0.9085723757743835,-9.678953170776367
1745730373.6078706,-0.016596127301454544,-0.02508166804909706,0.36841997504234314,0.2751905620098114,1.014690637588501,-9.680476188659668
1745730373.608934,-0.02654505893588066,-0.030960779637098312,0.3692476153373718,0.4276651442050934,0.7879950404167175,-9.758337020874023
1745730373.6126933,-0.008959690108895302,-0.028103072196245193,0.367143452167511,0.4044412076473236,0.9740346670150757,-9.772954940795898
1745730373.6138868,-0.03317131847143173,-0.023271091282367706,0.3692885637283325,0.5198234915733337,0.6592462062835693,-9.824804306030273
1745730373.6479049,-0.02300940454006195,-0.029016872867941856,0.37067103385925293,0.33302992582321167,0.8714178204536438,-9.653619766235352
1745730373.6509073,-0.02928190864622593,-0.026794308796525,0.3729315400123596,0.3902581036090851,0.7334840297698975,-9.662518501281738
1745730373.659806,-0.036094583570957184,-0.028499078005552292,0.37239179015159607,0.4939092695713043,0.934511661529541,-9.777213096618652
1745730373.6598666,-0.024414245039224625,-0.026734868064522743,0.3691430389881134,0.45311999320983887,0.8063726425170898,-9.752330780029297
1745730373.691844,-0.018345994874835014,-0.027882535010576248,0.36894816160202026,0.368458092212677,1.0124698877334595,-9.706422805786133
1745730373.6930711,-0.021511875092983246,-0.02218480035662651,0.3684723675251007,0.37178510427474976,0.8206323385238647,-9.683969497680664
1745730373.6968634,-0.03232418745756149,-0.028045902028679848,0.36733555793762207,0.42780861258506775,0.8395222425460815,-9.752656936645508
1745730373.702251,-0.021625971421599388,-0.029325902462005615,0.3691224455833435,0.37704718112945557,0.9031299352645874,-9.80917739868164
1745730373.702924,-0.03113054856657982,-0.025261854752898216,0.36855337023735046,0.46969395875930786,0.7928452491760254,-9.714951515197754
1745730373.7372296,-0.02479035221040249,-0.021234795451164246,0.370215505361557,0.2727586328983307,1.0223923921585083,-9.666728019714355
1745730373.7385457,-0.026190131902694702,-0.0241415873169899,0.37146052718162537,0.4854438304901123,0.7708638906478882,-9.772308349609375
1745730373.7401655,-0.01712319627404213,-0.02817378379404545,0.3689221739768982,0.4104836583137512,1.1958591938018799,-9.741003036499023
1745730373.7414231,-0.012742211110889912,-0.022782009094953537,0.370954692363739,0.4279025197029114,0.8735002279281616,-9.857498168945312
1745730373.779814,-0.016571933403611183,-0.028639888390898705,0.37061017751693726,0.3905934691429138,1.0429420471191406,-9.774189949035645
1745730373.7821686,-0.008896037004888058,-0.025221437215805054,0.3705139756202698,0.29665279388427734,0.845959484577179,-9.688794136047363
1745730373.785147,-0.016000211238861084,-0.027523968368768692,0.3692213296890259,0.46404343843460083,0.8679731488227844,-9.606156349182129
1745730373.7871835,-0.0159805528819561,-0.023682216182351112,0.3709120452404022,0.3629577159881592,0.9289790987968445,-9.847541809082031
1745730373.828042,-0.01660149171948433,-0.02829979732632637,0.3699135184288025,0.46393734216690063,0.8627775311470032,-9.787056922912598
1745730373.828115,-0.01309962384402752,-0.029683047905564308,0.37030768394470215,0.29743438959121704,0.9352213144302368,-9.686714172363281
1745730373.8281574,0.07497519254684448,-0.05090557411313057,0.32129454612731934,0.19109705090522766,0.8141472935676575,-9.682413101196289
1745730373.8315556,0.0669635459780693,-0.044881224632263184,0.3212386965751648,0.2632353901863098,1.0698014497756958,-9.652213096618652
1745730373.8680675,0.05255870148539543,-0.039098966866731644,0.3158378005027771,0.11909103393554688,0.6502552032470703,-9.890909194946289
1745730373.8681166,0.04224985092878342,-0.05330473184585571,0.31201833486557007,0.3801683485507965,0.5044065713882446,-9.670398712158203
1745730373.8707364,0.03400241583585739,-0.04612167924642563,0.31449493765830994,0.2294560670852661,0.6853591203689575,-9.68356704711914
1745730373.8750856,0.0005998117849230766,-0.04980352893471718,0.3079618215560913,0.34506845474243164,0.5906411409378052,-10.040327072143555
1745730373.8771718,0.010945540852844715,-0.07216991484165192,0.29793581366539,-0.039658088237047195,1.1745022535324097,-9.971768379211426
1745730373.9164891,0.02240240015089512,-0.045141302049160004,0.28728732466697693,-0.23344513773918152,0.8274580240249634,-9.64761734008789
1745730373.9208176,0.020464586094021797,-0.06120722368359566,0.27978384494781494,-0.35725122690200806,1.4723851680755615,-9.359288215637207
1745730373.926573,0.04012158885598183,-0.07004989683628082,0.2714166045188904,-0.55034339427948,0.49246102571487427,-10.048955917358398
1745730373.9314866,0.08839540928602219,-0.05337764695286751,0.2741193175315857,-0.27144864201545715,1.0201741456985474,-9.640462875366211
1745730373.9504066,0.03357991203665733,-0.04168615862727165,0.2727545499801636,-0.438795268535614,0.5545681118965149,-9.570510864257812
1745730373.953842,0.0719338208436966,-0.06960780173540115,0.26967042684555054,0.23747512698173523,0.2898750901222229,-9.549062728881836
1745730373.9620588,0.05120736360549927,-0.06425012648105621,0.26623019576072693,0.3318639397621155,0.809036135673523,-10.017491340637207
1745730373.9621162,0.008799998089671135,-0.05311877280473709,0.262516587972641,0.05039022117853165,0.2259243279695511,-10.581195831298828
1745730373.9621902,-0.0001389235258102417,-0.06728080660104752,0.25150394439697266,0.06433627009391785,0.5011304616928101,-9.3038911819458
1745730373.9936776,-0.01588444411754608,-0.07177857309579849,0.24807171523571014,0.11617916822433472,0.6877700090408325,-9.064674377441406
1745730373.9972813,-0.06561681628227234,-0.07310980558395386,0.2418907880783081,0.00903911143541336,0.8766352534294128,-10.332598686218262
1745730373.9997115,-0.004688503686338663,-0.06589420884847641,0.23406851291656494,-0.20607459545135498,1.1685123443603516,-10.406110763549805
1745730374.0008538,-0.003994940780103207,-0.06415443122386932,0.228206068277359,-0.042990416288375854,1.5260521173477173,-9.13201904296875
1745730374.0370789,0.033712584525346756,-0.0811765044927597,0.2264546900987625,-0.048679132014513016,1.471347451210022,-9.385990142822266
1745730374.0395067,0.02452317252755165,-0.07770641148090363,0.19441863894462585,0.23415768146514893,0.16055157780647278,-10.164095878601074
1745730374.0407472,0.028475472703576088,-0.06402397155761719,0.19568052887916565,-0.04804062098264694,1.1919373273849487,-9.803614616394043
1745730374.0426023,0.04368254914879799,-0.07035760581493378,0.19390973448753357,-0.20155546069145203,0.8994263410568237,-9.52134895324707
1745730374.0444603,0.09598623961210251,-0.05819041281938553,0.1887703239917755,-0.2820216417312622,1.4479966163635254,-9.587505340576172
1745730374.080411,0.10497599840164185,-0.06381590664386749,0.18212878704071045,0.303518146276474,1.2863582372665405,-9.858696937561035
1745730374.083569,0.14437834918498993,-0.06321858614683151,0.177412748336792,0.2584577202796936,1.0612860918045044,-10.289772987365723
1745730374.0847967,0.15437966585159302,-0.06315840780735016,0.168177992105484,-0.1000518947839737,1.366967797279358,-9.78657341003418
1745730374.089024,0.15968015789985657,-0.05145610496401787,0.1652955561876297,0.19846297800540924,0.24774642288684845,-9.311426162719727
1745730374.1286283,0.14185789227485657,-0.054356612265110016,0.1604207456111908,0.34559166431427,0.911865234375,-9.47643756866455
1745730374.1289527,0.1215556412935257,-0.057627417147159576,0.15497329831123352,0.5778964757919312,0.05366130545735359,-10.484084129333496
1745730374.1303916,0.1187843456864357,-0.054978806525468826,0.14802035689353943,0.19911029934883118,0.9578922986984253,-10.251618385314941
1745730374.133253,0.1267320215702057,-0.04369083046913147,0.14201268553733826,-0.01581350900232792,0.5296019315719604,-9.393446922302246
1745730374.165768,0.10578832775354385,-0.05304737016558647,0.14211487770080566,0.15244059264659882,0.4734629690647125,-9.249030113220215
1745730374.1684444,0.12376389652490616,-0.05135822296142578,0.13853752613067627,-0.1286994218826294,0.8396004438400269,-10.193161010742188
1745730374.1719575,0.13088016211986542,-0.033239204436540604,0.13393203914165497,0.019316811114549637,0.5164202451705933,-10.220296859741211
1745730374.1739872,0.24039597809314728,0.06759296357631683,-0.04181859642267227,0.5350509881973267,-0.03684177249670029,-10.342300415039062
1745730374.2094758,0.216300368309021,0.0725136548280716,-0.047180164605379105,0.4830852448940277,-0.13892963528633118,-9.760446548461914
1745730374.212133,0.198423832654953,0.06460130214691162,-0.04928236082196236,0.3011903166770935,-0.0025235526263713837,-9.278995513916016
1745730374.2155738,0.18875250220298767,0.06491963565349579,-0.053862255066633224,0.45198431611061096,0.06503131240606308,-9.797144889831543
1745730374.2289639,0.18759655952453613,0.06685740500688553,-0.05913356691598892,0.25851327180862427,0.32968801259994507,-10.217714309692383
1745730374.2290385,0.21937735378742218,0.07961467653512955,-0.06412644684314728,0.192273810505867,0.34848397970199585,-9.625131607055664
1745730374.2532687,0.20217065513134003,0.07169884443283081,-0.06815610080957413,0.42427748441696167,0.42679959535598755,-9.171371459960938
1745730374.2559547,0.23326726257801056,0.07379613816738129,-0.06917867064476013,0.40236783027648926,0.23103351891040802,-9.794099807739258
1745730374.2580252,0.22306182980537415,0.07503443211317062,-0.07504487782716751,0.5193495750427246,0.3303458094596863,-10.23999309539795
1745730374.2600892,0.23732152581214905,0.0807957798242569,-0.07808151096105576,0.4611716866493225,0.167633518576622,-9.828392028808594
1745730374.2957869,0.2208268940448761,0.07437465339899063,-0.0803750678896904,0.5885727405548096,-0.008032293990254402,-9.354100227355957
1745730374.297978,0.22299137711524963,0.06536897271871567,-0.08399178087711334,0.5129475593566895,0.2569907307624817,-9.692697525024414
1745730374.3010142,0.21244728565216064,0.07401273399591446,-0.09152986109256744,0.5628310441970825,-0.005341378506273031,-10.195562362670898
1745730374.3057537,0.20257747173309326,0.0737345963716507,-0.09587976336479187,0.4300943911075592,0.20344319939613342,-9.714232444763184
1745730374.3058352,0.22125418484210968,0.07261718809604645,-0.10161729156970978,0.3788430094718933,0.11435495316982269,-9.218367576599121
1745730374.3402038,0.19364230334758759,0.06623119860887527,-0.10460970550775528,0.4530673027038574,0.15815149247646332,-9.60789966583252
1745730374.3421302,0.22352886199951172,0.07071197032928467,-0.10797573626041412,0.3985729217529297,0.11021316051483154,-10.174468994140625
1745730374.3444364,0.22244460880756378,0.07616562396287918,-0.112127386033535,0.4696040153503418,-0.016901779919862747,-9.823335647583008
1745730374.345863,0.2160222828388214,0.06381354480981827,-0.11251527070999146,0.31987708806991577,0.03489101305603981,-9.43407917022705
1745730374.3813975,0.22772645950317383,0.07244574278593063,-0.11243220418691635,0.5076333284378052,-0.09620790183544159,-9.621042251586914
1745730374.384229,0.2133849561214447,0.06498966366052628,-0.11734547466039658,0.5256760716438293,-0.026185104623436928,-9.941902160644531
1745730374.387392,0.20783667266368866,0.05515285208821297,-0.14929740130901337,0.5109103322029114,-0.0477609857916832,-9.769224166870117
1745730374.389136,0.22240276634693146,0.060502249747514725,-0.15153592824935913,0.44999995827674866,0.301064670085907,-9.708243370056152
1745730374.4305239,0.2310555875301361,0.05430213361978531,-0.15395940840244293,0.41270655393600464,-0.13035030663013458,-9.60058307647705
1745730374.4350796,0.21614165604114532,0.05171654745936394,-0.15428951382637024,0.5335429906845093,-0.11200548708438873,-9.579801559448242
1745730374.4401855,0.22392752766609192,0.047110505402088165,-0.16111811995506287,0.40741172432899475,-0.205497145652771,-9.936203002929688
1745730374.4479692,0.2024478018283844,0.04962984845042229,-0.1620183289051056,0.6080793142318726,-0.4350518584251404,-9.892550468444824
1745730374.4683006,0.19543278217315674,0.046191293746232986,-0.16712114214897156,0.4809492230415344,-0.11002933979034424,-9.53740119934082
1745730374.471312,0.1803322732448578,0.04152388125658035,-0.17146138846874237,0.6161092519760132,-0.5655254125595093,-9.587713241577148
1745730374.4735155,0.17360420525074005,0.03793647885322571,-0.1734815388917923,0.56302809715271,-0.11703960597515106,-9.787659645080566
1745730374.4769485,0.1728781759738922,0.03932073339819908,-0.17521102726459503,0.49802398681640625,-0.2828124463558197,-9.873539924621582
1745730374.478812,0.1745884120464325,0.037746597081422806,-0.17691472172737122,0.5187567472457886,-0.1971675604581833,-9.555335998535156
1745730374.5237975,0.1866288036108017,0.03721723333001137,-0.17905090749263763,0.2932952344417572,0.05976732447743416,-9.538002967834473
1745730374.5239272,0.1842445433139801,0.028389547020196915,-0.18012017011642456,0.5795341730117798,-0.24160762131214142,-9.778020858764648
1745730374.5239916,0.20484128594398499,0.030705848708748817,-0.18020805716514587,0.3837149739265442,0.053662799298763275,-9.899996757507324
1745730374.5240426,0.20410025119781494,0.03001421131193638,-0.1840204894542694,0.5393606424331665,-0.2575705647468567,-9.73967456817627
1745730374.555362,0.13543948531150818,-0.02260875329375267,-0.24303002655506134,0.5775189399719238,-0.5443878173828125,-9.628149032592773
1745730374.558589,0.1420503407716751,-0.027814868837594986,-0.2425297200679779,0.44916439056396484,-0.45454835891723633,-9.88273811340332
1745730374.561521,0.1395128071308136,-0.021883109584450722,-0.24176034331321716,0.47383442521095276,-0.6549724340438843,-9.998054504394531
1745730374.5638518,0.14026767015457153,-0.0261473897844553,-0.24393360316753387,0.43098458647727966,-0.26632609963417053,-9.676304817199707
1745730374.5677392,0.14618447422981262,-0.02301079034805298,-0.2467280626296997,0.42084988951683044,-0.6572213172912598,-9.623510360717773
1745730374.5969718,0.14490678906440735,-0.02954227104783058,-0.24932265281677246,0.5257378220558167,-0.3405289649963379,-9.694300651550293
1745730374.6016252,0.14513373374938965,-0.027639109641313553,-0.24952271580696106,0.4838002622127533,-0.5704287886619568,-9.990303993225098
1745730374.602971,0.13653461635112762,-0.02525472268462181,-0.2533645033836365,0.5948899984359741,-0.7680351734161377,-9.805625915527344
1745730374.6118345,0.13865765929222107,-0.025260696187615395,-0.2525278925895691,0.33667439222335815,-0.49177441000938416,-9.609369277954102
1745730374.6408665,0.1282428354024887,-0.027625590562820435,-0.2490222156047821,0.6132224798202515,-0.8820196986198425,-9.74616813659668
1745730374.6425195,0.1278364509344101,-0.029381239786744118,-0.2513778805732727,0.4457015097141266,-0.4271242022514343,-9.932607650756836
1745730374.6425662,0.1333359181880951,-0.024192124605178833,-0.2518676817417145,0.4738036096096039,-0.6837906241416931,-9.953286170959473
1745730374.643746,0.1261650025844574,-0.031313586980104446,-0.2558000385761261,0.44514718651771545,-0.3855682909488678,-9.623796463012695
1745730374.6849823,0.1329042613506317,-0.02997470274567604,-0.25531721115112305,0.3455832898616791,-0.5309928059577942,-9.713959693908691
1745730374.6854205,0.1317051202058792,-0.028841089457273483,-0.2586067318916321,0.532339870929718,-0.6353017091751099,-9.907859802246094
1745730374.6881142,0.13989238440990448,-0.02432984858751297,-0.25869739055633545,0.3575696051120758,-0.5413040518760681,-9.836739540100098
1745730374.689818,0.1252088099718094,-0.02892960235476494,-0.2595600187778473,0.5961679220199585,-0.7569140195846558,-9.682354927062988
1745730374.691111,0.13760042190551758,-0.02693077363073826,-0.25919756293296814,0.46298640966415405,-0.5812704563140869,-9.681085586547852
1745730374.7272503,0.1234639436006546,-0.025804391130805016,-0.2578917443752289,0.5073336362838745,-0.7368277311325073,-9.931404113769531
1745730374.7304301,0.130522221326828,-0.03171224147081375,-0.2621555030345917,0.5616154670715332,-0.5736368298530579,-9.962661743164062
1745730374.7341444,0.12850216031074524,-0.02519221231341362,-0.2609975337982178,0.4136200547218323,-0.7246021628379822,-9.859535217285156
1745730374.7380428,0.11769094318151474,-0.03412436321377754,-0.2633117437362671,0.4794923663139343,-0.6688827276229858,-9.677538871765137
1745730374.7798564,0.10554744303226471,-0.029672110453248024,-0.2663940489292145,0.4531819224357605,-0.6433413028717041,-9.808988571166992
1745730374.7799413,0.13120581209659576,-0.022052515298128128,-0.2659052014350891,0.3775157034397125,-0.6810134649276733,-9.62128734588623
1745730374.78,0.1002289280295372,-0.031697288155555725,-0.2669677436351776,0.539859414100647,-0.7977668046951294,-9.781941413879395
1745730374.7800565,0.12272858619689941,-0.027880022302269936,-0.2672636806964874,0.42784398794174194,-0.6299341917037964,-9.899487495422363
1745730374.8136039,0.10013149678707123,-0.025015825405716896,-0.2698659598827362,0.5289424657821655,-0.9179520606994629,-9.871824264526367
1745730374.8139594,0.10653483867645264,-0.025355618447065353,-0.26929593086242676,0.3820241093635559,-0.6820840239524841,-9.618967056274414
1745730374.8207595,0.10343275964260101,-0.023288488388061523,-0.2713724672794342,0.521868109703064,-0.7824158072471619,-9.6405668258667
1745730374.820831,0.08868250995874405,-0.028579389676451683,-0.27172839641571045,0.47740036249160767,-0.7141876220703125,-9.93185043334961
1745730374.8208911,0.1093091368675232,-0.01987580396234989,-0.270260751247406,0.4261241853237152,-0.7319086790084839,-9.965127944946289
1745730374.8577602,0.09756100922822952,-0.02441180869936943,-0.2725667953491211,0.4899159371852875,-0.7137824296951294,-9.701556205749512
1745730374.858845,0.11184052377939224,-0.028328055515885353,-0.27129602432250977,0.3664272725582123,-0.663191020488739,-9.672430038452148
1745730374.8606768,0.10450389236211777,-0.02153823897242546,-0.27550938725471497,0.533949077129364,-0.734432578086853,-9.885953903198242
1745730374.864242,0.10980846732854843,-0.025592496618628502,-0.27336764335632324,0.3937518894672394,-0.8050875663757324,-9.901174545288086
1745730374.8992083,0.10484276711940765,-0.019999584183096886,-0.27375277876853943,0.48023778200149536,-0.8904858827590942,-9.615159034729004
1745730374.9019241,0.05126602202653885,-0.015912730246782303,-0.28626179695129395,0.49361592531204224,-0.903590977191925,-9.710000991821289
1745730374.9039505,0.06611599028110504,-0.02112497203052044,-0.286365270614624,0.4773193299770355,-0.691926121711731,-9.892656326293945
1745730374.9134471,0.05932947248220444,-0.014975723810493946,-0.2880266606807709,0.485624223947525,-1.0165761709213257,-9.883255004882812
1745730374.9135344,0.05617033317685127,-0.01851988397538662,-0.2849145531654358,0.44275593757629395,-0.8751497268676758,-9.5648775100708
1745730374.9439695,0.0669306144118309,-0.014743628911674023,-0.28766533732414246,0.36825108528137207,-0.9519206881523132,-9.530566215515137
1745730374.9455948,0.03785352781414986,-0.017021283507347107,-0.2856792211532593,0.5335773825645447,-0.9537345170974731,-9.747758865356445
1745730374.9472625,0.053514234721660614,-0.01432135421782732,-0.28863540291786194,0.4394780099391937,-0.8601590394973755,-9.833967208862305
1745730374.950681,0.04233529046177864,-0.015330498106777668,-0.2885735034942627,0.5471037030220032,-0.8633894920349121,-9.71979808807373
1745730374.9854908,0.04642707109451294,-0.021442290395498276,-0.29168111085891724,0.40141576528549194,-0.7860021591186523,-9.713897705078125
1745730374.987757,0.04851055145263672,-0.015229585580527782,-0.2918356955051422,0.5106731653213501,-0.9910383224487305,-9.797822952270508
1745730374.9951174,0.04048017039895058,-0.021748781204223633,-0.2894606590270996,0.4242933392524719,-0.9361108541488647,-9.839427947998047
1745730374.9952118,0.048785723745822906,-0.013307876884937286,-0.2889229655265808,0.4252967834472656,-0.9544075727462769,-9.603869438171387
1745730375.0282078,0.03405047580599785,-0.021449226886034012,-0.2869166135787964,0.5235826969146729,-0.9337413907051086,-9.525501251220703
1745730375.0313864,0.05127089098095894,-0.016205931082367897,-0.2876286506652832,0.3731537461280823,-0.9031098484992981,-9.751625061035156
1745730375.0329483,0.03738333284854889,-0.015743806958198547,-0.2883339524269104,0.5776626467704773,-0.8569437861442566,-9.815305709838867
1745730375.0330443,0.04202694445848465,-0.018179917708039284,-0.2893323302268982,0.3561869263648987,-0.8038496971130371,-9.744649887084961
1745730375.0369976,0.03540454059839249,-0.016467969864606857,-0.290407657623291,0.5123583078384399,-1.0257035493850708,-9.68064022064209
1745730375.079317,0.03935204818844795,-0.01870270073413849,-0.29108595848083496,0.3862907886505127,-0.7833697199821472,-9.736421585083008
1745730375.0793843,0.03212353214621544,-0.017852243036031723,-0.2905421853065491,0.4878196716308594,-1.080275297164917,-9.817511558532715
1745730375.0794263,0.03440640866756439,-0.017525428906083107,-0.29202574491500854,0.5380043387413025,-0.7390779256820679,-9.658683776855469
1745730375.0799057,0.03258528560400009,-0.01913200132548809,-0.291057288646698,0.4276674687862396,-1.0529122352600098,-9.716684341430664
1745730375.1160514,0.028604045510292053,-0.01819707080721855,-0.29051464796066284,0.5800746083259583,-0.8352584838867188,-9.656651496887207
1745730375.119216,0.039588771760463715,-0.019801583141088486,-0.29553937911987305,0.454744815826416,-0.9495224952697754,-9.801191329956055
1745730375.1224,0.03441109508275986,-0.019723383709788322,-0.29431843757629395,0.586156964302063,-0.9536628723144531,-9.706887245178223
1745730375.1269288,0.04369062930345535,-0.01751049980521202,-0.2946397364139557,0.3986358642578125,-0.7906709909439087,-9.713676452636719
1745730375.1562955,0.03287520259618759,-0.01895584538578987,-0.29184797406196594,0.5851643681526184,-1.1317073106765747,-9.66684627532959
1745730375.1579785,0.035213157534599304,-0.018915913999080658,-0.2914184629917145,0.4032832682132721,-0.7806661128997803,-9.64793872833252
1745730375.1606982,0.02947981283068657,-0.01712304912507534,-0.2903429865837097,0.5683870315551758,-1.1716480255126953,-9.861799240112305
1745730375.1633255,0.03287303447723389,-0.022287078201770782,-0.29134806990623474,0.3938915729522705,-0.7279897928237915,-9.778280258178711
1745730375.1655364,0.025952409952878952,-0.018322959542274475,-0.2935470938682556,0.3798832297325134,-0.8993223309516907,-9.696311950683594
1745730375.202063,0.029574628919363022,-0.02287956513464451,-0.2936212122440338,0.4616263508796692,-0.8796824216842651,-9.607320785522461
1745730375.2039385,0.03866773098707199,-0.016595378518104553,-0.2965397238731384,0.3611207604408264,-0.8058117032051086,-9.724275588989258
1745730375.2057958,0.03011143207550049,-0.02079051360487938,-0.29566359519958496,0.6082108020782471,-0.9025527834892273,-9.76185417175293
1745730375.2098753,0.04470885545015335,-0.01724100112915039,-0.29430142045021057,0.4525126516819,-0.9262114763259888,-9.629651069641113
1745730375.2442973,0.03009636327624321,-0.015669219195842743,-0.2937692105770111,0.4928867816925049,-1.028186559677124,-9.658768653869629
1745730375.2460828,0.03764203563332558,-0.021905342116951942,-0.29247012734413147,0.5076450109481812,-0.8746676445007324,-9.803645133972168
1745730375.2491193,0.022249212488532066,-0.0234362930059433,-0.2950102686882019,0.4553123414516449,-1.0961815118789673,-9.812207221984863
1745730375.2514572,0.017488181591033936,-0.024595696479082108,-0.2947392463684082,0.4864865243434906,-0.8752390146255493,-9.732294082641602
1745730375.2844007,0.024019574746489525,-0.023848356679081917,-0.29568618535995483,0.35578590631484985,-0.798112154006958,-9.707548141479492
1745730375.286877,0.012006646953523159,-0.027625426650047302,-0.2952148914337158,0.583279013633728,-1.034193515777588,-9.841178894042969
1745730375.289441,0.03160908445715904,-0.026247123256325722,-0.2973332703113556,0.38241785764694214,-0.7513059973716736,-9.818443298339844
1745730375.291163,0.016407862305641174,-0.025495776906609535,-0.29809489846229553,0.4828079640865326,-1.0671169757843018,-9.768214225769043
1745730375.2923934,0.025601089000701904,-0.02793094888329506,-0.29628786444664,0.43609127402305603,-0.8954070806503296,-9.594696044921875
1745730375.3295207,0.027191346511244774,-0.021390791982412338,-0.29698723554611206,0.45846349000930786,-0.9922391176223755,-9.690194129943848
1745730375.3322957,0.017447050660848618,-0.030129894614219666,-0.2925345301628113,0.5439378023147583,-0.9704664349555969,-9.792936325073242
1745730375.3352084,0.0234597809612751,-0.02181098237633705,-0.2948307991027832,0.4012397825717926,-0.979284942150116,-9.822982788085938
1745730375.342388,0.012473134323954582,-0.02723648212850094,-0.2946068346500397,0.5391557812690735,-1.0262224674224854,-9.785170555114746
1745730375.3734298,0.026393119245767593,-0.028181344270706177,-0.29526275396347046,0.3462015986442566,-0.8093249201774597,-9.720261573791504
1745730375.375455,0.007110496051609516,-0.02581464685499668,-0.29502567648887634,0.49766427278518677,-1.0273829698562622,-9.770044326782227
1745730375.3766909,0.022310271859169006,-0.02829388901591301,-0.2953433394432068,0.4340779185295105,-0.8886032104492188,-9.778326034545898
1745730375.3804817,0.01789865456521511,-0.022935595363378525,-0.2938133776187897,0.46176084876060486,-1.0917809009552002,-9.775639533996582
1745730375.3821402,0.013832539319992065,-0.029990797862410545,-0.2945152521133423,0.4589669704437256,-0.7710832357406616,-9.637628555297852
1745730375.415075,0.02430807799100876,-0.020434875041246414,-0.29339322447776794,0.4351625442504883,-1.085350751876831,-9.702274322509766
1745730375.4169729,0.014734409749507904,-0.026556650176644325,-0.29315274953842163,0.48706966638565063,-0.8342978358268738,-9.706737518310547
1745730375.4203997,0.028201088309288025,-0.027582183480262756,-0.29295310378074646,0.46203017234802246,-0.9660097360610962,-9.82072925567627
1745730375.421132,0.012512197718024254,-0.02524673007428646,-0.2918207347393036,0.4698842465877533,-1.0397626161575317,-9.81739330291748
1745730375.4574566,0.025051143020391464,-0.028192758560180664,-0.29196804761886597,0.35121601819992065,-0.8946079015731812,-9.738503456115723
1745730375.4604387,0.01318910252302885,-0.024870680645108223,-0.28932318091392517,0.4516921937465668,-1.0834381580352783,-9.704078674316406
1745730375.461195,0.010651144199073315,-0.02994641102850437,-0.29174986481666565,0.47743457555770874,-0.8018401265144348,-9.697723388671875
1745730375.464513,0.01617973856627941,-0.023913687095046043,-0.28898435831069946,0.5401083827018738,-1.000190019607544,-9.72456169128418
1745730375.4999979,0.02474045753479004,-0.025386299937963486,-0.2910277247428894,0.31309568881988525,-0.8293603658676147,-9.754684448242188
1745730375.5020163,0.02441995218396187,-0.022312458604574203,-0.2885449230670929,0.5267528891563416,-1.0217074155807495,-9.779240608215332
1745730375.5038908,0.021536868065595627,-0.026292625814676285,-0.2894340753555298,0.3731207251548767,-0.8111408352851868,-9.74523639678955
1745730375.507221,0.03099551424384117,-0.02379642426967621,-0.2882876992225647,0.41648244857788086,-1.0079270601272583,-9.7564058303833
1745730375.507282,0.015669256448745728,-0.027121637016534805,-0.2918866276741028,0.4675966203212738,-0.9009935259819031,-9.726455688476562
1745730375.5451157,0.0231455210596323,-0.019956042990088463,-0.29182136058807373,0.4054897427558899,-1.061324119567871,-9.730765342712402
1745730375.54597,0.012091415002942085,-0.02435779944062233,-0.2928121089935303,0.5526307225227356,-0.9840801358222961,-9.623563766479492
1745730375.5475543,0.012088674120604992,-0.02404998615384102,-0.29045194387435913,0.37620246410369873,-0.9763434529304504,-9.77134895324707
1745730375.5476153,0.0015820127446204424,-0.022296611219644547,-0.29231858253479004,0.5510812997817993,-1.09419584274292,-9.793493270874023
1745730375.5901575,0.011463841423392296,-0.020248491317033768,-0.2882617115974426,0.3675057291984558,-0.8126009702682495,-9.731221199035645
1745730375.5902293,0.005242923274636269,-0.02293391153216362,-0.2892155051231384,0.4462379515171051,-0.9895886182785034,-9.77474594116211
1745730375.5902824,0.019062038511037827,-0.02455427497625351,-0.2904660701751709,0.4685281813144684,-0.6956372261047363,-9.78260612487793
1745730375.5921571,0.012416280806064606,-0.018383778631687164,-0.2835874855518341,0.37491410970687866,-0.9432916641235352,-9.90959358215332
1745730375.631233,-0.00013997610949445516,-0.023281997069716454,-0.28416433930397034,0.46183568239212036,-0.8638431429862976,-9.708074569702148
1745730375.6328845,0.012490796856582165,-0.02345624566078186,-0.2827374041080475,0.34094470739364624,-0.6989949345588684,-9.599496841430664
1745730375.634596,0.00724304374307394,-0.02171727642416954,-0.2868915796279907,0.5499021410942078,-1.1111698150634766,-9.727376937866211
1745730375.6364746,0.014618009328842163,-0.0232924185693264,-0.28425878286361694,0.3632912039756775,-0.7725040912628174,-9.816774368286133
1745730375.671864,0.003908995538949966,-0.021029219031333923,-0.2851944863796234,0.519277036190033,-1.1367014646530151,-9.7720365524292
1745730375.672344,0.00573891494423151,-0.022110214456915855,-0.28054699301719666,0.4566052556037903,-0.9195152521133423,-9.524969100952148
1745730375.6753767,0.002968471497297287,-0.020086612552404404,-0.28176814317703247,0.3321119546890259,-0.983338475227356,-9.720905303955078
1745730375.6771996,0.002563566667959094,-0.023435762152075768,-0.28137391805648804,0.5531899333000183,-0.9291105270385742,-9.847864151000977
1745730375.6781845,0.011042388156056404,-0.021016431972384453,-0.28106826543807983,0.3125208020210266,-0.8253755569458008,-9.83984661102295
1745730375.717379,0.005876296199858189,-0.02332853339612484,-0.2829107642173767,0.5005082488059998,-1.0302627086639404,-9.670291900634766
1745730375.7201889,0.008992624469101429,-0.024948805570602417,-0.28036078810691833,0.3575710356235504,-0.8791744112968445,-9.682905197143555
1745730375.720812,-0.00028867722721770406,-0.021407512947916985,-0.2819128632545471,0.436297744512558,-1.0881483554840088,-9.797906875610352
1745730375.7238655,0.010764049366116524,-0.022391552105545998,-0.27967458963394165,0.42913731932640076,-0.7702287435531616,-9.641931533813477
1745730375.7636333,0.001797448261640966,-0.017196431756019592,-0.2815096378326416,0.3723326623439789,-1.01676344871521,-9.630277633666992
1745730375.7670448,0.00046976879821158946,-0.023777659982442856,-0.28126654028892517,0.5674818754196167,-0.776302695274353,-9.679533004760742
1745730375.768203,0.010429424233734608,-0.02005734294652939,-0.28212180733680725,0.4172605574131012,-0.9292294383049011,-9.935708045959473
1745730375.7682655,-0.0011466239811852574,-0.02277335897088051,-0.2828613221645355,0.4684778153896332,-0.9352763295173645,-9.8297700881958
1745730375.7699149,0.01574997417628765,-0.02186584658920765,-0.28203848004341125,0.3554132580757141,-0.8682395219802856,-9.659435272216797
1745730375.8059616,-0.0022868402302265167,-0.02220676653087139,-0.28076353669166565,0.4583437442779541,-1.144897699356079,-9.722063064575195
1745730375.8087223,0.01377946138381958,-0.024245014414191246,-0.2785990238189697,0.42420679330825806,-0.6945751309394836,-9.716529846191406
1745730375.8089478,0.0017231529345735908,-0.019892802461981773,-0.2802942097187042,0.46054592728614807,-1.1276476383209229,-9.847026824951172
1745730375.812248,-0.002950815251097083,-0.016444044187664986,-0.2782323956489563,0.44268807768821716,-1.1019322872161865,-9.725651741027832
1745730375.8472583,0.0019119279459118843,-0.025631284341216087,-0.27834945917129517,0.32658451795578003,-0.7959007024765015,-9.628881454467773
1745730375.8500054,0.0007598437368869781,-0.01829090341925621,-0.28145936131477356,0.504472553730011,-1.0208810567855835,-9.78693962097168
1745730375.8535578,-0.004875615704804659,-0.025325853377580643,-0.27866998314857483,0.47105902433395386,-0.8746628761291504,-9.88697338104248
1745730375.8556874,0.004324012435972691,-0.019350135698914528,-0.2783192992210388,0.38744235038757324,-0.9225603938102722,-9.65694808959961
1745730375.8885567,-0.01497009675949812,-0.023921683430671692,-0.28167015314102173,0.5167071223258972,-0.957245945930481,-9.560025215148926
1745730375.8903637,4.2252337152604014e-05,-0.02293013222515583,-0.2800160348415375,0.35870587825775146,-0.9784734845161438,-9.791837692260742
1745730375.893403,-0.010808870196342468,-0.020490799099206924,-0.27871009707450867,0.5309571623802185,-0.9003512263298035,-9.853143692016602
1745730375.894615,-0.00650912057608366,-0.021192047744989395,-0.27768445014953613,0.3485385775566101,-0.8328316807746887,-9.7322359085083
1745730375.9336126,0.0007973723113536835,-0.018787894397974014,-0.2779073715209961,0.4611245095729828,-0.9743116497993469,-9.642233848571777
1745730375.9337132,0.001056126900948584,-0.026413435116410255,-0.28090935945510864,0.37628307938575745,-0.721436619758606,-9.760171890258789
1745730375.9370837,0.002807099837809801,-0.01813519187271595,-0.2801801264286041,0.40193653106689453,-0.9995580911636353,-9.89933967590332
1745730375.9372284,0.003267178777605295,-0.01833614706993103,-0.28034815192222595,0.4619012773036957,-0.6880986094474792,-9.6244478225708
1745730375.9771464,-0.012882535345852375,-0.023474423214793205,-0.2756863236427307,0.48183900117874146,-0.8452489972114563,-9.93917465209961
1745730375.977297,0.007892480120062828,-0.018846269696950912,-0.27457961440086365,0.36049988865852356,-0.819815993309021,-9.787267684936523
1745730375.97739,-0.01413109339773655,-0.022864721715450287,-0.27689188718795776,0.4851086735725403,-0.9845833778381348,-9.615645408630371
1745730375.9774675,-0.004764712415635586,-0.02199622057378292,-0.27672404050827026,0.3381965756416321,-0.7269967794418335,-9.62358570098877
1745730375.9780126,-0.0055503034964203835,-0.01954128034412861,-0.2792450785636902,0.4821154475212097,-0.9098156094551086,-9.798291206359863
1745730376.0245025,-0.012113695964217186,-0.021741893142461777,-0.2778145670890808,0.4359287619590759,-0.758097767829895,-9.782352447509766
1745730376.0282474,-0.008962069638073444,-0.020073235034942627,-0.2795477509498596,0.49362272024154663,-1.0167328119277954,-9.708200454711914
1745730376.032004,-0.016952456906437874,-0.021661818027496338,-0.2778320610523224,0.5040582418441772,-0.8657684326171875,-9.759428024291992
1745730376.0342877,-0.01006322167813778,-0.022199012339115143,-0.27651435136795044,0.2998345196247101,-0.8887775540351868,-9.896159172058105
1745730376.0728278,-0.01261971890926361,-0.018512843176722527,-0.275566041469574,0.493539422750473,-0.8634131550788879,-9.729085922241211
1745730376.0729203,-0.0023308084346354008,-0.022406110540032387,-0.2749876379966736,0.3027815520763397,-0.7909469604492188,-9.667974472045898
1745730376.073011,-0.005461183842271566,-0.018459303304553032,-0.2759176194667816,0.4501526951789856,-0.7689090967178345,-9.644880294799805
1745730376.0730915,-0.003835135605186224,-0.02209823578596115,-0.2767750918865204,0.37691348791122437,-0.7017953395843506,-9.800662994384766
1745730376.0731664,-9.910929657053202e-05,-0.015064999461174011,-0.2788323760032654,0.4012336730957031,-0.9247188568115234,-9.778346061706543
1745730376.1038547,-0.0010056790197268128,-0.01949034258723259,-0.28001460433006287,0.520809531211853,-0.6937974095344543,-9.597314834594727
1745730376.1084824,-0.002433688612654805,-0.019580073654651642,-0.27892717719078064,0.41014423966407776,-0.9715391397476196,-9.78803825378418
1745730376.1121511,-0.00769131351262331,-0.019043833017349243,-0.2775929868221283,0.5494297742843628,-0.903011679649353,-9.84510326385498
1745730376.1162462,0.0019569380674511194,-0.018384579569101334,-0.27894240617752075,0.3296594023704529,-0.8109537363052368,-9.779772758483887
1745730376.1514847,-0.011417188681662083,-0.022521499544382095,-0.27750566601753235,0.49365296959877014,-0.9458997845649719,-9.66487979888916
1745730376.1548207,0.0015627987449988723,-0.020394399762153625,-0.27888184785842896,0.36830276250839233,-0.5973504781723022,-9.718864440917969
1745730376.1582928,-0.0031760339625179768,-0.021981429308652878,-0.27857932448387146,0.41385555267333984,-1.0812116861343384,-9.944095611572266
1745730376.169299,-0.004135763272643089,-0.020947815850377083,-0.2790890336036682,0.37798595428466797,-0.6390787363052368,-9.638598442077637
1745730376.1894572,0.002104779239743948,-0.019994396716356277,-0.27731889486312866,0.35517826676368713,-0.608239471912384,-9.593241691589355
1745730376.1922867,-0.003469489049166441,-0.02074737474322319,-0.27762505412101746,0.4267560839653015,-0.9139220118522644,-9.728490829467773
1745730376.1937523,0.0006069975206628442,-0.02445024438202381,-0.27598604559898376,0.4109005928039551,-0.6665215492248535,-9.793547630310059
1745730376.1948588,0.009744620881974697,-0.013511518016457558,-0.28005850315093994,0.36735087633132935,-0.7525091171264648,-9.760828018188477
1745730376.23449,0.004433837719261646,-0.023669566959142685,-0.27687662839889526,0.44506698846817017,-0.734416663646698,-9.53460693359375
1745730376.2369695,0.012937614694237709,-0.018592238426208496,-0.2798975706100464,0.34646520018577576,-0.8104202151298523,-9.681615829467773
1745730376.2412317,0.002018943428993225,-0.021430492401123047,-0.2769183814525604,0.5623302459716797,-0.9460098147392273,-9.904436111450195
1745730376.2413094,0.014861160889267921,-0.01964384689927101,-0.27690738439559937,0.3760831952095032,-0.7970274686813354,-9.898366928100586
1745730376.243475,-0.00034122951910831034,-0.01940595731139183,-0.2770351469516754,0.45476168394088745,-0.9107908010482788,-9.669367790222168
1745730376.2780354,0.010888122953474522,-0.022738229483366013,-0.2761094570159912,0.3859322667121887,-0.8711045980453491,-9.581974983215332
1745730376.282978,0.012339876033365726,-0.01875643990933895,-0.27533963322639465,0.40145182609558105,-0.855390727519989,-9.783040046691895
1745730376.2866561,0.001959436107426882,-0.02547416090965271,-0.2757222056388855,0.4792174696922302,-0.6910189390182495,-9.861987113952637
1745730376.2867074,0.01799757592380047,-0.018322834745049477,-0.2760556638240814,0.3400619328022003,-0.9215704202651978,-9.669830322265625
1745730376.321393,-0.002770009683445096,-0.019902728497982025,-0.27799883484840393,0.3957004249095917,-0.7833318114280701,-9.574994087219238
1745730376.3237317,0.021212633699178696,-0.023930221796035767,-0.27683329582214355,0.3668610453605652,-0.6327621340751648,-9.517990112304688
1745730376.3339894,0.002182223368436098,-0.02135208621621132,-0.2757534980773926,0.4853864312171936,-1.0226781368255615,-9.92860221862793
1745730376.33405,0.016420239582657814,-0.019712528213858604,-0.27750808000564575,0.36036115884780884,-0.6955051422119141,-9.882006645202637
1745730376.3340967,0.007486200425773859,-0.01540372334420681,-0.27697640657424927,0.41667047142982483,-0.8623781204223633,-9.603647232055664
1745730376.361629,-0.0027799527160823345,-0.026532402262091637,-0.27838584780693054,0.5090421438217163,-0.8047730326652527,-9.608089447021484
1745730376.3639138,0.01224296074360609,-0.018398452550172806,-0.27698075771331787,0.3880966603755951,-0.7756054997444153,-9.969188690185547
1745730376.3661683,0.0016734497621655464,-0.021274523809552193,-0.2786535620689392,0.44714850187301636,-0.8756391406059265,-9.980504989624023
1745730376.369314,0.01567297801375389,-0.021810105070471764,-0.27855056524276733,0.33915814757347107,-0.7643284201622009,-9.559102058410645
1745730376.4061148,0.004185462836176157,-0.021517446264624596,-0.27699610590934753,0.4816097617149353,-0.8009917140007019,-9.534921646118164
1745730376.4091027,0.011224265210330486,-0.028632288798689842,-0.2770692706108093,0.367590069770813,-0.8165711164474487,-9.920860290527344
1745730376.415808,0.010831725783646107,-0.017538854852318764,-0.2765130400657654,0.3854333758354187,-0.8705460429191589,-9.917527198791504
1745730376.4159079,0.0034507191739976406,-0.02289469726383686,-0.27627259492874146,0.4176458418369293,-0.8249654769897461,-9.567155838012695
1745730376.4478896,0.0068539963103830814,-0.023430142551660538,-0.27712714672088623,0.3795744776725769,-0.8827049136161804,-9.575246810913086
1745730376.4566655,-0.009305458515882492,-0.026248246431350708,-0.2789282202720642,0.5005896687507629,-0.7405315637588501,-9.957216262817383
1745730376.4570262,0.002912128111347556,-0.021502848714590073,-0.27882036566734314,0.37869828939437866,-0.9051932096481323,-10.061184883117676
1745730376.4570944,-0.005253101233392954,-0.01899755373597145,-0.27758127450942993,0.4959299564361572,-0.8602607846260071,-9.547332763671875
1745730376.4571316,-0.001942712813615799,-0.029343903064727783,-0.2795981168746948,0.34594303369522095,-0.7137843370437622,-9.470437049865723
1745730376.4945884,-0.007868208922445774,-0.024494249373674393,-0.2772822380065918,0.4410417079925537,-0.9840214848518372,-9.890535354614258
1745730376.4985209,0.0003562644124031067,-0.019678886979818344,-0.27956485748291016,0.3569325804710388,-0.4871296286582947,-9.869972229003906
1745730376.4999082,0.007718546781688929,-0.01922575756907463,-0.2779483199119568,0.4106038212776184,-0.8608983159065247,-9.628608703613281
1745730376.5009696,-0.001267833635210991,-0.025935489684343338,-0.2791101038455963,0.44164571166038513,-0.638637125492096,-9.568228721618652
1745730376.5338962,0.015424038283526897,-0.024369843304157257,-0.2782239317893982,0.37255653738975525,-0.8448284268379211,-9.994091987609863
1745730376.5369053,0.005230791866779327,-0.02274886704981327,-0.27948981523513794,0.4321642816066742,-0.8004568219184875,-9.950413703918457
1745730376.5372355,0.010957594029605389,-0.021061554551124573,-0.28121766448020935,0.49700504541397095,-0.8941277265548706,-9.967050552368164
1745730376.5392387,0.008318698033690453,-0.022677425295114517,-0.2798691391944885,0.45367178320884705,-0.7482824325561523,-9.546040534973145
1745730376.577548,0.010360635817050934,-0.024487217888236046,-0.2798190712928772,0.27145132422447205,-0.7830742597579956,-9.618623733520508
1745730376.579356,0.003293121699243784,-0.026695549488067627,-0.27978676557540894,0.5149319767951965,-0.9093537330627441,-9.938382148742676
1745730376.5815115,0.011788097210228443,-0.021478058770298958,-0.2779490351676941,0.26758527755737305,-0.7359169721603394,-9.92345142364502
1745730376.587274,0.007479262538254261,-0.023039110004901886,-0.27749723196029663,0.5110892653465271,-0.910548210144043,-9.59718132019043
1745730376.6201622,0.009760456159710884,-0.027336519211530685,-0.27843165397644043,0.3488301634788513,-0.6854243874549866,-9.62129020690918
1745730376.6254292,0.003792098956182599,-0.02219945192337036,-0.28133854269981384,0.4217279553413391,-0.875211238861084,-9.88659954071045
1745730376.6273186,0.015929188579320908,-0.021901512518525124,-0.28115805983543396,0.46185627579689026,-0.6747871041297913,-9.760287284851074
1745730376.6306326,0.005771671887487173,-0.0220628771930933,-0.27998965978622437,0.351083904504776,-0.8725849986076355,-9.666711807250977
1745730376.6334815,0.0016318315174430609,-0.026840394362807274,-0.27922189235687256,0.5207462906837463,-0.7608908414840698,-9.656381607055664
1745730376.664254,0.014610938727855682,-0.02040432021021843,-0.2791520655155182,0.3166510760784149,-0.7390695214271545,-9.885727882385254
1745730376.6675875,0.019586823880672455,-0.02352137304842472,-0.2806933522224426,0.3758154511451721,-0.5973612070083618,-9.89770221710205
1745730376.6698718,0.025478065013885498,-0.01930989697575569,-0.2787943482398987,0.3814203441143036,-0.9369427561759949,-9.906438827514648
1745730376.7048094,0.019628647714853287,-0.02392577938735485,-0.2799379229545593,0.3911316990852356,-0.6905489563941956,-9.569150924682617
1745730376.707259,0.02513449266552925,-0.01977664604783058,-0.28090301156044006,0.3259454369544983,-0.8299180865287781,-9.60477066040039
1745730376.7081385,0.021484190598130226,-0.023750806227326393,-0.2828981578350067,0.5282560586929321,-0.8550373315811157,-9.80335807800293
1745730376.7093318,0.02658151462674141,-0.019434843212366104,-0.2795417904853821,0.29057231545448303,-0.7481743097305298,-9.855690002441406
1745730376.711702,0.012485472485423088,-0.018115058541297913,-0.28316253423690796,0.5304316282272339,-0.9565426707267761,-9.692667961120605
1745730376.7550335,0.023983288556337357,-0.01839672215282917,-0.2785640358924866,0.37227004766464233,-0.7533144950866699,-9.601943969726562
1745730376.7551363,0.012166270054876804,-0.02031153067946434,-0.2794343829154968,0.408515602350235,-0.9288786053657532,-9.868886947631836
1745730376.7571094,0.019622351974248886,-0.021538913249969482,-0.28034085035324097,0.45106011629104614,-0.7818982005119324,-9.891127586364746
1745730376.7572253,0.01667897403240204,-0.016680341213941574,-0.28143125772476196,0.31442829966545105,-0.895492434501648,-9.727231979370117
1745730376.792615,0.01347685419023037,-0.02343319170176983,-0.2777986228466034,0.48915448784828186,-0.7631632089614868,-9.521821022033691
1745730376.7947726,0.015199464745819569,-0.021531976759433746,-0.2789815664291382,0.32106682658195496,-0.8467779159545898,-9.845324516296387
1745730376.7972486,0.008356907404959202,-0.018882770091295242,-0.27973684668540955,0.49084386229515076,-0.8856714367866516,-9.88943862915039
1745730376.8005474,0.026486556977033615,-0.01885335147380829,-0.28224343061447144,0.3487075865268707,-0.5947599411010742,-9.575267791748047
1745730376.8030891,0.005322552751749754,-0.0188121534883976,-0.2795475125312805,0.4362228512763977,-0.964747428894043,-9.613218307495117
1745730376.8368526,0.0200357623398304,-0.025126386433839798,-0.2805965542793274,0.4642510414123535,-0.6589769124984741,-9.757993698120117
1745730376.8382154,0.021022338420152664,-0.015275160782039165,-0.2804921269416809,0.3821656107902527,-0.9213720560073853,-10.022897720336914
1745730376.8438973,0.01607573591172695,-0.020024437457323074,-0.27864211797714233,0.4061315059661865,-0.7315295934677124,-9.725193977355957
1745730376.8442574,0.029316365718841553,-0.01780632697045803,-0.27886438369750977,0.3112010359764099,-0.7248163223266602,-9.531054496765137
1745730376.8774424,0.012627850286662579,-0.023392293602228165,-0.28024977445602417,0.4750450551509857,-0.9630524516105652,-9.78050422668457
1745730376.88128,0.031527578830718994,-0.020429814234375954,-0.2810700535774231,0.3601844310760498,-0.589507520198822,-9.833280563354492
1745730376.8848135,0.012373067438602448,-0.016374621540308,-0.2798102796077728,0.4701252579689026,-1.023559331893921,-9.792478561401367
1745730376.8862526,0.026792192831635475,-0.013952977955341339,-0.27633970975875854,0.3313212990760803,-0.7640838027000427,-9.809721946716309
1745730376.8883145,0.018177920952439308,-0.01905798725783825,-0.27936211228370667,0.4490785002708435,-0.7142518162727356,-9.629430770874023
1745730376.9283788,0.02909919060766697,-0.02244962751865387,-0.27951493859291077,0.3305583596229553,-0.6760919690132141,-9.682291030883789
1745730376.9284499,0.02884969487786293,-0.01287561934441328,-0.2807430624961853,0.4604160785675049,-0.7321459650993347,-9.883462905883789
1745730376.92851,0.03349021449685097,-0.020544815808534622,-0.28011250495910645,0.3638499677181244,-0.8308202028274536,-9.791306495666504
1745730376.9285574,0.029428228735923767,-0.013982106931507587,-0.2776682376861572,0.47441673278808594,-0.9929555058479309,-9.527375221252441
1745730376.9650874,0.017511479556560516,-0.021056514233350754,-0.27627649903297424,0.45273131132125854,-0.856434166431427,-9.737886428833008
1745730376.9666834,0.027927469462156296,-0.01382472924888134,-0.27610835433006287,0.30214986205101013,-0.9297159314155579,-9.988021850585938
1745730376.9700606,0.014555876143276691,-0.012264815159142017,-0.27837562561035156,0.4134689271450043,-0.6785359382629395,-9.649347305297852
1745730376.973082,0.02450798638164997,-0.016596956178545952,-0.27829378843307495,0.39520663022994995,-0.8273545503616333,-9.576117515563965
1745730377.0071504,0.018353916704654694,-0.014780500903725624,-0.2806938588619232,0.48140016198158264,-0.7602585554122925,-9.838040351867676
1745730377.008572,0.028572458773851395,-0.021134693175554276,-0.2817498445510864,0.2908652126789093,-0.7190777063369751,-9.999141693115234
1745730377.010474,0.0220770426094532,-0.013816488906741142,-0.27974942326545715,0.39046549797058105,-1.0587539672851562,-9.65062427520752
1745730377.0205455,0.02107999101281166,-0.01126263476908207,-0.2771773934364319,0.4772670865058899,-0.8725754022598267,-9.663067817687988
1745730377.050176,0.01503774244338274,-0.02308257296681404,-0.27565687894821167,0.4565710425376892,-0.7998729944229126,-9.849321365356445
1745730377.052362,0.03084896132349968,-0.011794006451964378,-0.27473199367523193,0.30992305278778076,-0.7706295251846313,-9.824495315551758
1745730377.0551536,0.011307730339467525,-0.016483083367347717,-0.2748871445655823,0.45031556487083435,-0.9255156517028809,-9.62132740020752
1745730377.0596201,0.02199978567659855,-0.014256348833441734,-0.27631044387817383,0.31078749895095825,-0.8253887891769409,-9.605391502380371
1745730377.059775,0.01287500374019146,-0.015140742063522339,-0.2763398587703705,0.5168174505233765,-0.8644895553588867,-9.789766311645508
1745730377.0953338,0.008477764204144478,-0.018621746450662613,-0.2764177918434143,0.39325493574142456,-0.7503897547721863,-9.880404472351074
1745730377.0966713,0.010135442018508911,-0.012133104726672173,-0.27864891290664673,0.47220492362976074,-0.9743692278862,-9.735143661499023
1745730377.0998664,0.008455981500446796,-0.018864769488573074,-0.27550119161605835,0.43745240569114685,-0.7567415237426758,-9.677968978881836
1745730377.1035905,0.011318991892039776,-0.01792270503938198,-0.27597421407699585,0.37480688095092773,-0.8963726758956909,-9.892081260681152
1745730377.1398475,0.009665546007454395,-0.015806546434760094,-0.27568119764328003,0.48709478974342346,-0.7231866121292114,-9.79881477355957
1745730377.1408393,0.01951546221971512,-0.016636986285448074,-0.2748294472694397,0.3368707299232483,-0.85992431640625,-9.683841705322266
1745730377.1431732,0.014549480751156807,-0.018735261633992195,-0.27476197481155396,0.47630801796913147,-0.7746556401252747,-9.62690544128418
1745730377.1451883,0.01994231343269348,-0.021818863227963448,-0.27545231580734253,0.34036728739738464,-0.7316513061523438,-9.847238540649414
1745730377.1460183,0.0186191163957119,-0.013159339316189289,-0.2762529253959656,0.4064643979072571,-0.9545599222183228,-9.854974746704102
1745730377.1832166,0.01756332255899906,-0.017990220338106155,-0.27525871992111206,0.43272194266319275,-0.6595034599304199,-9.587409019470215
1745730377.1833377,0.010402554646134377,-0.019629213958978653,-0.2767336964607239,0.4622077941894531,-1.0098278522491455,-9.762309074401855
1745730377.1874044,0.008513644337654114,-0.01949920505285263,-0.27714797854423523,0.4906691610813141,-0.7748626470565796,-9.908951759338379
1745730377.1897416,0.018438972532749176,-0.016827158629894257,-0.2771117091178894,0.32829931378364563,-0.8543463945388794,-9.848052978515625
1745730377.2234256,0.00157124362885952,-0.01792052388191223,-0.2751728296279907,0.5035957098007202,-0.9426332712173462,-9.528543472290039
1745730377.2259805,0.023219667375087738,-0.01892869919538498,-0.2753841280937195,0.33585312962532043,-0.553087592124939,-9.611532211303711
1745730377.226025,0.011493074707686901,-0.019027527421712875,-0.2743588089942932,0.4576020836830139,-0.9856340289115906,-9.954473495483398
1745730377.229309,0.02524658478796482,-0.017362207174301147,-0.2754738926887512,0.34910064935684204,-0.7308229804039001,-9.631532669067383
1745730377.2644022,0.007539248559623957,-0.01995059847831726,-0.27444544434547424,0.46495717763900757,-0.8860438466072083,-9.624673843383789
1745730377.2675154,0.020043596625328064,-0.023615678772330284,-0.2746254503726959,0.4410407543182373,-0.804105281829834,-9.79620361328125
1745730377.2710333,0.017902139574289322,-0.01261382270604372,-0.27551695704460144,0.39677077531814575,-0.8216687440872192,-9.868939399719238
1745730377.2733586,0.016326939687132835,-0.021986596286296844,-0.2739761769771576,0.4491942822933197,-0.7712791562080383,-9.61448860168457
1745730377.3084705,0.02462964691221714,-0.019139347597956657,-0.27375051379203796,0.3195329010486603,-0.871865451335907,-9.65855598449707
1745730377.3119044,0.015914781019091606,-0.023912187665700912,-0.2740107476711273,0.490917444229126,-0.8583024144172668,-9.90003776550293
1745730377.3144488,0.028677096590399742,-0.020002959296107292,-0.2726288139820099,0.31051144003868103,-0.7957724332809448,-9.913233757019043
1745730377.3177297,0.011259250342845917,-0.01987617090344429,-0.27146270871162415,0.4492363929748535,-0.8312980532646179,-9.65617847442627
1745730377.3198895,0.030818507075309753,-0.022237656638026237,-0.2732817232608795,0.37309888005256653,-0.7833766937255859,-9.540205001831055
1745730377.3533216,0.018112335354089737,-0.0181663129478693,-0.27398809790611267,0.4152541756629944,-0.878446102142334,-9.786672592163086
1745730377.3558512,0.018524939194321632,-0.02267271652817726,-0.27416640520095825,0.49516892433166504,-0.6833075284957886,-9.879340171813965
1745730377.35798,0.02447984553873539,-0.015510417520999908,-0.27450957894325256,0.40010538697242737,-0.9738693237304688,-9.717630386352539
1745730377.3622572,0.011920550838112831,-0.019720468670129776,-0.2739187777042389,0.3334046006202698,-0.7334219813346863,-9.496583938598633
1745730377.3955035,0.020577766001224518,-0.014095154590904713,-0.2729456424713135,0.32570236921310425,-0.6710793972015381,-9.72291374206543
1745730377.3979785,0.01343952864408493,-0.022700246423482895,-0.2719205915927887,0.5063666105270386,-0.915244460105896,-9.774226188659668
1745730377.4002602,0.023585595190525055,-0.017071912065148354,-0.2717967629432678,0.29851025342941284,-0.721603512763977,-9.747113227844238
1745730377.403214,0.009705930948257446,-0.017045527696609497,-0.27092427015304565,0.4721911549568176,-1.0791643857955933,-9.791061401367188
1745730377.4373403,0.01803942397236824,-0.019361969083547592,-0.2718718945980072,0.34881502389907837,-0.7251293659210205,-9.717517852783203
1745730377.4389932,0.004828516393899918,-0.019083673134446144,-0.2697555124759674,0.4549024701118469,-0.9465886354446411,-9.824238777160645
1745730377.439692,0.009172216057777405,-0.022110536694526672,-0.27051806449890137,0.4422067701816559,-0.883969783782959,-9.753324508666992
1745730377.4413695,0.012741491198539734,-0.016725026071071625,-0.2719596326351166,0.36371031403541565,-0.8317142724990845,-9.704595565795898
1745730377.4490566,-0.0017777374014258385,-0.021910272538661957,-0.27223101258277893,0.4902879297733307,-0.771848201751709,-9.682275772094727
1745730377.4800127,0.015629321336746216,-0.01713106408715248,-0.27379903197288513,0.311530739068985,-0.8340820074081421,-9.746660232543945
1745730377.4808655,0.0018225297098979354,-0.017173346132040024,-0.27386289834976196,0.39851754903793335,-0.8187828063964844,-9.7503023147583
1745730377.4831061,0.015124358236789703,-0.02215888537466526,-0.27423107624053955,0.4213678240776062,-0.772812008857727,-9.716927528381348
1745730377.4832885,0.0016237867530435324,-0.01859309896826744,-0.27093175053596497,0.4446074962615967,-0.9695293307304382,-9.804923057556152
1745730377.5240858,0.010225759819149971,-0.025685574859380722,-0.2724727690219879,0.42570042610168457,-0.7811018824577332,-9.850011825561523
1745730377.527237,0.006924602203071117,-0.019264576956629753,-0.2705816328525543,0.3608056604862213,-0.9825523495674133,-9.817411422729492
1745730377.5310638,-0.006317923776805401,-0.022079944610595703,-0.2708227038383484,0.4704005718231201,-0.8009163737297058,-9.597908020019531
1745730377.5358613,0.014204712584614754,-0.021583814173936844,-0.27466192841529846,0.3858323097229004,-0.8243525624275208,-9.692371368408203
1745730377.5383782,-0.00903077982366085,-0.02238413877785206,-0.27288371324539185,0.413616806268692,-0.8698424100875854,-9.828836441040039
1745730377.5673718,0.008673722855746746,-0.02076186239719391,-0.27550169825553894,0.36134809255599976,-0.6627753376960754,-9.776690483093262
1745730377.571772,-0.004645650740712881,-0.01784992404282093,-0.27565208077430725,0.4970669746398926,-0.9534724950790405,-9.627904891967773
1745730377.5737836,0.0002536047250032425,-0.025467198342084885,-0.2749803364276886,0.35660818219184875,-0.6853114366531372,-9.7067232131958
1745730377.6217635,0.0001160938263637945,-0.024492422118782997,-0.2780887186527252,0.34771379828453064,-0.6833389401435852,-9.542459487915039
1745730377.6218472,-0.0033901077695190907,-0.0212075337767601,-0.2773846983909607,0.503760814666748,-1.1010525226593018,-9.751623153686523
1745730377.6219027,-0.000958096410613507,-0.023116666823625565,-0.27477261424064636,0.4475592076778412,-0.722199022769928,-9.932100296020508
1745730377.6219513,-0.0029680875595659018,-0.020695660263299942,-0.27438145875930786,0.37066754698753357,-0.8986738324165344,-9.863462448120117
1745730377.6549418,0.0034245257265865803,-0.022570811212062836,-0.276047945022583,0.5227376818656921,-0.7726026773452759,-9.539250373840332
1745730377.657923,0.0039727818220853806,-0.024688368663191795,-0.27488693594932556,0.3275246024131775,-0.8263217806816101,-9.715456008911133
1745730377.6621945,0.0022812988609075546,-0.023130279034376144,-0.2736128270626068,0.4725590646266937,-0.8310761451721191,-9.883127212524414
1745730377.6649647,0.005897884722799063,-0.024036899209022522,-0.2748538553714752,0.31775593757629395,-0.765124499797821,-9.837366104125977
1745730377.6808228,-0.0022659499663859606,-0.017773304134607315,-0.277005672454834,0.37142765522003174,-1.0045256614685059,-9.557055473327637
1745730377.6987097,-0.0010558695066720247,-0.025880658999085426,-0.2763882279396057,0.40850362181663513,-0.6052543520927429,-9.545392990112305
1745730377.7172408,-0.012050291523337364,-0.02023853361606598,-0.27443674206733704,0.3923000395298004,-1.0030438899993896,-9.978130340576172
1745730377.7174404,-0.0085850665345788,-0.0207630954682827,-0.2762776017189026,0.5189525485038757,-0.7177340388298035,-9.870463371276855
1745730377.7175353,0.00022722613357473165,-0.020130470395088196,-0.2776789665222168,0.362355500459671,-0.8533755540847778,-9.680819511413574
1745730377.739179,-0.01596633717417717,-0.026464849710464478,-0.2762681543827057,0.5110269784927368,-0.8868158459663391,-9.652433395385742
1745730377.7410443,1.4033541447133757e-05,-0.015123878605663776,-0.2807954251766205,0.5182380676269531,-0.8352850079536438,-9.758580207824707
1745730377.7436779,0.006543086376041174,-0.019849130883812904,-0.2795725464820862,0.29657769203186035,-0.7543803453445435,-9.670461654663086
1745730377.7442758,0.005763448309153318,-0.016868384554982185,-0.27902528643608093,0.48510485887527466,-0.8933496475219727,-9.726512908935547
1745730377.7814512,0.002316703787073493,-0.021147362887859344,-0.27870893478393555,0.3561871349811554,-0.7019903063774109,-9.885647773742676
1745730377.7849584,0.015477513894438744,-0.01416563056409359,-0.2795563340187073,0.37355130910873413,-0.7902873754501343,-9.748529434204102
1745730377.7879589,0.0014873023610562086,-0.020706910640001297,-0.27995535731315613,0.3774659037590027,-0.7080345153808594,-9.603344917297363
1745730377.7903006,0.015625301748514175,-0.017129814252257347,-0.28195708990097046,0.29798704385757446,-0.8075101971626282,-9.696672439575195
1745730377.7920113,0.008834296837449074,-0.01630789414048195,-0.28157562017440796,0.48921769857406616,-0.7262364625930786,-9.761103630065918
1745730377.8247437,0.011026443913578987,-0.01859569363296032,-0.28282421827316284,0.31668582558631897,-0.8012862205505371,-9.839515686035156
1745730377.828812,0.006411026231944561,-0.016214964911341667,-0.2826419770717621,0.5250266790390015,-0.9302802085876465,-9.708072662353516
1745730377.834808,0.011063603684306145,-0.015950780361890793,-0.2789406180381775,0.3257612884044647,-0.7327368855476379,-9.74328327178955
1745730377.8351707,0.007944180630147457,-0.01779143325984478,-0.2792961001396179,0.44236546754837036,-0.8935712575912476,-9.812742233276367
1745730377.867092,0.014629848301410675,-0.01683340035378933,-0.28017014265060425,0.46074891090393066,-0.6211894750595093,-9.76346492767334
1745730377.8697755,0.014600642025470734,-0.014952318742871284,-0.27795377373695374,0.3484611511230469,-0.8982163667678833,-9.801508903503418
1745730377.869834,0.015528811141848564,-0.019294127821922302,-0.2808707654476166,0.4245310425758362,-0.5912367105484009,-9.601785659790039
1745730377.8719046,0.020330263301730156,-0.017103971913456917,-0.28301307559013367,0.29093584418296814,-0.8245288133621216,-9.754789352416992
1745730377.9160855,0.010964456014335155,-0.015829576179385185,-0.2815873324871063,0.4727643132209778,-0.8855224847793579,-9.790071487426758
1745730377.921185,0.022190876305103302,-0.01852504350244999,-0.2819298803806305,0.3803306818008423,-0.6580221056938171,-9.74428653717041
1745730377.9241035,0.002787365112453699,-0.01698388159275055,-0.28302568197250366,0.476887047290802,-1.0073728561401367,-9.797382354736328
1745730377.9268868,0.013759218156337738,-0.01842908188700676,-0.2806960642337799,0.4220410883426666,-0.7015768885612488,-9.73874282836914
1745730377.9286778,0.013234436511993408,-0.014264118857681751,-0.28156304359436035,0.37531372904777527,-0.9312132596969604,-9.815478324890137
1745730377.957296,0.007465571165084839,-0.021611198782920837,-0.2842937111854553,0.5342518091201782,-0.743007242679596,-9.738214492797852
1745730377.9590533,0.02071906067430973,-0.013405958190560341,-0.2833871841430664,0.37675219774246216,-0.8161719441413879,-9.829038619995117
1745730377.9606996,0.008337734267115593,-0.021927647292613983,-0.2859167754650116,0.44918379187583923,-0.7901057004928589,-9.789449691772461
1745730377.9619505,0.01960347220301628,-0.017362408339977264,-0.28399771451950073,0.31511902809143066,-0.7696062326431274,-9.687451362609863
1745730377.9962528,0.014788761734962463,-0.01329720951616764,-0.2858518362045288,0.4303629994392395,-0.6998854875564575,-9.633811950683594
1745730378.000362,0.024094367399811745,-0.021710503846406937,-0.28453001379966736,0.3911598324775696,-0.6962813138961792,-9.695405960083008
1745730378.0015845,0.017313849180936813,-0.01617502234876156,-0.28733697533607483,0.44195207953453064,-0.8974636197090149,-9.84727668762207
1745730378.0226207,0.016539212316274643,-0.01897665299475193,-0.28514784574508667,0.46157628297805786,-0.8010546565055847,-9.837102890014648
1745730378.0398397,0.019656695425510406,-0.016979707404971123,-0.2855187654495239,0.30878302454948425,-0.9223465919494629,-9.752469062805176
1745730378.0408075,0.003035418689250946,-0.02016548439860344,-0.2845994830131531,0.44400864839553833,-0.7716071605682373,-9.627058029174805
1745730378.042903,0.01708565652370453,-0.018350008875131607,-0.2864055335521698,0.3829708695411682,-0.8801878094673157,-9.77757453918457
1745730378.045858,0.004758310969918966,-0.017082659527659416,-0.2851923406124115,0.507896900177002,-0.7465381026268005,-9.825675010681152
1745730378.0474598,0.02040679194033146,-0.019633907824754715,-0.28853556513786316,0.3296487033367157,-0.5567678213119507,-9.726795196533203
1745730378.0877256,0.014309858903288841,-0.01741231232881546,-0.2881947457790375,0.4440428614616394,-0.8701268434524536,-9.59626293182373
1745730378.0877914,0.01726647838950157,-0.019630547612905502,-0.28919270634651184,0.3427603840827942,-0.6364434957504272,-9.691604614257812
1745730378.092924,0.02399333566427231,-0.02211187593638897,-0.2862784266471863,0.3697899281978607,-0.7315999269485474,-9.763821601867676
1745730378.0951896,0.030499625951051712,-0.013581842184066772,-0.28371351957321167,0.4248533248901367,-0.8705893754959106,-9.715788841247559
1745730378.127011,0.019153539091348648,-0.023574916645884514,-0.28510695695877075,0.46198296546936035,-0.8250420689582825,-9.7379150390625
1745730378.1298535,0.0390041247010231,-0.017416592687368393,-0.2850796580314636,0.31813639402389526,-0.6595891714096069,-9.740082740783691
1745730378.1333323,0.018188606947660446,-0.019631346687674522,-0.28414446115493774,0.475773423910141,-0.9071070551872253,-9.751165390014648
1745730378.1361246,0.035796474665403366,-0.01834167167544365,-0.2853657603263855,0.30185452103614807,-0.7491127252578735,-9.701393127441406
1745730378.1697497,0.020217467099428177,-0.01856095716357231,-0.28533628582954407,0.45343589782714844,-0.8734997510910034,-9.749292373657227
1745730378.1771433,0.021837076172232628,-0.020789703354239464,-0.28537893295288086,0.3664689362049103,-0.7372381687164307,-9.81165599822998
1745730378.1771882,0.029743492603302002,-0.015450993552803993,-0.28682741522789,0.40620607137680054,-0.8453516960144043,-9.747892379760742
1745730378.178515,0.026288604363799095,-0.022274188697338104,-0.28600460290908813,0.47547513246536255,-0.7250320315361023,-9.689959526062012
1745730378.18154,0.030125603079795837,-0.02027103304862976,-0.2856106758117676,0.4282790720462799,-0.8638989329338074,-9.832858085632324
1745730378.2159421,0.030770430341362953,-0.01616661436855793,-0.2884693741798401,0.47954195737838745,-0.7172136306762695,-9.804665565490723
1745730378.2161157,0.03671053797006607,-0.020196950063109398,-0.2855907380580902,0.3105754852294922,-0.9040763974189758,-9.657350540161133
1745730378.2173693,0.022608410567045212,-0.01935308240354061,-0.2829916775226593,0.42579302191734314,-0.8998032808303833,-9.602311134338379
1745730378.2187204,0.03231971338391304,-0.02027801238000393,-0.2845519185066223,0.376038134098053,-0.7526663541793823,-9.836664199829102
1745730378.254337,0.02559179626405239,-0.015884768217802048,-0.28243598341941833,0.38685792684555054,-0.9162752032279968,-9.913536071777344
1745730378.2570758,0.025880783796310425,-0.01942475512623787,-0.28642499446868896,0.378502756357193,-0.641575276851654,-9.643810272216797
1745730378.2594006,0.02431863360106945,-0.020732959732413292,-0.28596988320350647,0.40142935514450073,-0.967817485332489,-9.693156242370605
1745730378.2612917,0.022755220532417297,-0.020075079053640366,-0.2854155898094177,0.49416613578796387,-0.7135286331176758,-9.810168266296387
1745730378.2632983,0.031817711889743805,-0.020380819216370583,-0.2857051491737366,0.3368363380432129,-0.782825767993927,-9.86889934539795
1745730378.300084,0.02338351495563984,-0.018825748935341835,-0.2852761447429657,0.48125210404396057,-0.9916618466377258,-9.595609664916992
1745730378.3019986,0.032568078488111496,-0.017013682052493095,-0.2838422358036041,0.3137275278568268,-0.584456205368042,-9.566692352294922
1745730378.3047087,0.027461107820272446,-0.018983323127031326,-0.2834424376487732,0.27024924755096436,-0.7157895565032959,-9.625195503234863
1745730378.3069086,0.013060803525149822,-0.019264694303274155,-0.28361254930496216,0.533994734287262,-0.9538666605949402,-9.66773796081543
1745730378.3423538,0.021542783826589584,-0.023278281092643738,-0.284799188375473,0.42023801803588867,-0.6994315981864929,-9.813667297363281
1745730378.3451889,0.021648293361067772,-0.013850530609488487,-0.28580695390701294,0.3416038453578949,-0.8475145101547241,-9.915349006652832
1745730378.3468683,0.022421279922127724,-0.02302386239171028,-0.2864174246788025,0.5162205696105957,-0.8317089080810547,-9.639973640441895
1745730378.348285,0.022325683385133743,-0.020012224093079567,-0.2825095057487488,0.3111705183982849,-0.8977072834968567,-9.68481731414795
1745730378.3862839,0.018728671595454216,-0.023462191224098206,-0.28083914518356323,0.48212581872940063,-0.9223924875259399,-9.876718521118164
1745730378.3867078,0.022217679768800735,-0.021177519112825394,-0.2801344394683838,0.3068065047264099,-0.8387346267700195,-9.89543628692627
1745730378.3911164,0.010065168142318726,-0.018319223076105118,-0.28206151723861694,0.4298105835914612,-0.8503430485725403,-9.613224983215332
1745730378.3923247,0.025955239310860634,-0.0223272442817688,-0.2819555997848511,0.3851817846298218,-0.6045958995819092,-9.516851425170898
1745730378.3939924,0.016801543533802032,-0.01798674464225769,-0.28384602069854736,0.3795090913772583,-0.8598297238349915,-9.853137969970703
1745730378.4320762,0.017551694065332413,-0.023601088672876358,-0.2845022678375244,0.5042980909347534,-0.7404191493988037,-9.86907958984375
1745730378.4423375,0.023387642577290535,-0.016022594645619392,-0.28426751494407654,0.3684649169445038,-1.0439491271972656,-9.74161148071289
1745730378.4424593,0.0029259943403303623,-0.022515373304486275,-0.28162434697151184,0.3851206302642822,-0.9329882860183716,-9.662984848022461
1745730378.4425006,0.01708768680691719,-0.02114430069923401,-0.2816668152809143,0.526684045791626,-0.9805191159248352,-9.578754425048828
1745730378.4712,0.025182556360960007,-0.01746390201151371,-0.2819725275039673,0.3213272988796234,-0.799953818321228,-9.7582426071167
1745730378.4742548,0.01269078254699707,-0.018639620393514633,-0.2812902331352234,0.5372447967529297,-1.0368295907974243,-9.879826545715332
1745730378.4768722,0.012686669826507568,-0.018344495445489883,-0.28143444657325745,0.3525761365890503,-0.7805407643318176,-9.720258712768555
1745730378.4781342,0.007742571644484997,-0.018902909010648727,-0.28160661458969116,0.49240779876708984,-1.0957497358322144,-9.723649978637695
1745730378.5150156,0.005678615532815456,-0.02456197701394558,-0.28005173802375793,0.3558085858821869,-0.7227853536605835,-9.780299186706543
1745730378.521628,0.004928565584123135,-0.016043711453676224,-0.280920147895813,0.3186531662940979,-0.8673645257949829,-9.876884460449219
1745730378.522561,0.0045707509852945805,-0.02083594724535942,-0.2821420729160309,0.4794148802757263,-0.881438136100769,-9.590675354003906
1745730378.5248952,0.010107209905982018,-0.019881995394825935,-0.2799472212791443,0.2879308760166168,-0.825234591960907,-9.673849105834961
1745730378.5563574,0.0020890894811600447,-0.020820368081331253,-0.28068095445632935,0.512660026550293,-0.812273383140564,-9.8429536819458
