timestamp,angular_vel_x,angular_vel_y,angular_vel_z,linear_acc_x,linear_acc_y,linear_acc_z
1745660744.146187,-0.023371685296297073,0.07076330482959747,0.1583022177219391,-0.19305385649204254,1.0523911714553833,-9.00559139251709
1745660744.1462376,0.048081666231155396,0.08969388157129288,0.17271631956100464,0.08745257556438446,1.0015100240707397,-8.877628326416016
1745660744.1462715,0.11856190860271454,0.0930311530828476,0.18663235008716583,0.08292797952890396,0.6008847951889038,-9.883222579956055
1745660744.1484265,0.1448037326335907,0.09030504524707794,0.19200147688388824,0.7705472707748413,0.10207048803567886,-10.327726364135742
1745660744.1509104,0.12476694583892822,0.09524456411600113,0.2035716325044632,0.5772848129272461,-1.008485198020935,-10.13381576538086
1745660744.1852593,-0.12099272012710571,0.09864881634712219,0.1828618347644806,-0.25813180208206177,-0.7104174494743347,-9.05673885345459
1745660744.187701,-0.10172224044799805,0.1244421973824501,0.20634882152080536,0.0568954162299633,-0.11366579681634903,-8.442358016967773
1745660744.1906343,-0.09218166768550873,0.10728534311056137,0.22350195050239563,0.522366464138031,-0.0874311551451683,-9.62812614440918
1745660744.1923547,-0.014642244204878807,0.121146060526371,0.23663561046123505,0.7032539248466492,0.33125966787338257,-10.392248153686523
1745660744.2284563,-0.03113795444369316,0.13735762238502502,0.24530120193958282,0.5086377859115601,0.2801834046840668,-10.114340782165527
1745660744.2305787,-0.035741642117500305,0.09427342563867569,0.24814972281455994,0.27486222982406616,-0.7234066724777222,-9.601578712463379
1745660744.2316933,-0.10785405337810516,0.11113838106393814,0.2527742385864258,0.06811372190713882,-0.7428747415542603,-9.692514419555664
1745660744.236231,-0.1908472329378128,0.11821244657039642,0.24885022640228271,0.32879310846328735,-0.8607316017150879,-10.236654281616211
1745660744.2715807,-0.2171827256679535,0.09588289260864258,0.2361009120941162,0.14455613493919373,0.880650520324707,-9.652125358581543
1745660744.277114,-0.2340758740901947,0.09607382863759995,0.2204654961824417,0.4095892906188965,0.8252266645431519,-9.509936332702637
1745660744.2803564,-0.1306195855140686,0.12407630681991577,0.21982069313526154,0.29069623351097107,1.5187714099884033,-9.51881217956543
1745660744.2832668,-0.12175573408603668,0.1389959752559662,0.22443625330924988,-0.041980039328336716,1.379676103591919,-9.335358619689941
1745660744.284991,0.006177516188472509,0.1091415137052536,0.2532151937484741,0.5508214235305786,0.03378518298268318,-9.11902904510498
1745660744.3156707,0.08839976787567139,0.1457468420267105,0.27641114592552185,0.7032152414321899,1.2510082721710205,-9.883966445922852
1745660744.31806,-0.0237831212580204,0.24236366152763367,0.37169376015663147,0.8509458303451538,1.7971665859222412,-13.410125732421875
1745660744.3192134,-0.09822973608970642,0.20779719948768616,0.3536476492881775,0.5135332345962524,1.7800976037979126,-7.695067405700684
1745660744.3220496,-0.008791530504822731,0.09604009240865707,0.352555513381958,0.6959702372550964,-0.41136249899864197,-7.159482002258301
1745660744.3582425,0.056753646582365036,0.1986076533794403,0.34967032074928284,0.6232675313949585,2.4967055320739746,-11.845651626586914
1745660744.3605664,-0.10533709824085236,0.19709129631519318,0.35681331157684326,-0.08205483108758926,-1.2277300357818604,-12.825055122375488
1745660744.3626034,0.13290122151374817,0.1999991089105606,0.3743968605995178,1.0940086841583252,-0.3875131607055664,-6.168187618255615
1745660744.3637488,-0.1938510686159134,0.1838015615940094,0.38184478878974915,0.8549678921699524,-0.3381924033164978,-7.091941833496094
1745660744.3665838,-0.0782017856836319,0.11949484050273895,0.3857576251029968,0.7768055200576782,-0.1976325809955597,-12.797002792358398
1745660744.4030488,-0.08904725313186646,0.23162761330604553,0.3703998923301697,0.935982346534729,1.7867450714111328,-11.717350959777832
1745660744.4051728,-0.09662706404924393,0.19163253903388977,0.36525169014930725,0.3385356366634369,-0.610377848148346,-7.93135929107666
1745660744.4071534,-0.12312205135822296,0.13492907583713531,0.3759428858757019,0.582726776599884,1.1218509674072266,-7.915980339050293
1745660744.4104433,-0.12201468646526337,0.160896897315979,0.3810155987739563,0.5316397547721863,-0.1544257551431656,-12.012903213500977
1745660744.443456,0.02905862405896187,0.21786871552467346,0.391301691532135,-0.050133656710386276,1.3287670612335205,-10.433650016784668
1745660744.4461012,-0.10253515094518661,0.19011233747005463,0.4001704752445221,0.3311719298362732,0.22398731112480164,-7.492833614349365
1745660744.4479778,0.039167944341897964,0.15254701673984528,0.40082746744155884,1.0808448791503906,0.9488420486450195,-8.530134201049805
1745660744.4493458,-0.017711829394102097,0.19325026869773865,0.3936052918434143,0.45178213715553284,1.340690016746521,-12.204750061035156
1745660744.4504313,0.04086831584572792,0.19713295996189117,0.38921481370925903,0.806351363658905,0.0926557406783104,-11.044990539550781
1745660744.486921,0.012877414003014565,0.1864805817604065,0.39197832345962524,0.780862033367157,0.23373091220855713,-7.570803165435791
1745660744.4905493,-0.040460504591464996,0.1688753068447113,0.39800047874450684,0.2753714621067047,-0.03071582317352295,-9.056014060974121
1745660744.4912043,-0.03747972846031189,0.1879112869501114,0.4017818570137024,0.8081604838371277,0.19049230217933655,-10.957602500915527
1745660744.4934704,-0.032391518354415894,0.21044643223285675,0.4039997458457947,0.6481280326843262,0.5328669548034668,-10.084704399108887
1745660744.5310476,-0.04185406118631363,0.18738064169883728,0.4006616473197937,0.9117766618728638,0.5524698495864868,-8.734044075012207
1745660744.5329537,-0.04715863615274429,0.1576301008462906,0.40049582719802856,0.7768911123275757,0.7041264772415161,-10.099472045898438
1745660744.5361767,0.02351273223757744,0.15697155892848969,0.41384997963905334,0.5939383506774902,0.22896066308021545,-8.900988578796387
1745660744.5396225,0.022300878539681435,0.16262157261371613,0.41990628838539124,0.8375975489616394,0.6169530153274536,-9.895423889160156
1745660744.573893,0.03456120565533638,0.16687020659446716,0.4168357253074646,0.5762450695037842,0.5422132611274719,-10.5612211227417
1745660744.5760581,0.033773332834243774,0.16631677746772766,0.41702359914779663,0.9425758123397827,0.29869869351387024,-9.613367080688477
1745660744.5771458,-0.0013782671885564923,0.13712581992149353,0.4148539900779724,1.222722053527832,0.39527714252471924,-9.561469078063965
1745660744.579502,0.017293689772486687,0.14036744832992554,0.41220682859420776,0.766473650932312,0.3577868938446045,-10.463831901550293
1745660744.6170273,-0.018826086074113846,0.14806772768497467,0.4134252667427063,0.799953818321228,0.2024722546339035,-10.117155075073242
1745660744.6190517,0.0015962288016453385,0.135989710688591,0.42039576172828674,0.8706392049789429,0.2291235476732254,-9.111196517944336
1745660744.6212864,-0.015186378732323647,0.12663938105106354,0.4245034158229828,0.860916256904602,0.5414817929267883,-9.555630683898926
1745660744.6239312,0.005979358218610287,0.12859070301055908,0.4273052215576172,0.6007602214813232,0.6788605451583862,-10.539087295532227
1745660744.6253278,0.04645448550581932,0.13591721653938293,0.4281081557273865,0.8458186984062195,0.9261369705200195,-9.797891616821289
1745660744.6614943,0.04531926289200783,0.12170503288507462,0.42405423521995544,0.7858061194419861,0.7865633964538574,-9.332972526550293
1745660744.662002,0.07389576733112335,0.11552891880273819,0.4250068664550781,0.7315998673439026,0.6048698425292969,-10.049882888793945
1745660744.665775,0.004111678339540958,-0.07746683061122894,0.46335920691490173,0.6442367434501648,0.22762659192085266,-10.037837028503418
1745660744.6675427,-0.00119896256364882,-0.08279819786548615,0.46115440130233765,0.93788081407547,0.126118466258049,-9.717056274414062
1745660744.70289,-0.014691896736621857,-0.07823777198791504,0.46148771047592163,0.781082808971405,0.20104315876960754,-9.601217269897461
1745660744.7050793,-0.03210488706827164,-0.08783313632011414,0.46208029985427856,0.950656533241272,-0.06734345853328705,-9.883333206176758
1745660744.7083356,-0.03276590630412102,-0.0973011702299118,0.45903000235557556,0.9442254900932312,0.30488961935043335,-9.988365173339844
1745660744.7125523,-0.050902582705020905,-0.08503694832324982,0.4592305123806,0.9332496523857117,0.01625741831958294,-9.916913986206055
1745660744.747194,-0.053125690668821335,-0.10210897028446198,0.46396273374557495,0.8376294374465942,0.1866898089647293,-9.68830680847168
1745660744.7494488,-0.056264668703079224,-0.10564406216144562,0.4657359719276428,0.7839828133583069,0.15972140431404114,-9.805891036987305
1745660744.7500455,-0.06423473358154297,-0.10215698182582855,0.468837171792984,0.8873862028121948,0.2074522078037262,-9.98760986328125
1745660744.7522666,-0.04825978726148605,-0.10489968210458755,0.46794790029525757,0.6255471110343933,0.44825562834739685,-9.868037223815918
1745660744.7883773,-0.05785847827792168,-0.11233516037464142,0.4679044783115387,0.8524568676948547,0.22527046501636505,-9.634623527526855
1745660744.7914147,-0.04367838054895401,-0.11706751585006714,0.46936339139938354,0.7575496435165405,0.5031492114067078,-9.83503532409668
1745660744.793918,-0.05873852223157883,-0.11068451404571533,0.46374082565307617,0.8061348795890808,0.21709570288658142,-10.075846672058105
1745660744.7956345,-0.05298296734690666,-0.12562863528728485,0.46662259101867676,0.8178430795669556,0.1699211597442627,-9.765411376953125
1745660744.7978086,-0.0642390251159668,-0.115952268242836,0.4656924307346344,0.7995554208755493,0.19276267290115356,-9.614635467529297
1745660744.832516,-0.08487929403781891,-0.1249869093298912,0.4682374596595764,0.8070005178451538,0.0633184090256691,-9.860261917114258
1745660744.8336349,-0.07217469811439514,-0.12475720793008804,0.4679228663444519,0.6489497423171997,0.27305570244789124,-9.905156135559082
1745660744.8369973,-0.0925145223736763,-0.12022075802087784,0.4702520966529846,0.9031913876533508,0.19764110445976257,-9.636825561523438
1745660744.840702,-0.08581546694040298,-0.12473680078983307,0.4699650704860687,0.6032763719558716,0.3708858788013458,-9.766491889953613
1745660744.879915,-0.08322498202323914,-0.12542685866355896,0.4682648181915283,0.6891698837280273,0.35731127858161926,-9.890003204345703
1745660744.8833246,-0.08760364353656769,-0.1298118680715561,0.46805042028427124,0.7309278249740601,0.364480584859848,-9.862274169921875
1745660744.8862581,-0.07976945489645004,-0.1191394180059433,0.4667878746986389,0.5496587753295898,0.33549919724464417,-9.708312034606934
1745660744.889408,-0.0977642834186554,-0.13034917414188385,0.46971097588539124,0.6967335939407349,0.18636269867420197,-9.66374683380127
1745660744.91766,-0.1010526567697525,-0.13115493953227997,0.4685184359550476,0.6235201954841614,0.3331944942474365,-9.866170883178711
1745660744.9187577,-0.11022760719060898,-0.1243494376540184,0.4694799482822418,0.7465578317642212,0.21818284690380096,-9.702417373657227
1745660744.9225037,-0.12168420851230621,-0.12820401787757874,0.4676371216773987,0.6951384544372559,0.2723380923271179,-9.756854057312012
1745660744.9254968,-0.11564941704273224,-0.12273452430963516,0.46832379698753357,0.5202818512916565,0.24554705619812012,-9.877376556396484
1745660744.9620712,-0.13185811042785645,-0.13124804198741913,0.4697749614715576,0.7285729646682739,0.3401322066783905,-9.68386459350586
1745660744.9643888,-0.11710105836391449,-0.12364965677261353,0.46931010484695435,0.5350682139396667,0.4497026801109314,-9.75427532196045
1745660744.9673176,-0.12952743470668793,-0.12013754993677139,0.4699341654777527,0.681941032409668,0.38538506627082825,-9.827189445495605
1745660744.9704983,-0.12519471347332,-0.128348246216774,0.4676840901374817,0.49541372060775757,0.3706546425819397,-9.818978309631348
1745660745.0032146,-0.11731064319610596,-0.12028186023235321,0.46741461753845215,0.7041926383972168,0.3967722952365875,-9.62315845489502
1745660745.005304,-0.1398678719997406,-0.12334661185741425,0.467498779296875,0.5930713415145874,0.37800902128219604,-9.830952644348145
1745660745.0100985,-0.1257908046245575,-0.1176098957657814,0.46894747018814087,0.5033037662506104,0.2924126982688904,-9.899391174316406
1745660745.0107942,-0.14095500111579895,-0.11907774209976196,0.4673627018928528,0.6882189512252808,0.379216730594635,-9.560221672058105
1745660745.013553,-0.1214156299829483,-0.024244729429483414,0.46874770522117615,0.3327547311782837,0.8856194615364075,-9.664159774780273
1745660745.0497918,-0.13840831816196442,-0.027597859501838684,0.4673447608947754,0.4824216961860657,0.6110578179359436,-9.757284164428711
1745660745.0515318,-0.1187090277671814,-0.027782222256064415,0.4673684239387512,0.4079349637031555,0.7820841073989868,-9.696009635925293
1745660745.0531325,-0.14018800854682922,-0.013989971950650215,0.46484050154685974,0.5117018818855286,0.6437684893608093,-9.68973159790039
1745660745.0554664,-0.13514085114002228,-0.02302977815270424,0.4677365720272064,0.37079596519470215,0.6900209188461304,-9.775779724121094
1745660745.089454,-0.12424562871456146,-0.01796518824994564,0.4669014513492584,0.4394921660423279,0.757079005241394,-9.632797241210938
1745660745.0929105,-0.13603360950946808,-0.011650599539279938,0.4687933325767517,0.5794302821159363,0.7667903900146484,-9.635189056396484
1745660745.0952525,-0.11916419118642807,-0.008617730811238289,0.469144344329834,0.3561358153820038,0.8256821632385254,-9.858845710754395
1745660745.0979624,-0.12363406270742416,-0.015248279087245464,0.4678589403629303,0.5695697069168091,0.8500585556030273,-9.731228828430176
1745660745.0992544,-0.1058206707239151,-0.009406357072293758,0.4681726098060608,0.3833429217338562,0.8947767019271851,-9.683614730834961
1745660745.1358557,-0.11407049000263214,8.575701940571889e-05,0.46907082200050354,0.43377169966697693,0.8256731033325195,-9.75568962097168
1745660745.1380892,-0.11519007384777069,-0.012209349311888218,0.4661027789115906,0.38963156938552856,0.6924394369125366,-9.751568794250488
1745660745.1415043,-0.09901697933673859,0.000907162029761821,0.4663098454475403,0.48847538232803345,0.8424674272537231,-9.576082229614258
1745660745.1440518,-0.127319797873497,-0.0028878548182547092,0.46628841757774353,0.5731185078620911,0.7123970985412598,-9.787588119506836
1745660745.1753597,-0.1026669293642044,-0.0033597885631024837,0.46779733896255493,0.468580424785614,0.8496463894844055,-9.916704177856445
1745660745.1787784,-0.1154298186302185,-0.0005788380512967706,0.46724599599838257,0.6354811191558838,0.8155555725097656,-9.703465461730957
1745660745.1831684,-0.10421355068683624,-0.00024638749891892076,0.4670547544956207,0.3805080056190491,0.8767436146736145,-9.656451225280762
1745660745.1871798,-0.09931683540344238,0.0030301674269139767,0.468964159488678,0.48372921347618103,0.7697837948799133,-9.687555313110352
1745660745.190456,-0.09798849374055862,-0.0049812076613307,0.46891602873802185,0.4255456328392029,0.9635090827941895,-9.725892066955566
1745660745.2204022,-0.0791802704334259,0.011602113023400307,0.4687424600124359,0.3978108763694763,0.9079910516738892,-9.681571960449219
1745660745.2235196,-0.0935017541050911,0.0031207993160933256,0.4674084186553955,0.4809090197086334,0.9632135629653931,-9.693757057189941
1745660745.22516,-0.07117214798927307,0.004128369502723217,0.4669828414916992,0.3810715675354004,0.8234390020370483,-9.816217422485352
1745660745.225549,-0.08222787082195282,0.008893918246030807,0.46426767110824585,0.6241599321365356,0.8456422090530396,-9.637057304382324
1745660745.2623975,-0.08556675910949707,0.007997160777449608,0.4649163782596588,0.35541439056396484,0.7704659700393677,-9.787632942199707
1745660745.2658842,-0.07927943766117096,0.007716606371104717,0.46553659439086914,0.6093364357948303,0.7049942016601562,-9.70305347442627
1745660745.2707849,-0.0967588722705841,0.005624465178698301,0.4652913510799408,0.5110702514648438,0.7799797654151917,-9.694429397583008
1745660745.2716668,-0.08377440273761749,0.017820535227656364,0.46606460213661194,0.4238247871398926,0.7973405718803406,-9.701698303222656
1745660745.3052313,-0.09040573239326477,0.006236924324184656,0.4668195843696594,0.5272151231765747,0.9228435754776001,-9.664437294006348
1745660745.3077834,-0.08351358026266098,0.011733399704098701,0.4652809202671051,0.45062342286109924,0.9383280873298645,-9.75549602508545
1745660745.3104517,-0.07126414775848389,0.01271154172718525,0.4631668031215668,0.590738832950592,0.999786376953125,-9.733294486999512
1745660745.3121393,-0.07657649368047714,0.010683149099349976,0.4628984332084656,0.300190269947052,1.0451158285140991,-9.813210487365723
1745660745.3135529,-0.05913681536912918,0.010175315663218498,0.462960422039032,0.5556419491767883,0.766061544418335,-9.678105354309082
1745660745.3477786,-0.06512100249528885,0.010335929691791534,0.4632815420627594,0.46978968381881714,1.0417712926864624,-9.587625503540039
1745660745.3500428,-0.0619652085006237,0.015201883390545845,0.46188801527023315,0.4386823773384094,0.6916953325271606,-9.75860595703125
1745660745.3500896,-0.05944027751684189,0.0047752647660672665,0.46335235238075256,0.6584355235099792,0.9917467832565308,-9.749441146850586
1745660745.3535383,-0.05864958092570305,0.014303025789558887,0.46146053075790405,0.4907606542110443,0.9104751348495483,-9.858051300048828
1745660745.3907413,0.00445505091920495,-0.01142072957009077,0.4382759630680084,0.5976718664169312,0.9085861444473267,-9.742047309875488
1745660745.394502,-0.015232567675411701,-0.010816439986228943,0.43570512533187866,0.5418095588684082,1.0345067977905273,-9.900671005249023
1745660745.3972318,-0.009648287668824196,-0.01040996890515089,0.43439483642578125,0.37002718448638916,0.7437151074409485,-9.804743766784668
1745660745.4013357,0.00037693354533985257,-0.015811439603567123,0.4335192143917084,0.6611985564231873,0.9348700642585754,-9.393316268920898
1745660745.4321954,-0.025777239352464676,-0.013067884370684624,0.43607673048973083,0.41368722915649414,0.959075927734375,-9.804719924926758
1745660745.436327,-0.004108585882931948,-0.016333995386958122,0.43227678537368774,0.6068108677864075,0.7170549035072327,-10.041625022888184
1745660745.436448,-0.01079452782869339,-0.019913161173462868,0.4313095510005951,0.5483047366142273,1.1272590160369873,-9.64234733581543
1745660745.4390767,-0.010587121360003948,-0.012286797165870667,0.43152517080307007,0.5390982031822205,0.8473010063171387,-9.600129127502441
1745660745.4435995,-0.004578836727887392,-0.023356840014457703,0.43156346678733826,0.5521421432495117,0.9285337328910828,-9.808794975280762
1745660745.4793327,-0.0037257536314427853,-0.0184465441852808,0.42912372946739197,0.4199148118495941,0.9617564082145691,-9.841216087341309
1745660745.481056,0.001393805956467986,-0.017557378858327866,0.4305540919303894,0.6071077585220337,0.8549202084541321,-9.617115020751953
1745660745.4839222,-0.00118256954010576,-0.017870735377073288,0.4285236895084381,0.3677104115486145,1.0848842859268188,-9.656606674194336
1745660745.487533,-0.0020256179850548506,-0.02339182421565056,0.4271017909049988,0.6294044256210327,0.7380409836769104,-9.813942909240723
1745660745.5201578,0.0066148666664958,-0.022345151752233505,0.4268313944339752,0.5198783874511719,1.1023145914077759,-9.772889137268066
1745660745.5219145,-0.0062669082544744015,-0.015993064269423485,0.42161130905151367,0.45644888281822205,0.8162131309509277,-9.83846378326416
1745660745.5280468,0.0036508250050246716,-0.03005482628941536,0.424166738986969,0.5992093682289124,0.9019762277603149,-9.649842262268066
1745660745.530644,-0.002611632691696286,-0.02291291393339634,0.42224544286727905,0.48269122838974,0.8422333002090454,-9.675007820129395
1745660745.5619662,-0.006214170716702938,-0.02166123315691948,0.42301663756370544,0.574114203453064,0.7957762479782104,-9.799609184265137
1745660745.5661006,0.00028834250406362116,-0.02399473451077938,0.42533937096595764,0.37487462162971497,0.9761309623718262,-9.813262939453125
1745660745.5689669,-0.000659764395095408,-0.026366835460066795,0.42109042406082153,0.6587254405021667,0.8222178220748901,-9.620718002319336
1745660745.5727065,0.005393578205257654,-0.026799503713846207,0.4215260446071625,0.4850812554359436,1.077226996421814,-9.712591171264648
1745660745.5769112,0.0026977350935339928,-0.024607103317975998,0.4184017777442932,0.43009305000305176,0.8936028480529785,-9.951440811157227
1745660745.6065123,0.003798771183937788,-0.033027805387973785,0.4196471571922302,0.5667773485183716,0.789899468421936,-9.747185707092285
1745660745.610515,-0.012191995978355408,-0.03232387825846672,0.4191300868988037,0.5057040452957153,0.6561713218688965,-9.802838325500488
1745660745.6117554,0.00726369908079505,-0.031490106135606766,0.4164182245731354,0.4687325358390808,0.9451586008071899,-9.857416152954102
1745660745.6139228,-0.007284858264029026,-0.023297974839806557,0.41805607080459595,0.6576331853866577,0.8432317972183228,-9.692018508911133
1745660745.648447,-0.006972278468310833,-0.03292682021856308,0.41552624106407166,0.37700071930885315,0.9467171430587769,-9.707191467285156
1745660745.6521964,0.009811549447476864,-0.03073819912970066,0.4152335524559021,0.5091012120246887,0.8667996525764465,-9.760139465332031
1745660745.6548035,-0.009814937599003315,-0.03187420219182968,0.4168611168861389,0.5629754066467285,0.8863908648490906,-9.750927925109863
1745660745.654957,0.006814423017203808,-0.026158977299928665,0.41447383165359497,0.40518102049827576,0.9122010469436646,-9.734792709350586
1745660745.691888,-0.004902942106127739,-0.03572188690304756,0.4136931300163269,0.506302535533905,0.9126585125923157,-9.75198745727539
1745660745.6949866,0.011078541167080402,-0.031953297555446625,0.4110303521156311,0.41698235273361206,0.9273174405097961,-9.801440238952637
1745660745.6972404,-0.0004810035170521587,-0.02777673304080963,0.41087502241134644,0.5793864130973816,0.90727299451828,-9.651914596557617
1745660745.698391,-0.001178839011117816,-0.03415374457836151,0.41027432680130005,0.3998524248600006,0.856548011302948,-9.757364273071289
1745660745.7020192,0.012634970247745514,-0.03306707739830017,0.4093037545681,0.6184509992599487,0.8460241556167603,-9.742420196533203
1745660745.7350054,-0.006463190075010061,-0.031151581555604935,0.4095095098018646,0.5064016580581665,0.8863190412521362,-9.81440544128418
1745660745.739769,0.0025637999642640352,-0.021496888250112534,0.3933735191822052,0.447394460439682,0.8106985092163086,-9.917505264282227
1745660745.7446835,-0.01152844913303852,-0.033011820167303085,0.39134758710861206,0.49930256605148315,0.7233429551124573,-9.713202476501465
1745660745.7448056,0.005768246483057737,-0.027471786364912987,0.3918464779853821,0.4719432294368744,0.8714560270309448,-9.526168823242188
1745660745.7816367,-0.021532149985432625,-0.0279863178730011,0.3916493356227875,0.519121527671814,0.7504646182060242,-9.856823921203613
1745660745.7869987,-0.0031642778776586056,-0.02885582484304905,0.392307847738266,0.3649703562259674,0.8439830541610718,-9.923014640808105
1745660745.7933993,-0.006286474410444498,-0.02597793936729431,0.39196401834487915,0.609284520149231,0.8484093546867371,-9.557869911193848
1745660745.7952266,-0.014880925416946411,-0.026946604251861572,0.3926721513271332,0.4002586305141449,0.9384471774101257,-9.688222885131836
1745660745.8211956,0.0020138442050665617,-0.024426603689789772,0.3926422595977783,0.47734197974205017,0.8176633715629578,-9.868596076965332
1745660745.8243117,-0.008646915666759014,-0.03378739953041077,0.39167729020118713,0.4893639087677002,0.9453786015510559,-9.741254806518555
1745660745.8280573,0.010514160618185997,-0.019026894122362137,0.39044737815856934,0.38379570841789246,0.9149268269538879,-9.658397674560547
1745660745.8305738,-0.0018738105427473783,-0.028299685567617416,0.39309149980545044,0.4921392798423767,0.8926874995231628,-9.742380142211914
1745660745.8344486,0.0066179679706692696,-0.0298253633081913,0.3896527886390686,0.3767879903316498,0.847194492816925,-9.8589506149292
1745660745.864742,0.014127342030405998,-0.025183215737342834,0.3888828754425049,0.6192342042922974,0.8786702156066895,-9.660512924194336
1745660745.8673196,-0.004939677659422159,-0.024829063564538956,0.3899584412574768,0.29614049196243286,0.9009100198745728,-9.77318000793457
1745660745.8685255,0.013779690489172935,-0.03077545203268528,0.38744208216667175,0.5567102432250977,0.6965048313140869,-9.731725692749023
1745660745.8724368,-0.0006916321581229568,-0.02926420047879219,0.3912387192249298,0.5060829520225525,0.8614425659179688,-9.673666000366211
1745660745.909083,0.006675951182842255,-0.016759440302848816,0.39154237508773804,0.3622545301914215,0.7660237550735474,-9.748822212219238
1745660745.9121218,0.0024257756303995848,-0.030120352283120155,0.3925541341304779,0.4948563575744629,0.7927730679512024,-9.71096134185791
1745660745.9136548,0.009332098998129368,-0.02691500261425972,0.3924406170845032,0.4381479322910309,0.9553396105766296,-9.698933601379395
1745660745.9155617,0.010191468521952629,-0.02361828088760376,0.3893818259239197,0.5542550086975098,0.859657883644104,-9.780896186828613
1745660745.9494429,0.004015961196273565,-0.026984360069036484,0.38962727785110474,0.25636208057403564,0.9670559167861938,-9.867269515991211
1745660745.9522228,0.019925933331251144,-0.02597338892519474,0.390953004360199,0.5380587577819824,0.6980752944946289,-9.62279987335205
1745660745.953678,0.0037115714512765408,-0.027116725221276283,0.3882370591163635,0.4656611382961273,0.9327332377433777,-9.561750411987305
1745660745.959311,0.005986277479678392,-0.02295524626970291,0.38880985975265503,0.3412010669708252,0.6833721995353699,-9.886678695678711
1745660745.9619277,0.00852736085653305,-0.03079165145754814,0.38878095149993896,0.6158190965652466,0.7973020076751709,-9.770782470703125
1745660745.9937427,0.007691794540733099,-0.02104896865785122,0.39042243361473083,0.40247827768325806,0.904809832572937,-9.678250312805176
1745660745.9967463,0.005622785072773695,-0.02084888517856598,0.39180272817611694,0.46057963371276855,0.7302343249320984,-9.668002128601074
1745660746.007304,0.011270887218415737,-0.02900446392595768,0.38985633850097656,0.34845444560050964,0.8786599040031433,-9.732939720153809
1745660746.0094821,0.010652083903551102,-0.021388184279203415,0.390869140625,0.5814478397369385,0.7489026188850403,-9.706674575805664
1745660746.040144,0.003711910918354988,-0.024803701788187027,0.3930467963218689,0.4122184216976166,0.8976434469223022,-9.778863906860352
1745660746.0407364,0.013424644246697426,-0.02097192034125328,0.3900551199913025,0.35057657957077026,0.8250729441642761,-9.747575759887695
1745660746.0419316,0.010905222035944462,-0.025302285328507423,0.3913334906101227,0.5326052308082581,0.7762159109115601,-9.649018287658691
1745660746.046432,0.007226849440485239,-0.018882816657423973,0.3890615999698639,0.37280526757240295,0.9761677980422974,-9.700803756713867
1745660746.049074,0.0036474906373769045,-0.02871532365679741,0.387875497341156,0.5283309817314148,0.5534387826919556,-9.828178405761719
1745660746.0816352,0.014597199857234955,-0.02583836019039154,0.3899489939212799,0.4110511243343353,0.9527117609977722,-9.689702033996582
1745660746.0853362,-0.004709781147539616,-0.01769651100039482,0.39173346757888794,0.5350443124771118,0.6535267233848572,-9.716238021850586
1745660746.0894523,0.013062233105301857,-0.026422804221510887,0.38674628734588623,0.3434644341468811,0.9716464281082153,-9.690016746520996
1745660746.092668,0.004732123576104641,-0.03402728587388992,0.38611048460006714,0.47019320726394653,0.5916112065315247,-9.819478034973145
1745660746.1219206,0.01890650950372219,-0.04086419194936752,0.3844035565853119,0.5182911157608032,0.9071676135063171,-9.785865783691406
1745660746.1239583,0.0021619691979140043,-0.028429443016648293,0.3808051645755768,0.3932589888572693,0.7986322045326233,-9.825467109680176
1745660746.1280375,0.007903710938990116,-0.037848640233278275,0.3813791573047638,0.44574737548828125,0.6625450253486633,-9.744608879089355
1745660746.1299663,0.00995903741568327,-0.04081510752439499,0.38123658299446106,0.28169775009155273,0.8758980631828308,-9.630233764648438
1745660746.1647584,0.005821692291647196,-0.03149772807955742,0.3807888329029083,0.4677622318267822,0.6287587881088257,-9.747763633728027
1745660746.167291,0.00896077323704958,-0.0351865217089653,0.3818550705909729,0.25583818554878235,0.8311588168144226,-9.871253967285156
1745660746.1700544,0.009277092292904854,-0.038322385400533676,0.38074925541877747,0.49183064699172974,0.7240306735038757,-9.705931663513184
1745660746.17191,0.013953854329884052,-0.04024006053805351,0.3786267638206482,0.4709707200527191,0.8433887362480164,-9.686702728271484
1745660746.175273,0.010659291408956051,-0.029977094382047653,0.380243182182312,0.3119249939918518,0.8478723764419556,-9.886957168579102
1745660746.209922,0.0034157969057559967,-0.042975425720214844,0.3780967593193054,0.4972344934940338,0.5317076444625854,-9.787179946899414
1745660746.2130945,0.014264052733778954,-0.035715412348508835,0.377815306186676,0.38048720359802246,0.9155607223510742,-9.545050621032715
1745660746.2171056,-0.016377702355384827,-0.03699316456913948,0.3783115744590759,0.4366384446620941,0.5308504700660706,-9.81917667388916
1745660746.2205455,0.008722818456590176,-0.043730758130550385,0.37608444690704346,0.3711704909801483,0.8591934442520142,-9.870818138122559
1745660746.2540743,0.0001310165971517563,-0.03078383579850197,0.3751339018344879,0.46940726041793823,0.8646831512451172,-9.710554122924805
1745660746.2542093,-0.005666646175086498,-0.04021450877189636,0.37629762291908264,0.3477672338485718,0.8138014674186707,-9.739725112915039
1745660746.258401,0.019272346049547195,-0.037309035658836365,0.3751763105392456,0.41543617844581604,0.8846465349197388,-9.689672470092773
1745660746.261916,0.004958800971508026,-0.03756994754076004,0.37549731135368347,0.46404725313186646,0.6910514831542969,-9.797386169433594
1745660746.2945597,0.013131457380950451,-0.03223700076341629,0.37421199679374695,0.2784445285797119,0.8909584283828735,-9.837172508239746
1745660746.2979124,0.009945547208189964,-0.04120402783155441,0.3760404586791992,0.49616971611976624,0.5832422971725464,-9.721391677856445
1745660746.3016405,0.026119614019989967,-0.03646969050168991,0.3739578127861023,0.363882839679718,0.9533066749572754,-9.727200508117676
1745660746.3051982,-0.0028087995015084743,-0.032600440084934235,0.3716084659099579,0.38249334692955017,0.7057988047599792,-9.914505004882812
1745660746.3080583,0.019205311313271523,-0.04662425071001053,0.3695746064186096,0.36086976528167725,0.6752492189407349,-9.721508026123047
1745660746.340368,0.012116659432649612,-0.031125973910093307,0.3677164912223816,0.35413122177124023,0.8945638537406921,-9.544262886047363
1745660746.3435738,-0.013780343346297741,-0.0411594919860363,0.36729755997657776,0.31846585869789124,0.4844237267971039,-9.93043327331543
1745660746.3436723,0.021542126312851906,-0.040269896388053894,0.36844179034233093,0.3161170184612274,0.7610760927200317,-9.783060073852539
1745660746.3482735,-0.007052130065858364,-0.03142789751291275,0.3686525225639343,0.42451372742652893,0.6147058010101318,-9.654706001281738
1745660746.3800883,0.004963555373251438,-0.03959687799215317,0.3693550229072571,0.2220516949892044,0.7787050604820251,-9.797550201416016
1745660746.3819902,0.006373872514814138,-0.03800017386674881,0.3686252534389496,0.46977800130844116,0.6727246046066284,-9.783297538757324
1745660746.3834786,0.0089515196159482,-0.03828591853380203,0.367656409740448,0.34659668803215027,0.8360482454299927,-9.772130966186523
1745660746.3865306,-0.0004521995724644512,-0.03132721409201622,0.3643345832824707,0.2638777792453766,0.8201085925102234,-9.816040992736816
1745660746.3889885,0.0016141652595251799,-0.0439305379986763,0.3650882840156555,0.3832445740699768,0.4577693045139313,-9.742210388183594
1745660746.425936,0.007519543170928955,-0.030697256326675415,0.36484095454216003,0.3372133672237396,1.0832743644714355,-9.601752281188965
1745660746.4298222,-0.023799128830432892,-0.03931433707475662,0.3621636927127838,0.4166199564933777,0.439403235912323,-9.998732566833496
1745660746.4319472,0.020473532378673553,-0.037854909896850586,0.36139747500419617,0.29974061250686646,0.9665793180465698,-9.807260513305664
1745660746.4359343,-0.008067898452281952,-0.01758727617561817,0.3252405524253845,0.07082635909318924,0.7896527051925659,-9.869627952575684
1745660746.4698532,-0.0026280912570655346,-0.030158424749970436,0.32198673486709595,0.36439964175224304,0.5066884756088257,-9.30441665649414
1745660746.472483,-0.0048334612511098385,-0.038541026413440704,0.31992751359939575,0.2014259397983551,0.9335581064224243,-9.625059127807617
1745660746.4779947,-0.0010553586762398481,-0.024838309735059738,0.31788140535354614,0.23247520625591278,0.667955756187439,-10.352487564086914
1745660746.4810705,-0.006429713219404221,-0.02831401862204075,0.31550687551498413,0.15938414633274078,0.8476024866104126,-9.772090911865234
1745660746.5131135,0.021347053349018097,-0.019784722477197647,0.31523779034614563,0.2804092764854431,0.7511180639266968,-9.143423080444336
1745660746.5131595,0.004713753238320351,-0.03582422062754631,0.31332799792289734,0.40191107988357544,0.9284518361091614,-9.748857498168945
1745660746.5188425,0.015621754340827465,-0.03328873589634895,0.3122013211250305,0.20879867672920227,0.673703670501709,-10.5404691696167
1745660746.5201225,0.04893725737929344,-0.02199672721326351,0.312511682510376,0.3747866451740265,0.8298271894454956,-9.647802352905273
1745660746.5544007,0.01249062642455101,-0.021423939615488052,0.31075912714004517,0.024002503603696823,0.7831424474716187,-9.198293685913086
1745660746.5544837,0.045384544879198074,-0.039747707545757294,0.31283098459243774,0.36448392271995544,0.44989100098609924,-9.663551330566406
1745660746.556368,0.027602544054389,-0.02929036319255829,0.30790144205093384,0.3047751784324646,0.838461697101593,-10.291479110717773
1745660746.5575168,0.029926905408501625,-0.01807035133242607,0.30359983444213867,0.03738892823457718,0.6636213064193726,-10.070695877075195
1745660746.5583558,0.028664126992225647,-0.0325009822845459,0.2988988757133484,0.14071695506572723,0.6545537114143372,-9.164824485778809
1745660746.6000059,0.02974703349173069,-0.03280555084347725,0.2945423722267151,0.10205958783626556,0.6682416200637817,-9.494501113891602
1745660746.603371,0.005775862839072943,-0.03229736164212227,0.29315704107284546,0.21482428908348083,0.45397788286209106,-10.352258682250977
1745660746.6077027,0.02367483079433441,-0.02517474628984928,0.29021522402763367,-0.007157580461353064,0.4275236129760742,-10.034008979797363
1745660746.6093898,0.02115580253303051,-0.019172562286257744,0.29334473609924316,0.16567742824554443,0.5975978970527649,-9.07015609741211
1745660746.6373148,-0.006557042244821787,-0.0401252880692482,0.29141172766685486,0.030900513753294945,0.4567483365535736,-9.61545467376709
1745660746.6390655,0.028771668672561646,-0.02964574098587036,0.2919791340827942,0.3308497965335846,0.6101094484329224,-10.220735549926758
1745660746.6414642,0.006506106350570917,-0.02304769679903984,0.2870181202888489,0.21311187744140625,0.8131924867630005,-10.103960037231445
1745660746.6437871,0.013754318468272686,-0.030078774318099022,0.28140223026275635,-0.01020658016204834,0.7554356455802917,-9.480694770812988
1745660746.6455667,0.023150376975536346,-0.03665640205144882,0.28180328011512756,0.32044729590415955,0.5498263239860535,-9.348119735717773
1745660746.684428,0.04187063127756119,-0.033416081219911575,0.2735014259815216,0.2202136069536209,0.9589908719062805,-9.410547256469727
1745660746.687844,0.020708376541733742,-0.023935580626130104,0.2717408537864685,0.20226149260997772,0.8036014437675476,-9.561635971069336
1745660746.6905143,0.03715303912758827,-0.04209866374731064,0.26883265376091003,0.21125009655952454,0.6501838564872742,-10.094406127929688
1745660746.6960082,0.05745353177189827,-0.026877766475081444,0.26878461241722107,0.1721709817647934,0.8326011896133423,-9.94726848602295
1745660746.7231495,0.04456760734319687,-0.026807790622115135,0.2667407989501953,0.13833825290203094,0.575116753578186,-9.58660888671875
1745660746.7258527,0.04845377057790756,-0.030588423833251,0.2665107548236847,-0.05271182209253311,0.6254270672798157,-9.502283096313477
1745660746.731124,0.05791535973548889,-0.0330442376434803,0.26281505823135376,0.3737829327583313,0.5061580538749695,-9.783350944519043
1745660746.7331176,0.030188772827386856,-0.031120162457227707,0.2608402371406555,0.10003737360239029,0.6855095028877258,-10.144295692443848
1745660746.770429,0.05546494200825691,-0.01978754810988903,0.2567910850048065,0.2379133403301239,0.47144633531570435,-9.712090492248535
1745660746.774164,0.038136210292577744,-0.03479029983282089,0.2536441385746002,0.15052062273025513,0.6891714930534363,-9.370805740356445
1745660746.7756865,0.03361162543296814,-0.02667578123509884,0.2534574568271637,0.18035276234149933,0.43589791655540466,-9.81470775604248
1745660746.7757373,0.046344734728336334,-0.03193584829568863,0.25671714544296265,0.23041920363903046,0.46551671624183655,-10.042642593383789
1745660746.8108003,0.03946036100387573,-0.014324260875582695,0.2517506778240204,-0.21341820061206818,0.8228530883789062,-9.74659538269043
1745660746.813808,0.05559462308883667,-0.009155957028269768,0.1862887442111969,0.15472611784934998,0.22829604148864746,-10.217329978942871
1745660746.8158858,0.0963783711194992,0.0026627660263329744,0.18589895963668823,0.07093256711959839,0.6890395283699036,-9.994780540466309
1745660746.8159463,0.0655379667878151,-0.010200867429375648,0.17890948057174683,0.32130542397499084,0.5167727470397949,-9.390713691711426
1745660746.8185682,0.09808085113763809,-0.005345228593796492,0.17631694674491882,0.059399597346782684,0.5697156190872192,-9.687925338745117
1745660746.8555367,0.0794866532087326,-0.003247577231377363,0.17306551337242126,0.2538854777812958,0.4799697995185852,-10.043181419372559
1745660746.8584244,0.08897826820611954,-0.0035300329327583313,0.17098355293273926,-0.005673873238265514,0.2708410620689392,-9.903146743774414
1745660746.8625674,0.08614771068096161,0.004708583932369947,0.17111213505268097,0.24342310428619385,0.34006166458129883,-9.320444107055664
1745660746.8655238,0.07412838190793991,-0.00857800804078579,0.17384828627109528,0.15592727065086365,0.21245744824409485,-9.676972389221191
1745660746.896349,0.0899394229054451,0.002486669924110174,0.1702995002269745,0.2072550505399704,0.5151469707489014,-10.083002090454102
1745660746.9009037,0.07088855654001236,-1.935576983669307e-05,0.16839614510536194,0.2570435404777527,0.2620851397514343,-9.951986312866211
1745660746.9046564,0.08796742558479309,0.003590261097997427,0.164224311709404,0.11387541145086288,0.6697466969490051,-9.479666709899902
1745660746.9072158,0.07455442100763321,-0.0036331363953649998,0.16109225153923035,0.25351959466934204,0.2562962472438812,-9.678753852844238
1745660746.910081,0.08399082720279694,-0.0038794241845607758,0.15893185138702393,0.03155336156487465,0.5153855681419373,-9.9647216796875
1745660746.942434,0.08356480300426483,0.008474024012684822,0.15880116820335388,0.2639569938182831,0.2994028925895691,-9.767748832702637
1745660746.9471855,0.07883515954017639,0.00039633322739973664,0.1573205143213272,0.12022978067398071,0.46882930397987366,-9.587512969970703
1745660746.9509299,0.09212477505207062,0.0017655948176980019,0.15509989857673645,0.19209544360637665,0.46905213594436646,-9.730852127075195
1745660746.952007,0.08653375506401062,-0.00039031595224514604,0.15310537815093994,0.3478573262691498,0.4048213064670563,-9.930228233337402
1745660746.9821215,0.09890683740377426,0.0059785982593894005,0.15144579112529755,0.08941823989152908,0.5118010640144348,-9.884824752807617
1745660746.9876945,0.09227157384157181,-0.000870805699378252,0.14868344366550446,0.26887255907058716,0.25385481119155884,-9.582252502441406
1745660746.9899383,0.1001288890838623,0.005018825177103281,0.1450233906507492,0.30384665727615356,0.5654803514480591,-9.633857727050781
1745660746.9951704,0.0831902027130127,0.005042177625000477,0.13786372542381287,0.7061535716056824,0.48953327536582947,-9.889139175415039
1745660746.9986475,0.10809099674224854,-0.002006386173889041,0.12719443440437317,0.12855878472328186,0.6984321475028992,-10.24333381652832
1745660747.0279872,0.1264374554157257,0.02853216603398323,0.10999158769845963,1.0229523181915283,1.0232802629470825,-9.032038688659668
1745660747.0291946,0.1672547310590744,0.026351982727646828,0.09476260095834732,0.5015007853507996,-0.34154266119003296,-9.926190376281738
1745660747.0365102,0.13953635096549988,0.041552212089300156,0.09384939819574356,0.04166542366147041,0.24880683422088623,-8.964559555053711
1745660747.0365555,0.13109436631202698,0.012503440491855145,0.08751292526721954,0.4346546530723572,-0.34980812668800354,-9.393207550048828
1745660747.072574,0.12897400557994843,0.020792154595255852,0.07305380702018738,0.48263829946517944,0.9352730512619019,-10.291583061218262
1745660747.0726278,0.10961564630270004,0.057258863002061844,0.05417104810476303,0.35170578956604004,0.10801021754741669,-10.47636604309082
1745660747.0763597,0.12521235644817352,0.028767764568328857,0.04152141883969307,0.6335791349411011,0.3963887691497803,-8.985816955566406
1745660747.0795584,0.06023088097572327,0.02394849807024002,0.034566719084978104,0.7159654498100281,-0.29862356185913086,-9.448373794555664
1745660747.112743,0.09549905359745026,0.025991853326559067,0.038046807050704956,0.6652734279632568,-0.18893451988697052,-10.6084566116333
1745660747.114148,0.05975993350148201,0.05195437744259834,0.03890319913625717,0.14399969577789307,0.2667989730834961,-10.16448974609375
1745660747.115893,0.11214978992938995,0.0433780774474144,0.03925874084234238,0.749866783618927,0.383224755525589,-8.729001998901367
1745660747.1170635,0.10582516342401505,0.02288300171494484,0.028972845524549484,0.5116397142410278,1.2368240356445312,-9.405488967895508
1745660747.156112,0.16069354116916656,0.03613606095314026,0.013749921694397926,0.3046039938926697,0.9158042073249817,-11.080793380737305
1745660747.1588385,0.20172536373138428,0.04411189630627632,0.0020419065840542316,0.3738129734992981,1.1341661214828491,-9.922630310058594
1745660747.1616518,0.16272921860218048,-0.0029515186324715614,-0.06259895116090775,0.08833934366703033,0.5511285662651062,-10.033772468566895
1745660747.1620276,0.16418729722499847,-0.003829930443316698,-0.06976847350597382,-0.1506035029888153,0.2045074999332428,-9.290242195129395
1745660747.1645494,0.1701851487159729,-0.01674429513514042,-0.07443589717149734,0.14639882743358612,-0.24672441184520721,-9.347699165344238
1745660747.1991956,0.12224491685628891,-0.019576674327254295,-0.07123818248510361,0.1301235854625702,-0.5678218603134155,-10.293802261352539
1745660747.201005,0.12236757576465607,-0.001912187784910202,-0.06744827330112457,0.30670657753944397,-0.8410857915878296,-10.148845672607422
1745660747.2031186,0.07464924454689026,-0.01609962247312069,-0.05999991297721863,0.5036126971244812,-0.6918209195137024,-9.113809585571289
1745660747.2051046,0.06210992485284805,-0.027116870507597923,-0.0565636046230793,0.3767860531806946,-0.6464816331863403,-9.369654655456543
1745660747.241884,0.046440064907073975,-0.020300963893532753,-0.05347117781639099,0.4094800055027008,-0.19624561071395874,-10.246011734008789
1745660747.243986,0.060924697667360306,-0.020316680893301964,-0.05262497812509537,-0.03164666146039963,0.007926112040877342,-10.301813125610352
1745660747.2450767,0.08614345639944077,-0.021950097754597664,-0.05649564415216446,0.11980138719081879,0.34725385904312134,-9.200468063354492
1745660747.2469077,0.07993865013122559,-0.04034657031297684,-0.06600244343280792,-0.42887982726097107,0.361895889043808,-9.600457191467285
1745660747.2495916,0.1001952663064003,-0.02558053657412529,-0.07058288156986237,-0.309471994638443,-0.08703789860010147,-9.821142196655273
1745660747.2866518,0.1084069237112999,-0.013217458501458168,-0.06543947756290436,0.19576144218444824,-0.2553708553314209,-9.559934616088867
1745660747.2890816,0.08907070010900497,-0.022197995334863663,-0.05531727150082588,0.42188334465026855,-0.432719886302948,-9.62316608428955
1745660747.2902305,0.0971301719546318,-0.04025962948799133,-0.049062229692935944,0.7269465923309326,-0.8160587549209595,-10.1490478515625
1745660747.293224,0.07550327479839325,-0.020224913954734802,-0.0440090075135231,0.6312720775604248,-0.2093384712934494,-10.00454330444336
1745660747.3254554,0.05631650611758232,-0.025208894163370132,-0.041048258543014526,0.6329896450042725,-0.6198670268058777,-9.806108474731445
1745660747.3299184,0.05847657844424248,-0.06226348876953125,-0.0444938950240612,0.5771299600601196,0.256986528635025,-9.624938011169434
1745660747.333602,0.04051772505044937,-0.037378326058387756,-0.04926907271146774,-0.027878668159246445,-0.3012712001800537,-10.294210433959961
1745660747.3347547,0.05852266401052475,-0.02593916654586792,-0.05299624800682068,-0.1688646376132965,0.32568925619125366,-9.54893684387207
1745660747.3369148,0.04570968076586723,-0.03890487924218178,-0.060429297387599945,0.11539176851511002,0.24073652923107147,-9.13038444519043
1745660747.3709645,0.08719717711210251,-0.05501869320869446,-0.06146957725286484,0.8970893621444702,0.27276384830474854,-9.898364067077637
1745660747.37405,0.1009133830666542,-0.029013056308031082,-0.06691913306713104,0.12479474395513535,0.3022233843803406,-10.903060913085938
1745660747.3751743,0.1420547366142273,-0.04182388633489609,-0.0564647912979126,0.633898913860321,-1.0842397212982178,-10.587321281433105
1745660747.3789487,0.13325639069080353,-0.028169667348265648,-0.0561489462852478,0.30472302436828613,-0.3236556053161621,-10.60796070098877
1745660747.4144797,0.09743115305900574,-0.013420438393950462,-0.06142205744981766,-0.05227825790643692,-0.618736982345581,-9.02983283996582
1745660747.4164903,0.09010682255029678,-0.02112790197134018,-0.07181156426668167,0.5108351707458496,-0.48947152495384216,-8.626996040344238
1745660747.4175544,0.03414815664291382,-0.03728419542312622,-0.08555286377668381,0.3574150800704956,0.027803659439086914,-10.373968124389648
1745660747.4193673,0.03946220874786377,-0.014040025882422924,-0.09362977743148804,0.4962681829929352,-0.8311769366264343,-10.99510669708252
1745660747.4569628,0.02816193737089634,-0.003375691594555974,-0.09711678326129913,0.39440855383872986,-0.3437473475933075,-9.191227912902832
1745660747.4607596,-0.003396035637706518,-0.02621314488351345,-0.089080311357975,0.6030038595199585,-0.8823874592781067,-8.94719409942627
1745660747.4642506,0.03479235619306564,-0.03323642164468765,-0.0767064020037651,0.7622643113136292,-0.3271464705467224,-10.423237800598145
1745660747.468302,0.029155965894460678,-0.005890051368623972,-0.07479631900787354,0.18244948983192444,0.14054912328720093,-10.969943046569824
1745660747.4991367,0.08544626086950302,-0.010315963067114353,-0.07742798328399658,0.5013591051101685,0.16443802416324615,-9.243574142456055
1745660747.5030806,0.10419788211584091,-0.02877103164792061,-0.08663851022720337,0.2948559820652008,0.7978548407554626,-8.814668655395508
1745660747.5067513,0.11490615457296371,-0.026890769600868225,-0.09704513847827911,0.3060586750507355,0.09477199614048004,-10.559597969055176
1745660747.51099,0.06836555898189545,0.004231455735862255,-0.147320955991745,0.5026966333389282,-0.2153107225894928,-10.011576652526855
1745660747.543182,0.10339270532131195,0.010349060408771038,-0.14762844145298004,0.3997173309326172,-0.3119359314441681,-9.720781326293945
1745660747.5477083,0.09565532952547073,0.006474967114627361,-0.14625753462314606,0.1833881139755249,-0.5221570730209351,-9.514668464660645
1745660747.5478094,0.07748241722583771,0.001966979820281267,-0.14199917018413544,-0.30047696828842163,-0.826047420501709,-9.856050491333008
1745660747.5478563,0.07972946017980576,0.02412119321525097,-0.12490268796682358,0.560088038444519,-1.3064353466033936,-9.354880332946777
1745660747.5479062,0.012441635131835938,-0.020751696079969406,-0.10959329456090927,-0.055933065712451935,-0.8222579956054688,-10.275468826293945
1745660747.5955794,0.0061093708500266075,-0.0016383547335863113,-0.11780019104480743,0.08240225911140442,-0.6909245848655701,-10.090287208557129
1745660747.5982895,-0.013908120803534985,0.0023744332138448954,-0.1298338919878006,0.13789425790309906,-0.02908780239522457,-9.445184707641602
1745660747.6017962,-0.05134814232587814,-0.014853445813059807,-0.1375064104795456,0.018199753016233444,-0.3636425733566284,-9.511542320251465
1745660747.6054418,-0.014251725748181343,-0.036829642951488495,-0.12827494740486145,0.4413205683231354,-0.4679487645626068,-10.269444465637207
1745660747.62899,-0.039078377187252045,-0.010637680068612099,-0.11109621822834015,-0.16113780438899994,-0.6920889019966125,-10.217142105102539
1745660747.6302137,0.013988116756081581,0.01901630498468876,-0.08878517150878906,-0.17588087916374207,-1.1918493509292603,-8.963621139526367
1745660747.631397,-0.029726454988121986,-0.024739433079957962,-0.07265742868185043,0.7026644945144653,-0.16846880316734314,-8.306324005126953
1745660747.6353343,0.028704490512609482,-0.030360078439116478,-0.0708882212638855,0.7337840795516968,0.14405004680156708,-11.051959037780762
1745660747.6370203,0.05139150470495224,-0.014868536964058876,-0.08299635350704193,0.18946880102157593,0.5924195051193237,-11.405390739440918
1745660747.6815455,0.03851297125220299,-0.005891862325370312,-0.08845995366573334,-0.3781870901584625,-0.4153214395046234,-8.75468921661377
1745660747.687183,0.0266565028578043,-0.02768460474908352,-0.08822885900735855,0.1701858788728714,-0.6358049511909485,-7.63883113861084
1745660747.689536,-0.04291985183954239,-0.029585465788841248,-0.07653504610061646,0.26766571402549744,-1.3042792081832886,-10.617218971252441
1745660747.694595,-0.013980063609778881,0.00919260922819376,-0.06417738646268845,0.4932980537414551,-1.0779775381088257,-11.295313835144043
1745660747.714562,-0.08857303857803345,0.006457002367824316,-0.04958978667855263,0.830732524394989,-0.9809001684188843,-8.634710311889648
1745660747.7152479,-0.07105232030153275,-0.025107819586992264,-0.037460580468177795,0.8653115034103394,-0.6294691562652588,-8.455047607421875
1745660747.7178545,-0.09519097208976746,-0.03179541230201721,-0.027343830093741417,1.1570329666137695,-0.39259493350982666,-11.041311264038086
1745660747.7188091,-0.04619435593485832,-0.0028249055612832308,-0.024303650483489037,0.4035836160182953,-0.02032211422920227,-11.519745826721191
1745660747.722101,0.002232203260064125,-0.002282355446368456,-0.014973467215895653,0.2898786664009094,0.030651545152068138,-11.222679138183594
1745660747.7600992,0.01628899946808815,0.00206542294472456,-0.014271113090217113,0.4146752953529358,-0.12208092212677002,-8.91676139831543
1745660747.763065,-0.002187772188335657,-0.02317284792661667,-0.005959812086075544,0.7477272152900696,-0.6861944794654846,-8.667699813842773
1745660747.766886,-0.00584277231246233,-0.02496297098696232,0.0031406902708113194,0.603559136390686,-0.8047286868095398,-10.759294509887695
1745660747.7681608,-0.02411814033985138,-0.0010878853499889374,0.016985248774290085,0.6864694356918335,-1.2336714267730713,-10.86880111694336
1745660747.8009918,-0.04405161365866661,-0.004007535520941019,0.03105301223695278,0.2803111672401428,-0.8238528966903687,-8.850370407104492
1745660747.803329,-0.07272274792194366,-0.015345267951488495,0.038379568606615067,0.09451642632484436,-0.8220116496086121,-8.604499816894531
1745660747.8060133,-0.10514648258686066,-0.017223108559846878,0.03528568893671036,0.2108028680086136,-0.40638333559036255,-10.18231201171875
1745660747.8085523,-0.07796578109264374,0.01274830661714077,0.03596234694123268,0.25953707098960876,-0.271799772977829,-10.643037796020508
1745660747.8461316,-0.09346440434455872,-0.005065942648798227,0.02706781029701233,0.43662405014038086,0.32924026250839233,-9.44674301147461
1745660747.8472505,-0.09511323273181915,-0.04148108512163162,0.015944290906190872,-0.15377894043922424,-0.12106432020664215,-9.600976943969727
1745660747.8473263,-0.06205011531710625,-0.0005900330725125968,0.01419065147638321,-0.05538611486554146,-0.1893642544746399,-9.81803035736084
1745660747.85077,-0.061677951365709305,-0.009926200844347477,0.017212601378560066,-0.1774333417415619,-0.11671067774295807,-9.819135665893555
1745660747.8884513,-0.10379216820001602,-0.030064508318901062,0.005665787495672703,0.1743033230304718,-0.0326235294342041,-9.953279495239258
1745660747.8927555,-0.10227568447589874,-0.03506328910589218,0.0073194848373532295,0.3605378568172455,-0.2219879925251007,-10.24084758758545
1745660747.893887,-0.07500527799129486,-0.018277496099472046,0.008702605962753296,-0.30730536580085754,0.3428478538990021,-9.877147674560547
1745660747.8974102,-0.06097681447863579,-0.018874777480959892,0.01165546104311943,0.15323761105537415,-0.1564915031194687,-9.099638938903809
1745660747.9011087,-0.04369150474667549,-0.02584221586585045,0.011875266209244728,0.2784615457057953,0.07700235396623611,-9.648914337158203
1745660747.9314015,-0.046253789216279984,-0.019035715609788895,0.00917026586830616,0.21856267750263214,-0.04261548072099686,-10.584242820739746
1745660747.9314644,-0.024853788316249847,-0.012312582693994045,0.004395089112222195,0.3164074420928955,-0.011660480871796608,-9.976985931396484
1745660747.9335036,-0.053200818598270416,-0.005036946386098862,0.0009998746681958437,0.12202902883291245,-0.08235974609851837,-9.094903945922852
1745660747.9363203,-0.05945248529314995,-0.016537096351385117,-0.0009774209465831518,0.6333698630332947,-0.6606667637825012,-9.449491500854492
1745660747.9736588,-0.09318236261606216,-0.01681015081703663,-0.007476113736629486,0.34352484345436096,-0.04613419622182846,-10.416420936584473
1745660747.9780114,-0.09360109269618988,0.004171489737927914,-0.006783342454582453,0.3328114151954651,-0.5087202787399292,-10.325881004333496
1745660747.9821792,-0.08903856575489044,-0.004553787410259247,-0.01049213856458664,0.2809349000453949,0.1805705726146698,-9.06653118133545
1745660747.9851115,-0.10515101253986359,-0.008807331323623657,-0.010036755353212357,0.34250974655151367,-0.08227374404668808,-9.42762565612793
1745660747.9875305,-0.0660109743475914,-0.013852797448635101,-0.011055300012230873,0.3614404797554016,0.2981469929218292,-10.536274909973145
1745660748.0190723,-0.059543974697589874,0.007686696946620941,-0.014046658761799335,-0.09229020029306412,0.3562432825565338,-10.362314224243164
1745660748.0201347,-0.016029460355639458,0.00794979091733694,-0.014628763310611248,0.21571560204029083,0.09367664903402328,-8.982292175292969
1745660748.0223076,-0.028780747205018997,-0.009807365946471691,-0.015732262283563614,0.14140620827674866,0.2452063113451004,-9.154889106750488
1745660748.0235498,-0.00325791840441525,0.0001838470489019528,-0.014903074130415916,0.34902745485305786,-0.1901056468486786,-10.568140983581543
1745660748.060144,-0.019043859094381332,0.010962658561766148,-0.02164406329393387,0.28262859582901,0.038997162133455276,-10.419660568237305
1745660748.0619185,-0.029420748353004456,0.02061641961336136,-0.0247650146484375,0.3620913028717041,-0.3395135998725891,-9.173757553100586
1745660748.0645704,-0.049194253981113434,-0.005534404888749123,-0.026749655604362488,0.6812166571617126,-0.22577743232250214,-9.17798900604248
1745660748.0692148,-0.06663437932729721,0.005757513921707869,-0.034619975835084915,0.31535401940345764,-0.06754769384860992,-10.609649658203125
1745660748.1048396,0.013701151125133038,0.04923352226614952,-0.05716140195727348,0.42878589034080505,0.2271411418914795,-10.091886520385742
1745660748.1053367,0.033752407878637314,0.036889221519231796,-0.05992887169122696,0.6514078974723816,0.2569160461425781,-8.987202644348145
1745660748.1098073,0.027245718985795975,0.030960161238908768,-0.0678045004606247,0.4185735285282135,0.14137227833271027,-9.531359672546387
1745660748.1112812,0.051727544516325,0.04134504124522209,-0.07275616377592087,0.6657778024673462,-0.15741893649101257,-10.441827774047852
1745660748.1463068,0.025163471698760986,0.05743022635579109,-0.0796562135219574,0.4117046296596527,-0.05328373983502388,-9.951009750366211
1745660748.1487348,0.024882489815354347,0.05137220770120621,-0.08368029445409775,0.7749776244163513,-0.4154497981071472,-9.154029846191406
1745660748.152308,-0.0037572644650936127,0.04005337506532669,-0.0927986353635788,0.6055863499641418,0.11926424503326416,-9.586262702941895
1745660748.1550727,0.00013292096264194697,0.0570332296192646,-0.09797810018062592,0.46823254227638245,-0.21950998902320862,-10.512882232666016
1745660748.1562848,0.009882396087050438,0.06074456498026848,-0.10220526158809662,0.7247503995895386,0.16254974901676178,-9.651787757873535
1745660748.1897554,0.0013578645884990692,0.056837938725948334,-0.1062651127576828,0.43916788697242737,0.03173140436410904,-9.25965690612793
1745660748.1899157,0.03920678421854973,0.04932693764567375,-0.10875354707241058,0.5453674793243408,0.18128849565982819,-9.810585975646973
1745660748.1929948,0.03809969499707222,0.0650135725736618,-0.11005441844463348,0.32481470704078674,0.3971479535102844,-10.283097267150879
1745660748.195005,0.07770080864429474,0.07115469127893448,-0.11358634382486343,0.5341024994850159,-0.03277108818292618,-9.661882400512695
1745660748.2313879,0.07920104265213013,0.056192148476839066,-0.11448641121387482,0.4990564286708832,0.30462387204170227,-9.234415054321289
1745660748.2342577,0.10984797775745392,0.03348914533853531,-0.2156974822282791,0.46013039350509644,-0.16160671412944794,-9.855610847473145
1745660748.237929,0.1179237812757492,0.02896798588335514,-0.21823923289775848,0.6988139152526855,-0.09390438348054886,-9.463050842285156
1745660748.241286,0.104462169110775,0.020683644339442253,-0.22218212485313416,0.6022850871086121,-0.19317172467708588,-9.612229347229004
1745660748.2424107,0.119596466422081,0.02766912616789341,-0.2237156331539154,0.7253949046134949,-0.4842124879360199,-9.938949584960938
1745660748.2800543,0.10071486234664917,0.015401149168610573,-0.2245115339756012,0.6279087662696838,-0.2923942506313324,-9.853774070739746
1745660748.2826414,0.1012459397315979,0.021591706201434135,-0.226880744099617,0.6939317584037781,-0.6274949312210083,-9.675199508666992
1745660748.2855904,0.08376426994800568,0.011495688930153847,-0.22661113739013672,0.7229196429252625,-0.3416394293308258,-9.596968650817871
1745660748.2873328,0.08882320672273636,0.011134497821331024,-0.22986659407615662,0.5817954540252686,-0.3702611029148102,-9.753725051879883
1745660748.316771,0.06944368779659271,0.009589370340108871,-0.23329821228981018,0.6871509552001953,-0.3198866546154022,-9.747511863708496
1745660748.3203137,0.08420024067163467,0.010066931135952473,-0.2349463701248169,0.42993107438087463,-0.23350946605205536,-9.710156440734863
1745660748.3235111,0.09040158987045288,0.007747648749500513,-0.23786142468452454,0.6114087104797363,-0.1856040060520172,-9.597840309143066
1745660748.3259451,0.08475042134523392,0.0034187198616564274,-0.23798242211341858,0.49676671624183655,-0.19723230600357056,-9.811810493469238
1745660748.360426,0.11506015062332153,0.009960104711353779,-0.23900718986988068,0.5468904376029968,-0.34139397740364075,-9.869942665100098
1745660748.362348,0.10394039005041122,-0.0041281492449343204,-0.23898737132549286,0.6190942525863647,-0.22357292473316193,-9.604016304016113
1745660748.3646286,0.11324822902679443,0.001354354782961309,-0.2376183718442917,0.45790672302246094,-0.4475580155849457,-9.666178703308105
1745660748.3646786,0.1067928671836853,-0.0010340169537812471,-0.2400890588760376,0.6712509393692017,-0.30344852805137634,-9.682682991027832
1745660748.367062,0.09591794013977051,-0.006676015444099903,-0.24061059951782227,0.5329692363739014,-0.4109053611755371,-9.839475631713867
1745660748.4040847,0.09262903034687042,-0.005890881177037954,-0.2450823336839676,0.7002193927764893,-0.460737943649292,-9.852838516235352
1745660748.4060967,0.0871553048491478,-0.01751331426203251,-0.24822898209095,0.5855995416641235,-0.3901044428348541,-9.83166217803955
1745660748.4070969,0.08940456807613373,-0.011985218152403831,-0.24598684906959534,0.5198452472686768,-0.4701393246650696,-9.791155815124512
1745660748.4118946,0.07064560800790787,-0.01870891824364662,-0.24599269032478333,0.6380646228790283,-0.39081889390945435,-9.584691047668457
1745660748.445659,0.09381341934204102,-0.017946768552064896,-0.2461279332637787,0.4499107003211975,-0.3912927508354187,-9.657958984375
1745660748.4492228,0.0779154822230339,-0.019860150292515755,-0.2448234260082245,0.6108736395835876,-0.25424981117248535,-9.828774452209473
1745660748.4541342,0.11669595539569855,-0.020462412387132645,-0.25159507989883423,0.5203186869621277,-0.44233378767967224,-9.777932167053223
1745660748.4567678,0.09321872889995575,-0.031066253781318665,-0.25105857849121094,0.674943208694458,-0.5748718976974487,-9.76722526550293
1745660748.4890451,0.10169122368097305,-0.025652701035141945,-0.25180619955062866,0.5400389432907104,-0.5343278646469116,-9.835705757141113
1745660748.4917164,0.08219325542449951,-0.033616889268159866,-0.25206542015075684,0.7034316658973694,-0.6847053170204163,-9.793783187866211
1745660748.4971125,0.08836912363767624,-0.03488830849528313,-0.2516685724258423,0.49113669991493225,-0.4077243208885193,-9.792856216430664
1745660748.4971578,0.06777497380971909,-0.03118428960442543,-0.253246933221817,0.6171814203262329,-0.5572595596313477,-9.779265403747559
1745660748.4995768,0.08557780086994171,-0.035405125468969345,-0.25332364439964294,0.48052969574928284,-0.30186644196510315,-9.669267654418945
1745660748.5362158,0.08125225454568863,-0.030511897057294846,-0.25663596391677856,0.500196099281311,-0.3009876608848572,-9.744667053222656
1745660748.5393872,0.09510597586631775,-0.03767054155468941,-0.25649937987327576,0.6147269606590271,-0.37817105650901794,-9.855276107788086
1745660748.5469654,0.11641208827495575,-0.03445672243833542,-0.2596377730369568,0.4755343496799469,-0.22713327407836914,-9.822664260864258
1745660748.5490773,0.1002325639128685,-0.03715498745441437,-0.2581041753292084,0.6948693990707397,-0.5576173067092896,-9.73382568359375
1745660748.5820491,0.12022332102060318,-0.034956835210323334,-0.25733423233032227,0.43989795446395874,-0.4161229133605957,-9.778096199035645
1745660748.5821989,0.10041298717260361,-0.03783448785543442,-0.2581450045108795,0.6604496836662292,-0.7305532693862915,-9.823835372924805
1745660748.5872786,0.10816419124603271,-0.026614269241690636,-0.2829909920692444,0.6003695726394653,-0.7037209868431091,-9.692599296569824
1745660748.5874736,0.10788540542125702,-0.02735719084739685,-0.2820720076560974,0.3855854570865631,-0.7792333364486694,-9.760602951049805
1745660748.589403,0.09299063682556152,-0.0236195120960474,-0.2816329598426819,0.6062971949577332,-0.796777069568634,-9.803532600402832
1745660748.619461,0.08179859071969986,-0.026829708367586136,-0.28222519159317017,0.4856645464897156,-0.7103195190429688,-9.827742576599121
1745660748.626099,0.08950920403003693,-0.02237645536661148,-0.28496673703193665,0.5502305626869202,-0.7225194573402405,-9.717089653015137
1745660748.6261601,0.06935764849185944,-0.02858072519302368,-0.2884898781776428,0.5205720663070679,-0.5390805602073669,-9.734755516052246
1745660748.628074,0.08048315346240997,-0.019587257876992226,-0.2908778786659241,0.4398731291294098,-0.7453657984733582,-9.937241554260254
1745660748.663948,0.0813283771276474,-0.024751050397753716,-0.289409339427948,0.525765061378479,-0.5909825563430786,-9.758935928344727
1745660748.6640842,0.08235333114862442,-0.02339412085711956,-0.2879117429256439,0.3887154161930084,-0.6489142179489136,-9.7490873336792
1745660748.6683767,0.09526524692773819,-0.018460828810930252,-0.28860244154930115,0.5842067003250122,-0.6627329587936401,-9.72160816192627
1745660748.6705654,0.09011845290660858,-0.022788355126976967,-0.28840142488479614,0.39927026629447937,-0.5523704886436462,-9.76557445526123
1745660748.706071,0.09966157376766205,-0.01606496050953865,-0.28756603598594666,0.5366029739379883,-0.7041012644767761,-9.790449142456055
1745660748.7086341,0.09199691563844681,-0.026501411572098732,-0.2896084189414978,0.5789596438407898,-0.6635168194770813,-9.744901657104492
1745660748.7111144,0.10026662051677704,-0.017820708453655243,-0.2915593087673187,0.4097157120704651,-0.7553447484970093,-9.868139266967773
1745660748.7152674,0.07994268834590912,-0.019752444699406624,-0.2910672426223755,0.5989543199539185,-0.7245703935623169,-9.739089965820312
1745660748.7153409,0.08186119794845581,-0.01617356203496456,-0.2937067747116089,0.3720218539237976,-0.7601731419563293,-9.702435493469238
1745660748.75149,0.08145128190517426,-0.014439450576901436,-0.29405465722084045,0.5576073527336121,-0.7953478097915649,-9.68202018737793
1745660748.7543652,0.07206393033266068,-0.021335750818252563,-0.29464828968048096,0.4847896099090576,-0.5851930379867554,-9.713902473449707
1745660748.7581933,0.08461402356624603,-0.010800275020301342,-0.29318341612815857,0.5162457227706909,-0.8489463925361633,-9.796721458435059
1745660748.7615223,0.0743604376912117,-0.014962442219257355,-0.29170212149620056,0.44417804479599,-0.600699245929718,-9.714445114135742
1745660748.79113,0.08786100149154663,-0.01120059471577406,-0.29488855600357056,0.4162421226501465,-0.8333045840263367,-9.808297157287598
1745660748.7943356,0.07938360422849655,-0.014688263647258282,-0.2924860715866089,0.5532532930374146,-0.7060267925262451,-9.759722709655762
1745660748.7954361,0.0877060815691948,-0.012431229464709759,-0.2936320900917053,0.3826530873775482,-0.6932200193405151,-9.814226150512695
1745660748.7993107,0.07519788295030594,-0.011490126140415668,-0.2969985008239746,0.5540208220481873,-0.8801781535148621,-9.812280654907227
1745660748.83435,0.057657431811094284,-0.016861673444509506,-0.294601708650589,0.532058835029602,-0.6920338869094849,-9.745311737060547
1745660748.8375595,0.06450804322957993,-0.008636134676635265,-0.296126127243042,0.4421682357788086,-0.8213495016098022,-9.799781799316406
1745660748.8400776,0.06267677992582321,-0.014655470848083496,-0.29686659574508667,0.5445711612701416,-0.6360582113265991,-9.653325080871582
1745660748.8435864,0.06623030453920364,-0.016559014096856117,-0.2951079308986664,0.39180514216423035,-0.63150554895401,-9.816741943359375
1745660748.8464313,0.07404915988445282,-0.007398033980280161,-0.29694199562072754,0.5513429045677185,-0.6747825741767883,-9.747982025146484
1745660748.8772514,0.06926785409450531,-0.0162954218685627,-0.2986086308956146,0.40501222014427185,-0.6883527040481567,-9.683099746704102
1745660748.8800087,0.07980272173881531,-0.008005267940461636,-0.29800453782081604,0.5115048289299011,-0.8337935209274292,-9.702827453613281
1745660748.8820748,0.06726431846618652,-0.017777370288968086,-0.29278290271759033,0.535804271697998,-0.8375877141952515,-9.7947416305542
1745660748.884436,0.08193007111549377,-0.005441522225737572,-0.2938609719276428,0.36427173018455505,-0.814834475517273,-9.82612419128418
1745660748.9213855,0.05694570392370224,-0.009525751695036888,-0.2942829728126526,0.593964695930481,-0.7834429144859314,-9.581121444702148
1745660748.9220443,0.06740733236074448,-0.01074104942381382,-0.2959845960140228,0.3924465477466583,-0.7411984205245972,-9.655179977416992
1745660748.9247465,0.06718667596578598,-0.009501452557742596,-0.29887399077415466,0.5680078864097595,-0.8623501658439636,-9.766965866088867
1745660748.9264262,0.005019090138375759,-0.02262732945382595,-0.29869693517684937,0.475100040435791,-0.8255459666252136,-9.669560432434082
1745660748.9285817,0.013282755389809608,-0.016100198030471802,-0.2975820302963257,0.4501829743385315,-0.8252824544906616,-9.783419609069824
1745660748.965848,0.0038531534373760223,-0.022257188335061073,-0.2995765805244446,0.518879234790802,-0.8490754961967468,-9.773660659790039
1745660748.96952,0.013869037851691246,-0.015776772052049637,-0.29920369386672974,0.34635859727859497,-0.6850816011428833,-9.735243797302246
1745660748.9727302,0.0008535703527741134,-0.02092633955180645,-0.2996923327445984,0.6001770496368408,-0.858279824256897,-9.668289184570312
1745660748.9753525,0.01797325164079666,-0.02371808886528015,-0.29784905910491943,0.4235560894012451,-0.7407888770103455,-9.782408714294434
1745660749.007125,0.019784044474363327,-0.018173066899180412,-0.29914426803588867,0.5584534406661987,-0.8426660299301147,-9.723280906677246
1745660749.0091722,0.004348508082330227,-0.02437897026538849,-0.29882174730300903,0.5033582448959351,-0.7957201600074768,-9.700662612915039
1745660749.0131314,0.02658737264573574,-0.014418656006455421,-0.2968594431877136,0.4268692433834076,-0.8420573472976685,-9.674741744995117
1745660749.0144792,0.004787856712937355,-0.0267392098903656,-0.2964079976081848,0.5571084022521973,-0.7970563173294067,-9.722604751586914
1745660749.0190034,0.02245599403977394,-0.020794035866856575,-0.297660768032074,0.40640631318092346,-0.8434589505195618,-9.847997665405273
1745660749.0515792,0.00500490004196763,-0.023176398128271103,-0.2985977530479431,0.5637282729148865,-0.8856471180915833,-9.772348403930664
1745660749.0549262,0.008300982415676117,-0.025067204609513283,-0.2984983026981354,0.3536924719810486,-0.8082567453384399,-9.698408126831055
1745660749.059247,-0.0057564605958759785,-0.021426118910312653,-0.2976088523864746,0.523358166217804,-1.0576616525650024,-9.636711120605469
1745660749.0625515,-0.009675424546003342,-0.028528686612844467,-0.2955321967601776,0.5008196234703064,-0.8879175186157227,-9.738433837890625
1745660749.0947115,-0.0052390131168067455,-0.020873678848147392,-0.29704511165618896,0.45629817247390747,-0.8399909734725952,-9.782593727111816
1745660749.098164,-0.021920684725046158,-0.026577865704894066,-0.2948594093322754,0.5281695127487183,-0.8054073452949524,-9.708311080932617
1745660749.1007621,0.003177813021466136,-0.018718596547842026,-0.2952713370323181,0.3693414032459259,-0.760799765586853,-9.747601509094238
1745660749.1062484,-0.008856484666466713,-0.027828311547636986,-0.29462772607803345,0.5655677318572998,-0.7207018733024597,-9.696023941040039
1745660749.1359124,0.0033193298149853945,-0.025351181626319885,-0.29591280221939087,0.3509015440940857,-0.707135021686554,-9.811277389526367
1745660749.1374922,0.008170203305780888,-0.018069732934236526,-0.2955939769744873,0.4470553398132324,-0.7161440849304199,-9.696802139282227
1745660749.1400902,9.702835086500272e-05,-0.028653154149651527,-0.29568204283714294,0.4895901679992676,-0.7928194999694824,-9.571500778198242
1745660749.142811,0.00862446054816246,-0.02248685620725155,-0.29189005494117737,0.4757138788700104,-0.8456209897994995,-9.772701263427734
1745660749.1450357,-0.002825231058523059,-0.027704432606697083,-0.29396486282348633,0.6201351284980774,-0.8973630666732788,-9.942217826843262
1745660749.181455,0.0021548070944845676,-0.023258302360773087,-0.2926681935787201,0.3622318506240845,-0.7639777660369873,-9.858930587768555
1745660749.184167,-0.013173284009099007,-0.025897955521941185,-0.2945421636104584,0.551899790763855,-0.9626629948616028,-9.564156532287598
1745660749.188274,-0.000966687104664743,-0.030026858672499657,-0.29244720935821533,0.35507041215896606,-0.7119371294975281,-9.637272834777832
1745660749.1926246,-0.008335238322615623,-0.02389230765402317,-0.2927687168121338,0.4830327033996582,-0.8437939882278442,-9.816640853881836
1745660749.2235608,-0.013897696509957314,-0.026318509131669998,-0.29349055886268616,0.47023454308509827,-0.7688614130020142,-9.807801246643066
1745660749.2253406,0.003034253604710102,-0.01776459440588951,-0.2925068140029907,0.3600707948207855,-0.7701992392539978,-9.678813934326172
1745660749.2277567,-0.012252776883542538,-0.03344720974564552,-0.2924233078956604,0.5175946950912476,-0.7995266914367676,-9.700965881347656
1745660749.2290869,0.00724413525313139,-0.021815842017531395,-0.29004576802253723,0.3736753463745117,-0.7825389504432678,-9.930617332458496
1745660749.230334,-0.006805584765970707,-0.02593490481376648,-0.2904951870441437,0.5326616764068604,-0.8810702562332153,-9.788211822509766
1745660749.26427,0.001042794669046998,-0.027172047644853592,-0.2887543737888336,0.416212797164917,-0.7362908124923706,-9.568909645080566
1745660749.2661433,-0.009672179818153381,-0.026134636253118515,-0.28667235374450684,0.5268834829330444,-0.9644933938980103,-9.671021461486816
1745660749.267984,-0.005673891864717007,-0.028245186433196068,-0.2867676615715027,0.4371264576911926,-0.7408320307731628,-9.89806079864502
1745660749.3073246,-0.009837227873504162,-0.010333526879549026,-0.2861514091491699,0.41953331232070923,-0.7070609331130981,-9.77385425567627
1745660749.3104334,0.0018175762379541993,-0.006260828115046024,-0.2868395149707794,0.31893306970596313,-0.6419422030448914,-9.606023788452148
1745660749.313185,-0.013638894073665142,-0.01745963841676712,-0.28782135248184204,0.5518730282783508,-0.7384525537490845,-9.777836799621582
1745660749.3165126,0.00766142550855875,-0.006680282764136791,-0.2886043190956116,0.35564619302749634,-0.7028234601020813,-10.017369270324707
1745660749.3182366,-0.008427184075117111,-0.011310983449220657,-0.2878572940826416,0.4775160849094391,-0.8835233449935913,-9.70631217956543
1745660749.3531864,0.0009934757836163044,-0.00913233868777752,-0.28401586413383484,0.3624531626701355,-0.6799042820930481,-9.495707511901855
1745660749.3559709,-0.013458545319736004,-0.012255318462848663,-0.28562676906585693,0.54052734375,-0.9514096975326538,-9.736083984375
1745660749.3568118,-0.00565212732180953,-0.011981568299233913,-0.28296518325805664,0.4201657772064209,-0.6979015469551086,-10.032190322875977
1745660749.3603494,-0.012587927281856537,-0.004130714572966099,-0.28798484802246094,0.393953412771225,-0.744042694568634,-9.836502075195312
1745660749.3932776,-0.021177850663661957,-0.01266771275550127,-0.288302481174469,0.456572949886322,-0.7831234931945801,-9.543956756591797
1745660749.3964705,-0.004604580346494913,-0.00934544950723648,-0.2894012928009033,0.3502257466316223,-0.6863170862197876,-9.738698959350586
1745660749.400579,-0.02763482555747032,-0.014492149464786053,-0.2913535237312317,0.6541513204574585,-0.7960368394851685,-9.920910835266113
1745660749.4028535,-0.009440327994525433,-0.006791426334530115,-0.28767189383506775,0.34295883774757385,-0.7422836422920227,-9.881231307983398
1745660749.4030137,-0.016752129420638084,-0.006435999181121588,-0.2877315282821655,0.4212828278541565,-0.7593094110488892,-9.489309310913086
1745660749.4377263,-0.014618304558098316,-0.014291688799858093,-0.285383939743042,0.4685363173484802,-0.6648064851760864,-9.670519828796387
1745660749.4412649,-0.004763494245707989,-0.007778911851346493,-0.28885117173194885,0.40817028284072876,-0.6272410154342651,-10.04236888885498
1745660749.4442549,-0.006713411770761013,-0.014226943254470825,-0.2857481837272644,0.5126034021377563,-0.6218263506889343,-9.905988693237305
1745660749.4471307,0.0008813831955194473,-0.008377601392567158,-0.28897523880004883,0.3017999529838562,-0.60695880651474,-9.596685409545898
1745660749.4798114,-0.007385639939457178,-0.011914917267858982,-0.2882837653160095,0.5425323247909546,-0.8589445948600769,-9.553512573242188
1745660749.4827404,0.0019576051272451878,-0.013693789020180702,-0.2914264500141144,0.38710230588912964,-0.5943397283554077,-9.829214096069336
1745660749.4850674,-0.01156606711447239,-0.0048874132335186005,-0.2884368598461151,0.49219831824302673,-0.842462420463562,-9.896479606628418
1745660749.4885938,-0.0053693801164627075,-0.010151850059628487,-0.2893558144569397,0.4542319178581238,-0.7103956341743469,-9.663766860961914
1745660749.4916232,0.0009971789550036192,-0.007550498936325312,-0.29029834270477295,0.4438866972923279,-0.6880911588668823,-9.66165828704834
1745660749.5256665,0.007010200526565313,-0.004297337960451841,-0.2904370427131653,0.31911930441856384,-0.5929819345474243,-9.939544677734375
1745660749.5271907,-0.007634158246219158,-0.008526211604475975,-0.2893725335597992,0.462893545627594,-0.8248651623725891,-9.549823760986328
1745660749.53078,0.003005207981914282,-0.014181306585669518,-0.2902458608150482,0.36725789308547974,-0.5774133801460266,-9.53185749053955
1745660749.5658293,-0.00259655830450356,-0.010604800656437874,-0.289946973323822,0.5749279856681824,-0.8426753878593445,-9.903056144714355
1745660749.568716,0.002399332355707884,-0.01288074441254139,-0.2901541590690613,0.4082208275794983,-0.5861257314682007,-10.006930351257324
1745660749.5713272,-0.0011777097824960947,-0.005951124243438244,-0.2896598279476166,0.4400622248649597,-0.7837477922439575,-9.67634391784668
1745660749.5792835,-0.003696343395859003,-0.018449928611516953,-0.2900240123271942,0.5135990977287292,-0.7766838073730469,-9.514411926269531
1745660749.5844066,0.008141967467963696,-0.012583106756210327,-0.28679776191711426,0.3769736886024475,-0.6873103380203247,-9.898361206054688
1745660749.6102335,-0.007726564072072506,-0.015436550602316856,-0.2877471148967743,0.577491819858551,-0.6410353183746338,-9.859670639038086
1745660749.6142967,0.016669252887368202,-0.005293338559567928,-0.2895256578922272,0.28859150409698486,-0.5360164046287537,-9.591684341430664
1745660749.6179442,0.006984185427427292,-0.009428929537534714,-0.2900746762752533,0.45370784401893616,-0.647383451461792,-9.495321273803711
1745660749.619432,0.015978876501321793,-0.017926059663295746,-0.29164332151412964,0.5017674565315247,-0.5962287187576294,-9.874506950378418
1745660749.6511803,0.017318567261099815,-0.00815934594720602,-0.28963741660118103,0.41891878843307495,-0.7755798697471619,-10.107885360717773
1745660749.6519983,0.0033061192370951176,-0.02928057685494423,-0.28490445017814636,0.47510915994644165,-0.7799551486968994,-9.658913612365723
1745660749.6529038,0.02011285163462162,-0.02131469175219536,-0.2850462794303894,0.36023440957069397,-0.6922630071640015,-9.833005905151367
1745660749.6531923,-0.004218809772282839,-0.02882596291601658,-0.2867719531059265,0.6076747179031372,-0.7059232592582703,-9.789339065551758
1745660749.6542006,0.020780829712748528,-0.0160662904381752,-0.2849583029747009,0.3102256655693054,-0.6482911109924316,-9.653165817260742
1745660749.6974587,0.008941734209656715,-0.02202383615076542,-0.28514549136161804,0.5065995454788208,-0.7190073132514954,-9.59210205078125
1745660749.6985016,0.015212657861411572,-0.028477314859628677,-0.28358495235443115,0.43876057863235474,-0.6785106658935547,-9.872589111328125
1745660749.7008264,0.020304854959249496,-0.020703092217445374,-0.2831898629665375,0.40829816460609436,-0.73836350440979,-9.965658187866211
1745660749.7024012,0.01774011179804802,-0.02466568350791931,-0.2821941673755646,0.38295117020606995,-0.6358362436294556,-9.628728866577148
1745660749.739452,0.019201580435037613,-0.020802341401576996,-0.2831662595272064,0.33792006969451904,-0.720224142074585,-9.548835754394531
1745660749.7428043,0.008760297670960426,-0.026295240968465805,-0.28765273094177246,0.5560376048088074,-0.808484673500061,-9.732625961303711
1745660749.7450688,0.020060213282704353,-0.023199785500764847,-0.28600987792015076,0.3932635188102722,-0.6053478717803955,-9.922493934631348
1745660749.7476635,0.0003635786415543407,-0.022007063031196594,-0.2860785722732544,0.5328782796859741,-0.8897532224655151,-9.787287712097168
1745660749.7864287,0.008908630348742008,-0.02317379042506218,-0.28494498133659363,0.36497804522514343,-0.7747570276260376,-9.663769721984863
1745660749.786542,0.00882425345480442,-0.024898111820220947,-0.28415170311927795,0.41388392448425293,-0.7267652750015259,-9.754166603088379
1745660749.7865987,0.003400434972718358,-0.02783215045928955,-0.2825060784816742,0.44621556997299194,-0.6795684099197388,-9.830709457397461
1745660749.7877226,0.022852879017591476,-0.016317972913384438,-0.2854216396808624,0.3511957824230194,-0.5216053128242493,-9.728801727294922
1745660749.8243108,0.00751693919301033,-0.02862589992582798,-0.2831079959869385,0.4995605945587158,-0.7578860521316528,-9.618467330932617
1745660749.8305986,0.025040408596396446,-0.0239582397043705,-0.28423458337783813,0.30184897780418396,-0.5945212841033936,-9.785979270935059
1745660749.8333688,0.011884933337569237,-0.021045854315161705,-0.2842021584510803,0.5045794248580933,-0.8820030093193054,-9.891501426696777
1745660749.8351002,0.022463718429207802,-0.023110751062631607,-0.2832590937614441,0.30163368582725525,-0.6599714756011963,-9.768238067626953
1745660749.8389637,0.005295403767377138,-0.019015882164239883,-0.28227829933166504,0.4665526747703552,-0.8290987014770508,-9.62684154510498
1745660749.8681467,0.007367713842540979,-0.028662702068686485,-0.28214967250823975,0.47896450757980347,-0.6697177290916443,-9.733137130737305
1745660749.8731143,0.022986765950918198,-0.01618964597582817,-0.2836003303527832,0.29639172554016113,-0.6388484835624695,-9.885313034057617
1745660749.8752153,0.004770694766193628,-0.023619074374437332,-0.28517407178878784,0.5573726892471313,-0.665313184261322,-9.656494140625
1745660749.8764975,0.02407762221992016,-0.01749313250184059,-0.2849016785621643,0.3108164668083191,-0.6273697018623352,-9.639983177185059
1745660749.9105043,0.01444475632160902,-0.0216814111918211,-0.2846466898918152,0.45112839341163635,-0.7345054149627686,-9.81229305267334
1745660749.9124653,0.026410887017846107,-0.023106593638658524,-0.2848914563655853,0.36778807640075684,-0.6096725463867188,-9.941343307495117
1745660749.9125123,0.028595030307769775,-0.015208715572953224,-0.282400906085968,0.384188711643219,-0.7322250008583069,-9.784405708312988
1745660749.9152827,0.02464662678539753,-0.023127036169171333,-0.281202495098114,0.4369279742240906,-0.6740435361862183,-9.579545974731445
1745660749.915385,0.02605772390961647,-0.019631290808320045,-0.28255799412727356,0.369231253862381,-0.7791153192520142,-9.775650024414062
1745660749.953157,0.016425326466560364,-0.022883310914039612,-0.28094035387039185,0.5119228959083557,-0.846352756023407,-9.901666641235352
1745660749.9565642,0.025836437940597534,-0.017774954438209534,-0.2822299599647522,0.30344289541244507,-0.6722368001937866,-9.742912292480469
1745660749.959729,0.006564000155776739,-0.019278988242149353,-0.28202685713768005,0.46997299790382385,-0.841094970703125,-9.571688652038574
1745660749.962374,0.014503049664199352,-0.021715441718697548,-0.2807909846305847,0.36387401819229126,-0.7118884325027466,-9.793817520141602
1745660749.99824,0.01595681719481945,-0.016981856897473335,-0.28115448355674744,0.43367260694503784,-0.6733657121658325,-9.94423770904541
1745660750.000546,0.009720692411065102,-0.022319884970784187,-0.2810056507587433,0.404411256313324,-0.6428953409194946,-9.784049034118652
1745660750.0046303,0.022570809349417686,-0.017087817192077637,-0.2833622694015503,0.3586852550506592,-0.7177453637123108,-9.823068618774414
1745660750.0062025,0.01842753402888775,-0.01728937029838562,-0.28049322962760925,0.5407297611236572,-0.7825111150741577,-9.899628639221191
1745660750.0095162,0.029713407158851624,-0.012725348584353924,-0.2808135151863098,0.33479493856430054,-0.5954877734184265,-9.65440559387207
1745660750.042678,0.011822141706943512,-0.015406021848320961,-0.28024765849113464,0.5197429656982422,-0.848338782787323,-9.595340728759766
1745660750.0428185,0.026967424899339676,-0.019040534272789955,-0.28010326623916626,0.38170328736305237,-0.6641802787780762,-9.86284065246582
1745660750.043845,0.02463953010737896,-0.014130041003227234,-0.2813064455986023,0.35975879430770874,-0.7166885733604431,-9.908422470092773
1745660750.0551665,0.019609952345490456,-0.017916817218065262,-0.28008490800857544,0.4256020486354828,-0.7273181080818176,-9.665609359741211
1745660750.0839782,0.03208674117922783,-0.01087155006825924,-0.2828434407711029,0.33650416135787964,-0.5949487686157227,-9.581205368041992
1745660750.090535,0.015993613749742508,-0.020461536943912506,-0.28262859582901,0.5441753268241882,-0.8688772916793823,-9.733794212341309
1745660750.093113,0.027897870168089867,-0.015456581488251686,-0.2800517678260803,0.29926609992980957,-0.6666256785392761,-9.933120727539062
1745660750.096195,0.016461152583360672,-0.013430912978947163,-0.2819483280181885,0.5267754197120667,-0.9347332119941711,-9.78803539276123
1745660750.1247911,0.020711209625005722,-0.01797855645418167,-0.2796488404273987,0.3365922272205353,-0.6762042045593262,-9.61009693145752
1745660750.1269274,0.010691164061427116,-0.01691952720284462,-0.2791385054588318,0.5017366409301758,-0.827876091003418,-9.764472961425781
1745660750.128816,0.016352269798517227,-0.02146284654736519,-0.27768048644065857,0.4342381954193115,-0.6837758421897888,-9.90565299987793
1745660750.1307979,0.028786977753043175,-0.011182171292603016,-0.28136277198791504,0.24318048357963562,-0.6233951449394226,-9.718098640441895
1745660750.1354935,0.009223386645317078,-0.01897316612303257,-0.28173398971557617,0.5881353616714478,-0.743720293045044,-9.536590576171875
1745660750.168714,0.030611341819167137,-0.015819601714611053,-0.28304019570350647,0.30902189016342163,-0.6358338594436646,-9.76952838897705
1745660750.17082,0.014270673505961895,-0.016869230195879936,-0.28308922052383423,0.46286725997924805,-0.8074954748153687,-9.978578567504883
1745660750.1741807,0.025634581223130226,-0.018187787383794785,-0.2838791012763977,0.35725948214530945,-0.7272263765335083,-9.767943382263184
1745660750.1768541,0.018206192180514336,-0.0154039915651083,-0.27825823426246643,0.45138174295425415,-0.8654738664627075,-9.653860092163086
1745660750.211753,0.012936130166053772,-0.026984795928001404,-0.28217896819114685,0.5119885206222534,-0.7535498738288879,-9.74901008605957
1745660750.2136285,0.013692463748157024,-0.019162384793162346,-0.2804693579673767,0.3311500549316406,-0.7978019714355469,-9.92536735534668
1745660750.2165017,0.007798881269991398,-0.017489951103925705,-0.2794150412082672,0.4827243685722351,-0.8275811076164246,-9.645549774169922
1745660750.219279,0.015288645401597023,-0.020295429974794388,-0.2812044620513916,0.34009984135627747,-0.6435816287994385,-9.487037658691406
1745660750.221995,-0.0005369040882214904,-0.020572975277900696,-0.2798115611076355,0.5087980031967163,-0.8051810264587402,-9.845939636230469
1745660750.256168,0.014401252381503582,-0.01870494894683361,-0.2807994484901428,0.2755921483039856,-0.6398578882217407,-10.061341285705566
1745660750.2582662,0.018306780606508255,-0.01288335956633091,-0.28211599588394165,0.3124290108680725,-0.6519683003425598,-9.652791023254395
1745660750.2600818,0.00914028100669384,-0.026053279638290405,-0.2831960618495941,0.4641847014427185,-0.7298110127449036,-9.417303085327148
1745660750.2626145,0.02616768702864647,-0.01450712513178587,-0.2845463156700134,0.37222594022750854,-0.5854829549789429,-9.80223560333252
1745660750.2981405,0.007172052748501301,-0.02383781410753727,-0.283953994512558,0.5857004523277283,-0.8618869781494141,-10.014047622680664
1745660750.3024037,0.023085137829184532,-0.013718068599700928,-0.28081998229026794,0.3148036599159241,-0.6938498616218567,-9.738029479980469
1745660750.3064625,0.00785255990922451,-0.018669230863451958,-0.2811727523803711,0.5545312166213989,-0.9064046144485474,-9.50090217590332
1745660750.3099096,0.009544502943754196,-0.025976162403821945,-0.2820355296134949,0.3637487590312958,-0.6564030647277832,-9.846223831176758
1745660750.312342,0.004561607260257006,-0.016975218430161476,-0.2820294499397278,0.41879090666770935,-0.7516525983810425,-10.041425704956055
1745660750.3406649,0.006780262105166912,-0.021817639470100403,-0.2828214466571808,0.4412795603275299,-0.6756769418716431,-9.691999435424805
1745660750.3454387,0.019827771931886673,-0.02090654894709587,-0.2838950753211975,0.28345805406570435,-0.6462262272834778,-9.484040260314941
1745660750.3503478,0.014847648330032825,-0.016365408897399902,-0.2856060564517975,0.28955966234207153,-0.5446252226829529,-9.815239906311035
1745660750.3827882,0.006284418050199747,-0.021818196401000023,-0.28547191619873047,0.5464671850204468,-0.8748551607131958,-9.772848129272461
1745660750.3867748,0.01757916808128357,-0.01946987211704254,-0.283581405878067,0.3310416042804718,-0.6167950630187988,-9.727487564086914
1745660750.391738,0.01199242752045393,-0.019019898027181625,-0.28326159715652466,0.48560285568237305,-0.9220744967460632,-9.7479248046875
1745660750.3957467,0.014898417517542839,-0.0240832157433033,-0.2810482382774353,0.4006795883178711,-0.6139422655105591,-9.81955623626709
1745660750.397296,0.007291671819984913,-0.017659198492765427,-0.2832677364349365,0.3737178444862366,-0.7429131269454956,-9.798165321350098
1745660750.4282315,0.01169463898986578,-0.021704228594899178,-0.2831647992134094,0.4698866009712219,-0.712835967540741,-9.638259887695312
1745660750.4308884,0.0204765684902668,-0.01707255095243454,-0.28673887252807617,0.2669714093208313,-0.5310676693916321,-9.653229713439941
1745660750.4346018,0.00011441321112215519,-0.0196171123534441,-0.28568416833877563,0.6122552752494812,-0.8689454197883606,-9.776268005371094
1745660750.4363167,0.014903509989380836,-0.019998114556074142,-0.2870062291622162,0.3037266135215759,-0.69808030128479,-9.863187789916992
1745660750.4687035,0.0027576196007430553,-0.016162820160388947,-0.28368717432022095,0.42690348625183105,-0.8877107501029968,-9.79002857208252
1745660750.4712102,0.008894684724509716,-0.02047496847808361,-0.28308483958244324,0.40902581810951233,-0.7194574475288391,-9.669388771057129
1745660750.473443,0.009156329557299614,-0.01726960949599743,-0.28251200914382935,0.3682057559490204,-0.7439494729042053,-9.787771224975586
1745660750.474667,0.008445409126579762,-0.023712530732154846,-0.2805510461330414,0.5418197512626648,-0.712285041809082,-9.814149856567383
1745660750.477688,0.010928913950920105,-0.018514404073357582,-0.2826945185661316,0.2378050535917282,-0.6906886100769043,-9.768930435180664
1745660750.5185776,0.00969191174954176,-0.018716100603342056,-0.2807830274105072,0.44625529646873474,-0.8449481725692749,-9.667492866516113
1745660750.5216982,0.008092212490737438,-0.020179646089673042,-0.2827781140804291,0.293937623500824,-0.5502674579620361,-9.677186012268066
1745660750.525794,-0.0006902240565977991,-0.017838675528764725,-0.2851465940475464,0.4544784426689148,-0.8460139036178589,-9.88859748840332
1745660750.528047,0.010889329947531223,-0.01973383128643036,-0.28163960576057434,0.45456522703170776,-0.6797802448272705,-9.851316452026367
1745660750.555318,0.005798524245619774,-0.01818801462650299,-0.2864319980144501,0.4110589027404785,-0.7067391872406006,-9.692054748535156
1745660750.557522,0.003538499353453517,-0.023125920444726944,-0.28122225403785706,0.5652354955673218,-0.8576282262802124,-9.663344383239746
1745660750.5599878,0.014255784451961517,-0.016600290313363075,-0.2831420302391052,0.2727315425872803,-0.5653216242790222,-9.810538291931152
1745660750.562771,0.001706625334918499,-0.017370153218507767,-0.27985745668411255,0.46997493505477905,-0.8625971078872681,-9.739141464233398
1745660750.6008227,0.012514563277363777,-0.022424334660172462,-0.27927765250205994,0.3498300611972809,-0.500688910484314,-9.880205154418945
1745660750.6046603,0.01686755195260048,-0.012109101749956608,-0.2859463095664978,0.2940475046634674,-0.718873143196106,-9.811288833618164
1745660750.6060762,0.01647251658141613,-0.019867638126015663,-0.28371015191078186,0.4906425476074219,-0.7752406001091003,-9.566990852355957
1745660750.606441,0.01770957186818123,-0.01760428585112095,-0.2853657603263855,0.3026493191719055,-0.7160820960998535,-9.66981315612793
1745660750.642919,0.00012863983283750713,-0.015204818919301033,-0.2825915813446045,0.6401395797729492,-0.9570133090019226,-9.887280464172363
1745660750.6459486,0.01754881627857685,-0.014726917259395123,-0.28148922324180603,0.316422700881958,-0.6139823198318481,-9.840025901794434
1745660750.6478949,0.003085904289036989,-0.013349230401217937,-0.28193411231040955,0.43974214792251587,-0.8091238737106323,-9.68500804901123
1745660750.6534357,0.015982884913682938,-0.02045397274196148,-0.2812042236328125,0.4365103840827942,-0.5909805297851562,-9.697779655456543
1745660750.6535106,0.018921472132205963,-0.014237853698432446,-0.28243663907051086,0.2728012502193451,-0.6022544503211975,-9.93930721282959
1745660750.6871688,0.018673837184906006,-0.017663802951574326,-0.284365713596344,0.47546058893203735,-0.691683292388916,-9.76231575012207
1745660750.6902318,0.02125520631670952,-0.017377963289618492,-0.2854769229888916,0.2227657586336136,-0.7295467257499695,-9.60352897644043
1745660750.6947079,0.017165128141641617,-0.016024149954319,-0.27938956022262573,0.45498552918434143,-0.8964381217956543,-9.700824737548828
1745660750.6973324,0.018868640065193176,-0.018003268167376518,-0.28074517846107483,0.33173510432243347,-0.5819374322891235,-9.809338569641113
1745660750.7267067,0.006704102270305157,-0.014125468209385872,-0.2802581191062927,0.531835675239563,-0.8056235313415527,-9.733709335327148
1745660750.7300117,0.020352961495518684,-0.01613389514386654,-0.27925771474838257,0.285883367061615,-0.5278461575508118,-9.662306785583496
1745660750.731409,0.010286218486726284,-0.015577221289277077,-0.2804909348487854,0.44470787048339844,-0.8071969747543335,-9.83551025390625
1745660750.7359955,0.01794307306408882,-0.022162694483995438,-0.28105074167251587,0.5108519196510315,-0.7154119610786438,-9.876368522644043
1745660750.744963,0.016229096800088882,-0.013894838280975819,-0.2789645493030548,0.34347477555274963,-0.8430829048156738,-9.898420333862305
1745660750.7710755,0.011163403280079365,-0.020710373297333717,-0.2754867374897003,0.5451098680496216,-0.881325364112854,-9.574102401733398
1745660750.7721956,0.008725863881409168,-0.019837483763694763,-0.27429476380348206,0.28620052337646484,-0.7376465201377869,-9.631706237792969
1745660750.7734866,0.011425374075770378,-0.014814491383731365,-0.2749732732772827,0.48482078313827515,-0.8423201441764832,-9.849194526672363
1745660750.778632,0.015080447308719158,-0.01996985264122486,-0.2755078375339508,0.3316875398159027,-0.45802363753318787,-9.761472702026367
1745660750.813681,0.011010396294295788,-0.012682005763053894,-0.2783651053905487,0.36630433797836304,-0.7710602879524231,-9.783927917480469
1745660750.8157945,0.019697342067956924,-0.01907440647482872,-0.27875927090644836,0.4101572036743164,-0.6494162678718567,-9.766278266906738
1745660750.8184507,0.01939084380865097,-0.017294397577643394,-0.2813076376914978,0.2833068370819092,-0.7179744839668274,-9.81202220916748
1745660750.8208523,0.008986162953078747,-0.01675703190267086,-0.27794843912124634,0.5428890585899353,-0.9667583703994751,-9.724455833435059
1745660750.8236487,0.016240227967500687,-0.014062376692891121,-0.27811115980148315,0.34148213267326355,-0.6838892698287964,-9.653919219970703
1745660750.8588579,5.098648398416117e-05,-0.0195307657122612,-0.274905264377594,0.6140549182891846,-0.9858253598213196,-9.757478713989258
1745660750.8620732,0.009909873828291893,-0.02162756957113743,-0.2743183374404907,0.4010627865791321,-0.638733446598053,-9.909709930419922
1745660750.8621833,0.008291928097605705,-0.015169215388596058,-0.2748464047908783,0.4250088632106781,-0.8167316317558289,-9.893534660339355
1745660750.864481,0.007137020584195852,-0.021366465836763382,-0.2744111120700836,0.3476097583770752,-0.5936717391014099,-9.65860652923584
1745660750.90097,0.00986994244158268,-0.017940785735845566,-0.2753920555114746,0.260550320148468,-0.6904847025871277,-9.683642387390137
1745660750.904735,0.014840332791209221,-0.020216364413499832,-0.27763935923576355,0.4533211290836334,-0.7152707576751709,-9.708196640014648
1745660750.9077685,0.022988151758909225,-0.016741886734962463,-0.2781575620174408,0.2618207037448883,-0.5623010396957397,-9.751045227050781
1745660750.9102073,0.006075728219002485,-0.014077002182602882,-0.2763088345527649,0.5852577090263367,-0.9358064532279968,-9.726654052734375
1745660750.9436042,0.021804699674248695,-0.018241308629512787,-0.2794463634490967,0.38075923919677734,-0.6505557894706726,-9.733001708984375
1745660750.9495394,0.008226676844060421,-0.01502971537411213,-0.2733553946018219,0.26685282588005066,-0.7973220944404602,-9.67712116241455
1745660750.9514582,0.0020983282011002302,-0.018566075712442398,-0.2750769853591919,0.5005022287368774,-0.7940173149108887,-9.590921401977539
1745660750.9548347,0.0037333504296839237,-0.017764698714017868,-0.2753153145313263,0.25774648785591125,-0.7030056118965149,-9.842079162597656
1745660750.9862986,0.0031753138173371553,-0.012671845965087414,-0.27487125992774963,0.4434289336204529,-0.7860099077224731,-9.902771949768066
1745660750.988855,0.005696565844118595,-0.01809295266866684,-0.27785447239875793,0.29293233156204224,-0.5090629458427429,-9.642992973327637
1745660750.9940257,0.0005163748865015805,-0.0122247114777565,-0.27486228942871094,0.4070000648498535,-0.8735994100570679,-9.698034286499023
1745660750.996066,0.01249088067561388,-0.018067268654704094,-0.27602308988571167,0.46953004598617554,-0.6734304428100586,-9.828420639038086
1745660750.9978614,0.009613755159080029,-0.015424313955008984,-0.2758658528327942,0.3490954041481018,-0.7103719711303711,-9.850120544433594
1745660751.030706,0.008184107951819897,-0.015516027808189392,-0.27421116828918457,0.5286886692047119,-0.8271514177322388,-9.651524543762207
1745660751.03302,0.01859504170715809,-0.01214608084410429,-0.274535596370697,0.22896654903888702,-0.5219670534133911,-9.624966621398926
1745660751.0422053,0.007957914844155312,-0.014451769180595875,-0.2757478356361389,0.5139495730400085,-0.844748318195343,-9.78120231628418
1745660751.0422766,0.017656197771430016,-0.015775177627801895,-0.2738726735115051,0.3291279971599579,-0.5727318525314331,-9.868917465209961
1745660751.0766973,0.01393570564687252,-0.01119073573499918,-0.27720099687576294,0.42579713463783264,-0.8945981860160828,-9.86277961730957
1745660751.0800676,0.01712636649608612,-0.012158507481217384,-0.27254295349121094,0.4685394763946533,-0.8631781339645386,-9.744062423706055
1745660751.0829444,0.014759829267859459,-0.013694418594241142,-0.27359533309936523,0.332089900970459,-0.5408883094787598,-9.80439281463623
1745660751.085723,0.008185377344489098,-0.010150144807994366,-0.2750534117221832,0.4481668472290039,-0.8665598034858704,-9.821741104125977
1745660751.1140065,0.022074677050113678,-0.013903739862143993,-0.2748873829841614,0.3631916642189026,-0.5977947115898132,-9.682064056396484
1745660751.1170187,0.014728737995028496,-0.013785867020487785,-0.27534058690071106,0.43576398491859436,-0.7602549195289612,-9.673013687133789
1745660751.11935,0.020284486934542656,-0.01474918145686388,-0.2730204463005066,0.4934229254722595,-0.8208936452865601,-9.71399974822998
1745660751.1228938,0.024555126205086708,-0.007148305885493755,-0.2715209126472473,0.22842228412628174,-0.6504048109054565,-9.768540382385254
1745660751.12555,0.019091786816716194,-0.01069702859967947,-0.2700558602809906,0.5246894359588623,-0.8382560610771179,-9.667963027954102
1745660751.1594381,0.027810294181108475,-0.013167199678719044,-0.27029141783714294,0.33097970485687256,-0.5530576705932617,-9.709246635437012
1745660751.1607883,0.023424940183758736,-0.01259826309978962,-0.2704051733016968,0.4953388571739197,-0.8677288293838501,-9.854584693908691
1745660751.1620986,0.017816144973039627,-0.01495365984737873,-0.2739885449409485,0.3755277991294861,-0.6196807026863098,-9.802742004394531
1745660751.1638765,0.01905740611255169,-0.007805290631949902,-0.27331703901290894,0.3702872395515442,-0.9111385345458984,-9.682129859924316
1745660751.2012403,0.01346809882670641,-0.014291921630501747,-0.2727118730545044,0.5373714566230774,-0.8082653880119324,-9.53919506072998
1745660751.2032428,0.013081190176308155,-0.012781118042767048,-0.270268976688385,0.35566121339797974,-0.7183223962783813,-9.757858276367188
1745660751.206946,0.002667305525392294,-0.012395402416586876,-0.2709971070289612,0.6032189130783081,-0.8641670942306519,-9.8688325881958
1745660751.2091136,0.023691177368164062,-0.01419156789779663,-0.27098745107650757,0.2606104910373688,-0.552709698677063,-9.746676445007324
1745660751.2112327,0.013056626543402672,-0.01638256385922432,-0.268923819065094,0.51884925365448,-0.8307124972343445,-9.645975112915039
1745660751.2452915,0.027114704251289368,-0.017466988414525986,-0.26919203996658325,0.3764086663722992,-0.5395168662071228,-9.7791748046875
1745660751.247484,0.02585550583899021,-0.013033163733780384,-0.27132469415664673,0.29369983077049255,-0.783703625202179,-9.843536376953125
1745660751.2514932,0.024332450702786446,-0.01570756360888481,-0.2688440978527069,0.47751784324645996,-0.6889938712120056,-9.541948318481445
1745660751.2515852,0.024451404809951782,-0.015486407093703747,-0.27031052112579346,0.3785780668258667,-0.8191877603530884,-9.617776870727539
1745660751.288691,0.01852015033364296,-0.019596103578805923,-0.26936665177345276,0.5344737768173218,-0.8660637736320496,-9.886740684509277
1745660751.2908587,0.015302637591958046,-0.014375085011124611,-0.2679501175880432,0.3736819624900818,-0.6630186438560486,-9.911107063293457
1745660751.2929406,-0.0269450843334198,-0.044140733778476715,-0.23179444670677185,-0.6626905202865601,-1.1820809841156006,-10.303327560424805
1745660751.2938402,-0.028881723061203957,-0.014598068781197071,-0.2349729835987091,-0.49217599630355835,-0.669607937335968,-9.623228073120117
1745660751.3303826,-0.06447835266590118,-0.02375328354537487,-0.23662249743938446,-0.10483501851558685,-0.5586365461349487,-8.962578773498535
1745660751.3329048,-0.057262152433395386,-0.05147190019488335,-0.2370513379573822,0.34535425901412964,-0.8945198059082031,-9.876606941223145
1745660751.3363628,-0.0664369985461235,-0.05016655474901199,-0.22804144024848938,0.42808064818382263,-0.660980761051178,-10.953859329223633
1745660751.3388195,-0.06077691912651062,-0.05610748007893562,-0.21638619899749756,0.06393460929393768,-1.0853474140167236,-10.10258960723877
1745660751.3437297,-0.045698560774326324,-0.0302954763174057,-0.1982296109199524,-0.19271482527256012,-1.0895156860351562,-8.71668529510498
1745660751.3752625,-0.0687846690416336,-0.07632513344287872,-0.18595822155475616,0.09913304448127747,-0.5508007407188416,-9.087067604064941
1745660751.3787878,-0.026069749146699905,-0.061463214457035065,-0.18378913402557373,0.2421122044324875,-0.18752318620681763,-10.77824592590332
1745660751.3818793,-0.012812602333724499,-0.04892657697200775,-0.18936166167259216,-0.32988590002059937,0.07275108247995377,-10.615936279296875
1745660751.3860714,0.002827312098816037,-0.06606052815914154,-0.1939857006072998,-0.2513104975223541,-0.5420941114425659,-8.687520980834961
1745660751.4164374,-0.011177055537700653,-0.06173685938119888,-0.19515860080718994,-0.1152428388595581,-0.5778771638870239,-8.820992469787598
1745660751.4216204,-0.06153993681073189,-0.08192344009876251,-0.19293507933616638,-0.02946879342198372,-1.43070387840271,-10.749624252319336
1745660751.4254887,-0.08330805599689484,-0.008048848249018192,-0.04539500176906586,0.14754469692707062,0.07711483538150787,-9.830403327941895
1745660751.4294348,-0.09199269115924835,-0.014049118384718895,-0.03927243873476982,0.09248504787683487,-0.13875624537467957,-8.201117515563965
1745660751.458862,-0.08021876960992813,-0.0334506556391716,-0.0419793538749218,0.3344647288322449,0.13533630967140198,-9.583475112915039
1745660751.4627728,-0.0862308070063591,-0.01727139949798584,-0.04026264697313309,0.778564989566803,-0.40763312578201294,-11.32042121887207
1745660751.4629796,-0.10318753868341446,0.0042090509086847305,-0.03850157931447029,0.6252695918083191,-0.5955439209938049,-10.305238723754883
1745660751.4639194,-0.1183401346206665,-0.004268783610314131,-0.028828898444771767,0.5462298393249512,-0.7404621243476868,-8.612114906311035
1745660751.4674025,-0.15373966097831726,-0.020968811586499214,-0.019190318882465363,0.916552722454071,-0.611366868019104,-9.364084243774414
1745660751.5029438,-0.1303916573524475,-0.0019444481004029512,-0.008725919760763645,0.7527856230735779,-0.18882763385772705,-11.022795677185059
1745660751.5085962,-0.11155076324939728,0.012714356184005737,0.0007508872076869011,0.5806354284286499,0.04557860642671585,-10.394198417663574
1745660751.5111332,-0.06559742987155914,0.003454735968261957,0.004408875945955515,-0.004096639342606068,0.4265596270561218,-8.88142204284668
1745660751.5151515,-0.04291917756199837,0.014281128533184528,0.010626165196299553,-0.026755783706903458,0.0800432413816452,-9.150152206420898
1745660751.5476332,-0.01838040165603161,0.013592386618256569,0.014236058108508587,0.1731337308883667,-0.034348417073488235,-10.345536231994629
1745660751.5515654,0.006186367012560368,0.031971078366041183,0.01623374968767166,0.0894484668970108,-0.2606978118419647,-10.361043930053711
1745660751.5529003,-0.026711981743574142,0.03640438988804817,0.021277185529470444,0.16450192034244537,-0.8418892621994019,-9.385682106018066
1745660751.5555546,-0.03803994134068489,0.036491550505161285,0.02730673924088478,0.3360472619533539,-1.072545051574707,-9.116355895996094
1745660751.5882232,-0.10412762314081192,0.03681673854589462,0.03548479080200195,0.7817848920822144,-1.364727258682251,-10.013599395751953
1745660751.5907443,-0.14262835681438446,0.036484118551015854,0.040906183421611786,0.6504552960395813,-1.3274933099746704,-10.631132125854492
1745660751.5919333,-0.1814558506011963,0.05074561759829521,0.05216812342405319,0.5580679178237915,-1.2447150945663452,-9.833395004272461
1745660751.5934289,-0.22252257168293,0.04110874980688095,0.059821177273988724,0.37349438667297363,-0.7843447923660278,-9.173178672790527
1745660751.5964983,-0.22609713673591614,0.040707286447286606,0.06210872530937195,0.22674734890460968,-0.31763070821762085,-9.67712116241455
1745660751.6321144,-0.22149741649627686,0.045676738023757935,0.06689649820327759,0.3642214834690094,-0.01819736883044243,-10.352124214172363
1745660751.635904,-0.18146678805351257,0.060299795120954514,0.07165607810020447,0.0485047809779644,0.5135652422904968,-10.031786918640137
1745660751.6409044,-0.07542218267917633,0.06507702171802521,0.09353964030742645,0.4015416204929352,-0.3457743525505066,-9.198610305786133
1745660751.644,-0.09062766283750534,0.05703388899564743,0.09975512325763702,0.6814136505126953,-0.42930278182029724,-9.27631664276123
1745660751.6755881,-0.10201451927423477,0.053725194185972214,0.09931148588657379,0.44418200850486755,-0.34727364778518677,-10.379181861877441
1745660751.6769388,-0.12619554996490479,0.06492944061756134,0.1013491302728653,0.5093129873275757,-0.4714994430541992,-10.189659118652344
1745660751.6798546,-0.13226787745952606,0.06659089773893356,0.1026613712310791,0.26372000575065613,-0.3607737720012665,-9.234718322753906
1745660751.681268,-0.1506902128458023,0.0630970224738121,0.10573500394821167,0.3053048253059387,-0.49114465713500977,-9.283769607543945
1745660751.7179673,-0.16710308194160461,0.05835921689867973,0.11446429789066315,0.43640726804733276,-0.47482579946517944,-10.110136032104492
1745660751.7202573,-0.14739862084388733,0.07517451047897339,0.12050299346446991,0.3471396565437317,-0.3254924416542053,-10.185919761657715
1745660751.7223284,-0.15971145033836365,0.07163254171609879,0.12949886918067932,0.40646713972091675,-0.29327625036239624,-9.38679027557373
1745660751.7223668,-0.1456488072872162,0.06382196396589279,0.13371476531028748,0.2918509840965271,-0.10536611080169678,-9.280279159545898
1745660751.7249126,-0.15373292565345764,0.06904465705156326,0.13862183690071106,0.5935467481613159,-0.2733820676803589,-9.974905967712402
1745660751.761047,-0.14366507530212402,0.0709432065486908,0.14034196734428406,0.4253048300743103,-0.019060848280787468,-10.232246398925781
1745660751.7641444,-0.14808067679405212,0.07470829784870148,0.1425710767507553,0.38613981008529663,-0.18156294524669647,-9.563040733337402
1745660751.7687435,-0.14628371596336365,0.014907571487128735,0.22866685688495636,0.4241253435611725,0.34199243783950806,-10.060884475708008
1745660751.8055458,-0.15410199761390686,0.013440792448818684,0.2308271825313568,0.5827402472496033,0.08325263112783432,-9.76485538482666
1745660751.808367,-0.14583811163902283,0.009719411842525005,0.23486950993537903,0.4859999716281891,0.311349481344223,-9.435860633850098
1745660751.8105023,-0.16118280589580536,0.011177114211022854,0.2374415099620819,0.562045693397522,0.11665210872888565,-9.668478012084961
1745660751.8139493,-0.15688130259513855,-0.002545782830566168,0.23631064593791962,0.6294571161270142,0.28166696429252625,-9.91618537902832
1745660751.8464024,-0.15469272434711456,0.007741071283817291,0.2379593402147293,0.49672383069992065,0.3148600459098816,-9.841672897338867
1745660751.8502018,-0.1567705273628235,-0.000566201691981405,0.240665465593338,0.5462228059768677,0.28019797801971436,-9.543906211853027
1745660751.855189,-0.15176361799240112,-0.0033004176802933216,0.2409580945968628,0.29397302865982056,0.41328492760658264,-9.63684368133545
1745660751.8585064,-0.149710014462471,-0.003546713385730982,0.24351081252098083,0.622449517250061,0.1579940766096115,-9.782952308654785
1745660751.8623857,-0.14273704588413239,-0.0027106855995953083,0.2461298406124115,0.46101313829421997,0.4307706952095032,-9.844279289245605
1745660751.8983858,-0.13485470414161682,-0.003293751273304224,0.24922797083854675,0.4821139872074127,0.2914808392524719,-9.690661430358887
1745660751.9008117,-0.1407262533903122,-0.016486583277583122,0.2503679096698761,0.500386118888855,0.30219486355781555,-9.619598388671875
1745660751.9021654,-0.1284865140914917,-0.007220438681542873,0.2535324692726135,0.40011483430862427,0.23266366124153137,-9.803228378295898
1745660751.9035916,-0.1499231904745102,-0.010936028324067593,0.2525443434715271,0.548239529132843,0.1963406503200531,-9.790885925292969
1745660751.9331222,-0.14240334928035736,-0.019063051789999008,0.2552151679992676,0.40931978821754456,0.21525339782238007,-9.717727661132812
1745660751.9371152,-0.15335842967033386,-0.015405284240841866,0.2572854459285736,0.661714494228363,0.18480785191059113,-9.679577827453613
1745660751.9402072,-0.16253729164600372,-0.019819017499685287,0.2582545876502991,0.38482072949409485,0.3154144287109375,-9.866966247558594
1745660751.9415636,-0.1626807004213333,-0.016848498955368996,0.2579786479473114,0.49008065462112427,0.18144313991069794,-9.750834465026855
1745660751.9428105,-0.16625356674194336,-0.02564248815178871,0.2615496516227722,0.6050989031791687,0.39772161841392517,-9.536718368530273
1745660751.9853573,-0.15878327190876007,-0.015618318691849709,0.26463645696640015,0.3727897107601166,0.3345359265804291,-9.839017868041992
1745660751.9854653,-0.1536661684513092,-0.02805226668715477,0.26834946870803833,0.5518691539764404,0.4846687912940979,-9.823888778686523
1745660751.9855413,-0.14422932267189026,-0.02610553801059723,0.26957759261131287,0.4051389694213867,0.5389187335968018,-9.786203384399414
1745660751.9906206,-0.14694999158382416,-0.034303102642297745,0.27671390771865845,0.5470976829528809,0.30587419867515564,-9.725932121276855
1745660752.0210981,-0.14630873501300812,-0.029566142708063126,0.2785643935203552,0.40232938528060913,0.34708574414253235,-9.635692596435547
1745660752.0230656,-0.15107880532741547,-0.031322259455919266,0.2818533778190613,0.5614531636238098,0.25238707661628723,-9.785102844238281
1745660752.0252767,-0.14857180416584015,-0.04187953472137451,0.282169908285141,0.4116519093513489,0.5878458023071289,-9.888409614562988
1745660752.026437,-0.14399167895317078,-0.033971935510635376,0.28484711050987244,0.4610142707824707,0.3759133517742157,-9.882560729980469
1745660752.0672417,-0.14256033301353455,-0.03301936015486717,0.2836443781852722,0.36693429946899414,0.6129948496818542,-9.6450777053833
1745660752.0672812,-0.14415620267391205,-0.036177389323711395,0.28673994541168213,0.27779167890548706,0.3926401734352112,-9.68724250793457
1745660752.0717206,-0.13683077692985535,-0.04063989594578743,0.28635933995246887,0.5992448329925537,0.4931466579437256,-9.80377197265625
1745660752.0732503,-0.14210577309131622,-0.031958214938640594,0.28918492794036865,0.3198910653591156,0.5336885452270508,-9.99182415008545
1745660752.1062818,-0.1421751230955124,-0.03735577315092087,0.28759899735450745,0.4746733605861664,0.3218577206134796,-9.747603416442871
1745660752.1096768,-0.14276187121868134,-0.039730388671159744,0.2917570173740387,0.41328245401382446,0.541577935218811,-9.532341003417969
1745660752.1124368,-0.14566870033740997,-0.029161933809518814,0.292949378490448,0.5180785059928894,0.35629698634147644,-9.815633773803711
1745660752.1164076,-0.14293751120567322,-0.0391179583966732,0.2954442799091339,0.43934911489486694,0.5423437356948853,-10.000238418579102
1745660752.1206286,-0.1378190815448761,-0.034407030791044235,0.2967345118522644,0.3830767273902893,0.5752884149551392,-9.763611793518066
1745660752.1481204,-0.11666189134120941,-0.022060703486204147,0.31840771436691284,0.4809216856956482,0.6161075830459595,-9.621011734008789
1745660752.1522439,-0.12409213930368423,-0.021909240633249283,0.32071858644485474,0.40060415863990784,0.8325262069702148,-9.811755180358887
1745660752.1566875,-0.11967620998620987,-0.020301179960370064,0.31996262073516846,0.35737714171409607,0.572240948677063,-9.975187301635742
1745660752.1586275,-0.11937197297811508,-0.026990612968802452,0.3216014504432678,0.5340535044670105,0.8675495386123657,-9.676422119140625
1745660752.1904564,-0.11694671958684921,-0.016944434493780136,0.3227737545967102,0.308464914560318,0.7550562024116516,-9.759653091430664
1745660752.1937528,-0.11626992374658585,-0.019497569650411606,0.3235560357570648,0.41101741790771484,0.7013157606124878,-9.795924186706543
1745660752.1976025,-0.10515735298395157,-0.022962864488363266,0.32340124249458313,0.3359141945838928,0.872538685798645,-9.75151252746582
1745660752.2022383,-0.11882046610116959,-0.016862347722053528,0.32314977049827576,0.5235660076141357,0.6838575601577759,-9.75526237487793
1745660752.2052877,-0.10812811553478241,-0.023008249700069427,0.32275137305259705,0.36322012543678284,0.8568546175956726,-9.827451705932617
1745660752.2346358,-0.11409737169742584,-0.01862543635070324,0.32433241605758667,0.3215450644493103,0.6893452405929565,-9.837438583374023
1745660752.236,-0.11787569522857666,-0.022312792018055916,0.3230323791503906,0.5058155655860901,0.7210996747016907,-9.659538269042969
1745660752.237387,-0.1206953302025795,-0.014012855477631092,0.3242567181587219,0.3681747317314148,0.7938331961631775,-9.728013038635254
1745660752.2411184,-0.13047181069850922,-0.02431211806833744,0.3241822123527527,0.524144172668457,0.5746436715126038,-9.83727741241455
1745660752.2768154,-0.11454115062952042,-0.022242143750190735,0.3242054581642151,0.40241265296936035,0.9496105313301086,-9.749643325805664
1745660752.2798922,-0.12962189316749573,-0.014250466600060463,0.32541975378990173,0.47054558992385864,0.7159866094589233,-9.76661205291748
1745660752.28142,-0.11369993537664413,-0.024675270542502403,0.3285365700721741,0.2975042462348938,0.927435040473938,-9.728515625
1745660752.284954,-0.11049066483974457,-0.01831960119307041,0.32673823833465576,0.4259929656982422,0.8045309782028198,-9.655468940734863
1745660752.2861636,-0.11641810089349747,-0.018691744655370712,0.3279586434364319,0.47411394119262695,0.9207927584648132,-9.772918701171875
1745660752.3217964,-0.09906121343374252,-0.016709187999367714,0.326416015625,0.3449482321739197,0.9641064405441284,-9.870073318481445
1745660752.324051,-0.11184831708669662,-0.02421610616147518,0.3288232386112213,0.5153504610061646,0.7938653826713562,-9.74755859375
1745660752.325884,-0.09057791531085968,-0.020139534026384354,0.32537364959716797,0.350145161151886,0.9715507626533508,-9.685380935668945
1745660752.3275747,-0.11763931810855865,-0.015205517411231995,0.3268358111381531,0.49531465768814087,0.7235241532325745,-9.738784790039062
1745660752.365888,-0.10540100187063217,-0.028112728148698807,0.32580605149269104,0.4202425479888916,0.8005329370498657,-9.751870155334473
1745660752.3698328,-0.10806262493133545,-0.02682816982269287,0.33066877722740173,0.6194348335266113,0.8817947506904602,-9.564424514770508
1745660752.3739822,-0.09615757316350937,-0.015500849112868309,0.33080607652664185,0.3210453987121582,1.0247409343719482,-9.888036727905273
1745660752.3754768,-0.09862227737903595,-0.019070645794272423,0.33157965540885925,0.44154709577560425,0.9212005734443665,-9.868780136108398
1745660752.4076207,-0.08996478468179703,-0.027654733508825302,0.32835331559181213,0.367933988571167,0.9655612707138062,-9.60521125793457
1745660752.4097507,-0.08234304934740067,-0.0169649887830019,0.33192652463912964,0.44566306471824646,0.900504469871521,-9.564489364624023
1745660752.4118257,-0.10178284347057343,-0.02112358808517456,0.33136186003685,0.4208289086818695,0.8832343220710754,-9.83050537109375
1745660752.4132054,-0.08418238908052444,-0.02376083843410015,0.32957231998443604,0.40801095962524414,0.7880190014839172,-9.849836349487305
1745660752.4504876,-0.09685265272855759,-0.022554194554686546,0.33112725615501404,0.6482905149459839,0.9524167776107788,-9.556047439575195
1745660752.453457,-0.09424970299005508,-0.019263016059994698,0.33224961161613464,0.2588907480239868,0.9015247225761414,-9.816353797912598
1745660752.4570217,-0.09033159166574478,-0.02611059509217739,0.33152976632118225,0.47344961762428284,0.8572085499763489,-9.773405075073242
1745660752.4590297,-0.08744535595178604,-0.02542288973927498,0.33313173055648804,0.4401277005672455,0.993363082408905,-9.61967658996582
1745660752.4635358,-0.0858478918671608,-0.01698191836476326,0.3329818844795227,0.41841545701026917,0.8466731905937195,-9.711247444152832
1745660752.4926348,-0.08805233985185623,-0.030490994453430176,0.3310180902481079,0.3897426724433899,1.0800025463104248,-9.799838066101074
1745660752.494743,-0.037833455950021744,-0.03478020802140236,0.3287428319454193,0.29570868611335754,0.9575700759887695,-9.822145462036133
1745660752.495987,-0.02037862502038479,-0.032693248242139816,0.32804301381111145,0.5432262420654297,0.9767457842826843,-9.617718696594238
1745660752.4983351,-0.04892516881227493,-0.03239993378520012,0.3287200927734375,0.30724674463272095,1.044266939163208,-9.76478385925293
1745660752.535188,-0.023867866024374962,-0.033324550837278366,0.3269122540950775,0.43304377794265747,0.9075132608413696,-9.790021896362305
1745660752.5375721,-0.03627218306064606,-0.038657356053590775,0.32959872484207153,0.5105464458465576,1.0792620182037354,-9.6681489944458
1745660752.541094,-0.030291805043816566,-0.025838637724518776,0.3275408148765564,0.282804399728775,1.0459105968475342,-9.746355056762695
1745660752.544692,-0.02950051799416542,-0.033309996128082275,0.3284599184989929,0.46662139892578125,0.8674482107162476,-9.687705993652344
1745660752.5477405,-0.030671119689941406,-0.03258482366800308,0.32777103781700134,0.37626200914382935,1.1082324981689453,-9.596071243286133
1745660752.5799353,-0.02531358227133751,-0.033642612397670746,0.3282867670059204,0.5352423191070557,0.9189485311508179,-9.776161193847656
1745660752.583298,-0.03343012183904648,-0.03335592523217201,0.3287093937397003,0.3268590569496155,1.154253363609314,-9.93237018585205
1745660752.5877037,-0.02581246756017208,-0.03166092559695244,0.32710281014442444,0.42722997069358826,0.8830512762069702,-9.724626541137695
1745660752.5881803,-0.023186221718788147,-0.03768959641456604,0.32747286558151245,0.5087761282920837,1.0759093761444092,-9.420059204101562
1745660752.6221783,-0.032873306423425674,-0.030972078442573547,0.32816988229751587,0.28589239716529846,1.0177054405212402,-9.847986221313477
1745660752.6233215,-0.026602044701576233,-0.03949664905667305,0.3270709812641144,0.5099784731864929,0.8629428148269653,-9.972216606140137
1745660752.624883,-0.02419847622513771,-0.03137574344873428,0.3260531425476074,0.3360288441181183,1.1784099340438843,-9.59394645690918
1745660752.6262841,-0.02635939046740532,-0.030510295182466507,0.32889217138290405,0.4263179302215576,0.9326462745666504,-9.553112983703613
1745660752.6289208,-0.022013114765286446,-0.04125852510333061,0.3270348906517029,0.355781227350235,1.050249457359314,-9.800886154174805
1745660752.6670673,-0.016952458769083023,-0.02731386199593544,0.3306075930595398,0.5032387971878052,0.9573615789413452,-9.845916748046875
1745660752.6686673,-0.023378577083349228,-0.03332270681858063,0.3279739022254944,0.3829210102558136,1.049058198928833,-9.652088165283203
