timestamp,angular_vel_x,angular_vel_y,angular_vel_z,linear_acc_x,linear_acc_y,linear_acc_z
1745734830.426451,0.017734933644533157,0.0009798092069104314,0.012477684766054153,0.3688107132911682,-0.1726539433002472,-9.775650978088379
1745734830.4265227,0.031001001596450806,-0.0022100729402154684,0.010328886099159718,0.21494154632091522,0.04503335431218147,-9.765416145324707
1745734830.4265687,0.02383306995034218,0.004251696635037661,0.012350575067102909,0.37236282229423523,-0.27001816034317017,-9.808865547180176
1745734830.4266074,0.026781756430864334,0.0010584542760625482,0.011423135176301003,0.30779793858528137,0.0774853527545929,-9.754911422729492
1745734830.4266489,0.028067896142601967,0.0023120020050555468,0.010018608532845974,0.37074214220046997,-0.2774399518966675,-9.840554237365723
1745734830.4433515,0.016758179292082787,-0.001905984478071332,0.008315764367580414,0.4200291037559509,-0.10817892849445343,-9.806678771972656
1745734830.4453902,0.025110740214586258,0.004190182313323021,0.006970309652388096,0.28767046332359314,-0.22174827754497528,-9.852198600769043
1745734830.450187,0.0015420418931171298,0.0010576002532616258,0.008967122994363308,0.4418675899505615,-0.2772308588027954,-9.770012855529785
1745734830.4524603,0.015133736655116081,0.0009096799185499549,0.007640215568244457,0.2543177306652069,-0.07177761942148209,-9.731501579284668
1745734830.4964142,-0.0015954173868522048,0.00254594418220222,0.007562121842056513,0.40427684783935547,-0.2962532937526703,-9.85462760925293
1745734830.4980335,0.005761035718023777,-0.0006700486992485821,0.007081789430230856,0.2668761909008026,0.08801721781492233,-9.826157569885254
1745734830.5007336,0.0037375795654952526,0.0055952416732907295,0.003443989437073469,0.3463623523712158,-0.28125813603401184,-9.8215970993042
1745734830.5034428,0.011138347908854485,0.0024369671009480953,0.005590365268290043,0.2213178426027298,0.04080362245440483,-9.747297286987305
1745734830.528764,0.0006262505194172263,0.006356514059007168,0.0043777842074632645,0.3837350308895111,-0.29229500889778137,-9.85490894317627
1745734830.5306742,0.004966523498296738,0.003582822857424617,0.0020696669816970825,0.2634870409965515,0.038119085133075714,-9.760895729064941
1745734830.5321922,0.0026053376495838165,0.0070786974392831326,0.005686881951987743,0.3256492614746094,-0.3011658787727356,-9.780529975891113
1745734830.5441248,-0.0019748781342059374,0.0006533608539029956,0.005112492013722658,0.3381718695163727,-0.024424370378255844,-9.701967239379883
1745734830.5441782,0.006499925162643194,0.006017930805683136,0.004199885297566652,0.2585621476173401,-0.1601966768503189,-9.824644088745117
1745734830.572765,-0.0071150632575154305,0.0028766714967787266,0.0059630051255226135,0.4001147747039795,-0.10521139204502106,-9.778692245483398
1745734830.57447,0.00912123266607523,0.0045991381630301476,0.004054678604006767,0.2384968250989914,0.00336249778047204,-9.752604484558105
1745734830.5779548,-0.004484540317207575,0.004663518629968166,0.004436503164470196,0.38303685188293457,-0.22300143539905548,-9.767376899719238
1745734830.5816061,0.007489780895411968,0.002620366169139743,0.00525262113660574,0.2480623424053192,0.027092885226011276,-9.770577430725098
1745734830.6123676,0.0047360495664179325,0.005835965741425753,0.004775127861648798,0.3425511419773102,-0.27241140604019165,-9.81678581237793
1745734830.6158333,0.004011016804724932,0.0010678207036107779,0.00544745521619916,0.3243353068828583,0.04876495152711868,-9.708147048950195
1745734830.6176825,0.012869814410805702,0.006408760789781809,0.006797766778618097,0.2735908031463623,-0.17788180708885193,-9.80842399597168
1745734830.619928,-0.0013384366175159812,0.0014702127082273364,0.004285464063286781,0.38101470470428467,-0.0709744468331337,-9.773102760314941
1745734830.6303446,0.015072283335030079,0.00412798160687089,0.004660404287278652,0.24827232956886292,-0.08647771179676056,-9.770139694213867
1745734830.659206,6.207319529494271e-05,0.003935470711439848,0.0020523821003735065,0.4199430048465729,-0.20378771424293518,-9.73752212524414
1745734830.6608357,0.004870724864304066,-0.0007898909971117973,0.011669667437672615,0.2610774636268616,0.04113783687353134,-9.768019676208496
1745734830.6629255,-0.004054444842040539,0.0020424870308488607,0.010954568162560463,0.38320392370224,-0.2567213177680969,-9.803013801574707
1745734830.6641977,0.0016331259394064546,-0.002550274133682251,0.011192554607987404,0.30764856934547424,0.08707700669765472,-9.747278213500977
1745734830.7015905,0.004740654490888119,0.0016811920795589685,0.01094873808324337,0.3412836194038391,-0.2332182675600052,-9.792207717895508
1745734830.7045655,-0.004231092985719442,-0.003701571375131607,0.012571878731250763,0.3826678395271301,-0.014497289434075356,-9.739980697631836
1745734830.7081304,0.01201130822300911,0.00139153643976897,0.010432890616357327,0.2835359275341034,-0.1398969441652298,-9.809687614440918
1745734830.70992,-0.003863085061311722,0.0006596017628908157,0.011332085356116295,0.4009023606777191,-0.18136045336723328,-9.769221305847168
1745734830.74123,0.009908032603561878,-0.0005368408747017384,0.011313374154269695,0.24533435702323914,-0.01655609905719757,-9.734004974365234
1745734830.743809,-0.0032470994628965855,-0.001953836064785719,0.013041101396083832,0.41799992322921753,-0.29020705819129944,-9.810281753540039
1745734830.7472596,0.0038148872554302216,-0.0035697403363883495,0.009948255494236946,0.28724241256713867,0.024649912491440773,-9.79594898223877
1745734830.7477925,-0.002197104739025235,0.0017909992020577192,0.012567825615406036,0.350881963968277,-0.3292526304721832,-9.795263290405273
1745734830.7505865,-0.008254118263721466,-0.004705643281340599,0.011509556323289871,0.3490539789199829,-0.01984890177845955,-9.70982551574707
1745734830.7862475,0.0005706239608116448,0.0011315776500850916,0.010509266518056393,0.2789066433906555,-0.22339077293872833,-9.814069747924805
1745734830.7906575,-0.017618758603930473,-0.0033550760708749294,0.01027931459248066,0.3976820111274719,-0.1501714289188385,-9.77894401550293
1745734830.7962182,0.0012357649393379688,-0.0018933902028948069,0.011274333111941814,0.24597220122814178,-0.07657261937856674,-9.776406288146973
1745734830.7995307,-0.016930032521486282,-0.0022036258596926928,0.01059949304908514,0.42527833580970764,-0.258299857378006,-9.781988143920898
1745734830.8275697,-0.0033077411353588104,-0.006675382144749165,0.011300983838737011,0.2640441656112671,0.057912446558475494,-9.769452095031738
1745734830.8318663,-0.010495252907276154,0.0012022980954498053,0.012440630234777927,0.3647867441177368,-0.246364027261734,-9.836870193481445
1745734830.8360572,-0.008038032799959183,-0.006412632763385773,0.010896725580096245,0.31175345182418823,0.08296410739421844,-9.708940505981445
1745734830.8393416,-0.0019945153035223484,0.0003370294871274382,0.011945842765271664,0.29267004132270813,-0.2079821079969406,-9.790170669555664
1745734830.8736656,-0.009539777413010597,-0.0006911581149324775,0.011102942749857903,0.39030104875564575,-0.23181016743183136,-9.789041519165039
1745734830.8764603,2.9902905225753784e-05,-0.0016993314493447542,0.011129459366202354,0.2674267888069153,0.10402653366327286,-9.77478313446045
1745734830.8778687,-0.0020770407281816006,0.001520652207545936,0.01117699034512043,0.34759852290153503,-0.27070021629333496,-9.820706367492676
1745734830.8793306,-0.00524756358936429,-0.002455764217302203,0.01128139067441225,0.32966774702072144,0.02439688704907894,-9.71899700164795
1745734830.8824513,0.004490305669605732,-0.00022804769105277956,0.010070059448480606,0.2709392309188843,-0.15526637434959412,-9.809985160827637
1745734830.9172993,-0.010239112190902233,-0.0023971020709723234,0.01051644142717123,0.3814590871334076,-0.07991045713424683,-9.769442558288574
1745734830.9192388,0.008280780166387558,-0.0029976204968988895,0.012597587890923023,0.23601321876049042,-0.05778614431619644,-9.797250747680664
1745734830.9253197,-0.008449027314782143,-0.00017004864639602602,0.01067349687218666,0.3827882707118988,-0.2162061631679535,-9.788384437561035
1745734830.9253833,0.0025174554903060198,-0.0027264063246548176,0.009484653361141682,0.2454567849636078,0.058800626546144485,-9.755285263061523
1745734830.962162,-0.005064734723418951,0.0015020230785012245,0.0096615981310606,0.34808748960494995,-0.2615104615688324,-9.820908546447754
1745734830.9631865,-0.0017341983038932085,-0.004426865838468075,0.01143823191523552,0.3110963702201843,0.05807124450802803,-9.753532409667969
1745734830.9848285,0.0031605821568518877,0.0015184751246124506,0.011979570612311363,0.296673059463501,-0.22465935349464417,-9.810880661010742
1745734830.9854891,-0.009506331756711006,-0.002981567056849599,0.010417861863970757,0.3662971556186676,-0.04015866667032242,-9.767866134643555
1745734830.9855726,0.0062291924841701984,0.00014878266665618867,0.011328576132655144,0.23648259043693542,-0.10897382348775864,-9.81296443939209
1745734831.0662553,-0.01018762867897749,-0.0013245095033198595,0.011543299071490765,0.39678308367729187,-0.17588487267494202,-9.752664566040039
1745734831.0662963,0.003498326987028122,-0.003760614898055792,0.01200072281062603,0.22465971112251282,0.0013819128507748246,-9.788955688476562
1745734831.1003706,-0.0028540492057800293,-0.002803592476993799,0.009419436566531658,0.3236928880214691,0.05795198678970337,-9.755777359008789
1745734831.1542907,0.008315707556903362,0.003458355087786913,0.010332777164876461,0.26130539178848267,-0.1315213441848755,-9.820597648620605
1745734831.1563463,-0.005130328703671694,-0.0009227743139490485,0.008970042690634727,0.39269763231277466,-0.0849260613322258,-9.785117149353027
1745734831.1671088,0.009802852757275105,0.0006483510369434953,0.010382464155554771,0.24722325801849365,-0.004528227262198925,-9.805938720703125
1745734831.1689856,-0.003779066726565361,-3.209384203728405e-06,0.009023631922900677,0.4108051359653473,-0.24316906929016113,-9.793691635131836
1745734831.1792767,0.0053493003360927105,-0.0001356988213956356,0.010693410411477089,0.28007107973098755,0.04477710276842117,-9.759087562561035
1745734831.183336,-0.0003296246868558228,0.002478248905390501,0.010733752511441708,0.3771416246891022,-0.2592484652996063,-9.835607528686523
1745734831.1971843,-0.0014730244874954224,-0.0017687209183350205,0.012140852399170399,0.3227059543132782,0.05713806301355362,-9.744885444641113
1745734831.2077203,0.004116073250770569,0.004015124402940273,0.010784590616822243,0.29945945739746094,-0.16368070244789124,-9.81612777709961
1745734831.2078109,-0.002935191849246621,-0.0017103847349062562,0.009606260806322098,0.3868122696876526,-0.021488085389137268,-9.759635925292969
1745734831.2081847,0.01058516651391983,0.0009876033291220665,0.01110370084643364,0.2387080192565918,-0.03390883281826973,-9.804510116577148
1745734831.217015,-0.0031219893135130405,0.0017148982733488083,0.008326539769768715,0.4074833393096924,-0.15612685680389404,-9.78820514678955
1745734831.2181456,0.01137351430952549,0.0015682060038670897,0.009772366844117641,0.23189139366149902,0.09183521568775177,-9.768651008605957
1745734831.2338583,0.0035847052931785583,0.003963343799114227,0.009730884805321693,0.3751530349254608,-0.24030165374279022,-9.814512252807617
1745734831.2463825,0.007439038250595331,-0.0009914832189679146,0.011262517422437668,0.3040838837623596,0.08181480318307877,-9.75664234161377
1745734831.2467756,0.011272753588855267,0.0037459530867636204,0.008657875470817089,0.32119160890579224,-0.2316206991672516,-9.838400840759277
1745734831.2495975,0.0007419033208861947,-0.00032174898660741746,0.009940097108483315,0.3607923686504364,-0.00448990473523736,-9.744893074035645
1745734831.2652552,0.015476757660508156,0.0033699132036417723,0.008663179352879524,0.2563292980194092,-0.123777374625206,-9.811638832092285
1745734831.2930777,-0.0034301485866308212,0.0008734306320548058,0.00937813799828291,0.40243738889694214,-0.13323727250099182,-9.778220176696777
1745734831.293141,0.016143519431352615,0.0017029226291924715,0.009409460239112377,0.23895397782325745,0.012645226903259754,-9.783565521240234
1745734831.3025687,0.0002496487577445805,0.0020737405866384506,0.009450777433812618,0.3831992447376251,-0.21784210205078125,-9.809954643249512
1745734831.3045232,0.009278150275349617,0.004555138759315014,0.007527966983616352,0.3634661138057709,-0.26479461789131165,-9.827313423156738
1745734831.3164465,0.009600033983588219,-0.002983205718919635,0.007650384213775396,0.3068200647830963,0.045321132987737656,-9.756322860717773
1745734831.3187373,0.014475162141025066,0.0051019140519201756,0.008302469737827778,0.30032879114151,-0.22849459946155548,-9.816740036010742
1745734831.333888,0.0036049378104507923,0.0005538269761018455,0.008614527061581612,0.38586100935935974,-0.04411442205309868,-9.75523853302002
1745734831.335719,0.016899170354008675,0.002611609175801277,0.009108458645641804,0.25015974044799805,-0.08250415325164795,-9.800313949584961
1745734831.3370516,0.0016231182962656021,0.001805947395041585,0.007806716021150351,0.40845948457717896,-0.1700393259525299,-9.762434005737305
1745734831.3382547,0.018399903550744057,-0.0018213760340586305,0.009614145383238792,0.23029354214668274,0.03734656050801277,-9.767428398132324
1745734831.3407004,0.003979409579187632,0.0037836977280676365,0.007971903309226036,0.37662968039512634,-0.26218581199645996,-9.78600025177002
1745734831.342896,0.013388234190642834,-0.0010157309006899595,0.008672003634274006,0.2744081914424896,0.05208338424563408,-9.75537395477295
1745734831.3431802,0.011214770376682281,0.002094784053042531,0.008731825277209282,0.3074062764644623,-0.2502973675727844,-9.819636344909668
1745734831.344576,0.004126471467316151,-0.0027623665519058704,0.00837358646094799,0.3490792214870453,0.003920014016330242,-9.737421989440918
1745734831.3467624,0.014188891276717186,0.0015568315284326673,0.008739174343645573,0.26459842920303345,-0.16900798678398132,-9.798567771911621
1745734831.3482702,-0.00116485555190593,-0.0022280507255345583,0.007174425758421421,0.41241058707237244,-0.12885335087776184,-9.763566970825195
1745734831.3513794,0.016712961718440056,-0.0006904677138663828,0.007429338991641998,0.2362048178911209,-0.023201625794172287,-9.769241333007812
1745734831.3758554,0.0012011019280180335,5.1247887313365936e-05,0.007744780741631985,0.4154582917690277,-0.21231012046337128,-9.794469833374023
1745734831.3772516,0.006467662751674652,0.02434244379401207,-0.01586145907640457,0.44756507873535156,-0.07236828655004501,-10.473236083984375
1745734831.3957665,0.04475173354148865,0.018548445776104927,-0.018171783536672592,0.18874646723270416,0.13232707977294922,-9.119282722473145
1745734831.4135728,0.03314588591456413,0.007833999581634998,-0.021159058436751366,0.40538495779037476,0.058279313147068024,-8.874040603637695
1745734831.4153676,0.03790099546313286,0.006124111823737621,-0.029380062595009804,0.5008243322372437,0.1972927749156952,-10.35655403137207
1745734831.4158628,0.07073905318975449,0.022544551640748978,-0.03287873789668083,0.27164292335510254,-0.042936455458402634,-10.681488037109375
1745734831.4351373,0.04518517851829529,0.027669042348861694,-0.029003113508224487,0.2804175019264221,-0.2617083191871643,-9.160568237304688
1745734831.436368,0.04129514843225479,0.00987233780324459,-0.018634360283613205,0.8256123661994934,-0.8086681365966797,-8.687413215637207
1745734831.439956,0.017003852874040604,0.008034945465624332,-0.009600515477359295,0.7358461618423462,-0.48805665969848633,-10.503728866577148
1745734831.4578261,0.005147077143192291,0.03101235255599022,-0.007874495349824429,0.47000089287757874,-0.242489293217659,-10.756617546081543
1745734831.4579012,0.008817480877041817,0.03358306735754013,-0.0028269323520362377,0.8761695623397827,-0.3197799324989319,-8.965578079223633
1745734831.4743383,-0.008784949779510498,0.011858872137963772,-0.004987763706594706,0.7013633251190186,0.4653792381286621,-8.803519248962402
1745734831.477719,0.007788524962961674,0.005398227833211422,-0.006301857531070709,0.5028191208839417,-0.12242265045642853,-10.766523361206055
1745734831.4799497,0.011913025751709938,0.019411662593483925,-0.003235145704820752,0.4002684950828552,0.37025776505470276,-10.68039608001709
1745734831.5163407,0.0429312065243721,0.035703759640455246,-0.002371669514104724,0.2205795794725418,-0.1254371851682663,-8.905606269836426
1745734831.518601,0.02367926761507988,0.005566535051912069,0.002447501290589571,0.4720582365989685,0.3254123330116272,-8.65938663482666
1745734831.520232,0.06357019394636154,0.008713372983038425,0.0033622148912400007,0.4865577816963196,0.1489069163799286,-10.562970161437988
1745734831.522205,0.09096325188875198,0.03216227889060974,0.006107380613684654,0.6207380890846252,0.09946153312921524,-10.684590339660645
1745734831.5247216,0.074520543217659,0.023848922923207283,0.01003500260412693,0.39051753282546997,-0.26664623618125916,-9.21800422668457
1745734831.562053,0.08398283272981644,0.0062002926133573055,0.013797161169350147,0.5085786581039429,-0.7301565408706665,-9.04235553741455
1745734831.5643897,0.0373443067073822,0.01623517833650112,0.017077920958399773,0.442695289850235,-0.4179007411003113,-10.312705039978027
1745734831.5658464,0.04060376435518265,0.03415257856249809,0.020529134199023247,0.2026108056306839,-0.7398210167884827,-10.478375434875488
1745734831.569541,-0.03633705526590347,0.04176342114806175,0.08132164925336838,1.0787688493728638,0.39428192377090454,-10.421194076538086
1745734831.6076741,0.004768503364175558,0.05399211496114731,0.08880648761987686,0.8731634020805359,0.2607235908508301,-8.913396835327148
1745734831.6127622,0.003381044138222933,0.030136942863464355,0.08797655999660492,1.0490459203720093,0.7557533979415894,-9.0281343460083
1745734831.6200056,0.0132667925208807,0.03144565969705582,0.08954675495624542,0.8359097242355347,0.4503559172153473,-10.701635360717773
1745734831.620058,0.06890776753425598,0.05391324684023857,0.0924379974603653,0.9185587167739868,0.2020464390516281,-10.337023735046387
1745734831.6460853,0.04350733011960983,0.0553208589553833,0.10050427913665771,0.6738808751106262,0.12696175277233124,-8.873289108276367
1745734831.6483288,0.06092299893498421,0.039149463176727295,0.11013337224721909,0.7568452954292297,-0.39406102895736694,-9.182722091674805
1745734831.6507144,0.044019971042871475,0.04702995344996452,0.12015004456043243,1.0853855609893799,-0.23653611540794373,-10.355621337890625
1745734831.652908,0.06302065402269363,0.07158119976520538,0.13001684844493866,0.7230116128921509,-0.46317344903945923,-10.363784790039062
1745734831.656254,0.02970532700419426,0.05979971960186958,0.13403016328811646,0.8996956944465637,-0.5989304780960083,-8.989686965942383
1745734831.6922526,0.014652589336037636,0.05027725175023079,0.14498959481716156,0.7591500878334045,-0.6375757455825806,-9.209948539733887
1745734831.6946025,-0.02069232612848282,0.06361250579357147,0.15185615420341492,0.7750307321548462,-0.8874409794807434,-10.410799980163574
1745734831.697324,-0.05539162829518318,0.0695386603474617,0.1557295024394989,0.634071946144104,-0.8338371515274048,-10.082574844360352
1745734831.7006736,-0.07743500173091888,0.07750412076711655,0.16473069787025452,0.7504439353942871,-0.8088544011116028,-9.038945198059082
1745734831.7332869,-0.08318892866373062,0.04223543778061867,0.3073531985282898,0.8956267237663269,0.14634379744529724,-9.733241081237793
1745734831.7357156,-0.09634679555892944,0.03452945500612259,0.31175678968429565,0.9985030889511108,-0.2822530269622803,-9.76613998413086
1745734831.7375643,-0.10169529914855957,0.03076057694852352,0.31825605034828186,1.1272398233413696,-0.06224111467599869,-9.776565551757812
1745734831.7405777,-0.09325999766588211,0.0353509895503521,0.322515606880188,0.8771883249282837,-0.03007245622575283,-9.890377044677734
1745734831.7774603,-0.1235518604516983,0.025667494162917137,0.3269377052783966,0.984404444694519,-0.2276800125837326,-9.731855392456055
1745734831.787719,-0.09906648099422455,0.027525639161467552,0.3312312662601471,0.8843388557434082,0.07619810104370117,-9.57800006866455
1745734831.787803,-0.1247824877500534,0.02674652636051178,0.3340497612953186,0.9998270869255066,-0.03966538980603218,-9.732495307922363
1745734831.7878509,-0.11577519029378891,0.017685730010271072,0.3394014537334442,0.8965981602668762,0.20780691504478455,-9.868181228637695
1745734831.8192835,-0.11266224086284637,0.020632930099964142,0.3380594849586487,1.0405988693237305,0.008119729347527027,-9.816082954406738
1745734831.8212278,-0.11457035690546036,0.015750985592603683,0.34495851397514343,0.9778314828872681,0.2401377260684967,-9.62829875946045
1745734831.825407,-0.10773509740829468,0.018013451248407364,0.3477921187877655,0.8254170417785645,0.07375891506671906,-9.681114196777344
1745734831.8295236,-0.11937405169010162,0.007342716213315725,0.35389792919158936,1.0837701559066772,0.024692494422197342,-9.70260238647461
1745734831.8318193,-0.09579479694366455,0.014078879728913307,0.3581809401512146,0.9417743682861328,0.2452901303768158,-9.810066223144531
1745734831.8638864,-0.11412467062473297,0.010533949360251427,0.36261358857154846,1.0141047239303589,0.07637402415275574,-9.805134773254395
1745734831.8677475,-0.09688369184732437,-0.0021993829868733883,0.36354953050613403,0.8585516214370728,0.22563011944293976,-9.740203857421875
1745734831.8727276,-0.10143639892339706,0.004833525978028774,0.3658628761768341,1.0023062229156494,0.03742197901010513,-9.753332138061523
1745734831.874012,-0.11968229711055756,-0.003714893013238907,0.3673829436302185,0.9023421406745911,0.09563960134983063,-9.807278633117676
1745734831.9093375,-0.10638787597417831,-0.0049678185023367405,0.37239789962768555,0.8884626626968384,-0.10041052103042603,-9.763745307922363
1745734831.9126809,-0.13065659999847412,-0.008815252222120762,0.3762972950935364,1.084768533706665,-0.025155341252684593,-9.663684844970703
1745734831.9156606,-0.12358002364635468,-0.008025436662137508,0.3811406195163727,0.8382803201675415,-0.02793865278363228,-9.845353126525879
1745734831.9209356,-0.1469324827194214,-0.01608600839972496,0.3850743770599365,1.0550202131271362,-0.07755792886018753,-9.786153793334961
1745734831.951329,-0.13867223262786865,-0.033251941204071045,0.4087112843990326,0.9235316514968872,-0.08676089346408844,-10.028985977172852
1745734831.951377,-0.13410736620426178,-0.037442468106746674,0.4117063879966736,0.8445781469345093,0.2562953531742096,-9.708625793457031
1745734831.9524348,-0.14128310978412628,-0.030917584896087646,0.4148740768432617,0.9191862940788269,-0.0786021426320076,-9.4989652633667
1745734831.955001,-0.15194788575172424,-0.03947713226079941,0.42100340127944946,0.9105086326599121,0.23660066723823547,-9.726930618286133
1745734831.9914415,-0.14517711102962494,-0.043374042958021164,0.42262473702430725,0.8268663287162781,0.171113520860672,-10.035998344421387
1745734831.994955,-0.14958840608596802,-0.04100107401609421,0.423321008682251,0.950935959815979,0.18648739159107208,-9.809496879577637
1745734831.9999902,-0.1460399627685547,-0.041076332330703735,0.42568501830101013,0.6901833415031433,0.4045834541320801,-9.588918685913086
1745734832.0025196,-0.15814316272735596,-0.05143774673342705,0.42755621671676636,0.9140124320983887,0.005965308751910925,-9.701022148132324
1745734832.0054524,-0.14461256563663483,-0.054290980100631714,0.4287385046482086,0.8630998730659485,0.41682228446006775,-9.90771198272705
1745734832.035697,-0.15850397944450378,-0.044720977544784546,0.4350387156009674,0.8699411153793335,0.04406241327524185,-10.000246047973633
1745734832.040178,-0.15720351040363312,-0.05785565450787544,0.43543344736099243,0.8710086941719055,0.35706907510757446,-9.588191986083984
1745734832.0419395,-0.15023860335350037,-0.054288726300001144,0.43925613164901733,0.8560538291931152,0.20050346851348877,-9.609480857849121
1745734832.0425377,-0.16113770008087158,-0.05595143511891365,0.4428851008415222,0.9250109791755676,0.30970948934555054,-9.895771980285645
1745734832.0779643,-0.14093109965324402,-0.05716788023710251,0.44399040937423706,0.8226655721664429,0.5119445323944092,-9.943859100341797
1745734832.078062,-0.14717791974544525,-0.07021772861480713,0.440265029668808,1.0288054943084717,0.5998019576072693,-9.672832489013672
1745734832.0801837,-0.1238383874297142,-0.09388148784637451,0.33336755633354187,0.4189985692501068,0.6763460040092468,-10.424479484558105
1745734832.082355,-0.08335999399423599,-0.08737141638994217,0.3298238515853882,0.22808711230754852,0.9783382415771484,-9.978700637817383
1745734832.0824091,-0.08722739666700363,-0.09010303020477295,0.32184353470802307,0.27811548113822937,0.6814549565315247,-9.348725318908691
1745734832.1219103,-0.0628158301115036,-0.0974801555275917,0.32033076882362366,0.27941274642944336,0.942898154258728,-9.531084060668945
1745734832.1243927,-0.06198524311184883,-0.08705367147922516,0.3118141293525696,0.48172205686569214,0.5127286911010742,-10.380751609802246
1745734832.125907,-0.05833619832992554,-0.09182949364185333,0.3112033009529114,0.5253564715385437,0.8482023477554321,-10.057050704956055
1745734832.1281607,-0.045312684029340744,-0.09232251346111298,0.30453941226005554,0.5278791189193726,0.3998009264469147,-9.510757446289062
1745734832.163832,-0.05543103814125061,-0.09753094613552094,0.3057920038700104,0.5348889231681824,0.740188479423523,-9.65196418762207
1745734832.1676095,-0.041806623339653015,-0.09219876676797867,0.30344119668006897,0.40405765175819397,0.5281247496604919,-10.252625465393066
1745734832.1711276,-0.031222647055983543,-0.08764486014842987,0.3022492825984955,0.4031737744808197,0.48867249488830566,-9.989399909973145
1745734832.1739883,-0.022624442353844643,-0.0868372768163681,0.3018394708633423,0.148297518491745,0.7123150825500488,-9.377147674560547
1745734832.1750283,-0.022183487191796303,-0.08446618914604187,0.2998148798942566,-0.009837082587182522,0.3215634524822235,-9.641885757446289
1745734832.2194984,-0.013015881180763245,-0.07566580176353455,0.3005951941013336,-0.04870691895484924,0.5144143104553223,-9.853720664978027
1745734832.2198074,-0.01621071621775627,-0.0653977245092392,0.3036574125289917,0.5497462749481201,0.11159403622150421,-9.677751541137695
1745734832.2199464,-0.043463319540023804,-0.06399872153997421,0.30789950489997864,0.3489916920661926,0.18319106101989746,-9.953083992004395
1745734832.2252,-0.05028029531240463,-0.06442353129386902,0.3091737627983093,0.4098912179470062,0.033826861530542374,-9.827409744262695
1745734832.2505367,-0.08513704687356949,-0.05593050643801689,0.3135927617549896,1.0401076078414917,0.056067414581775665,-9.532339096069336
1745734832.25392,-0.0989416167140007,-0.058618150651454926,0.31655246019363403,0.6782271862030029,0.5526841878890991,-10.01545238494873
1745734832.25652,-0.10101994127035141,-0.07034625858068466,0.3157676160335541,0.6678959131240845,0.42720308899879456,-10.3016996383667
1745734832.2599404,-0.08502781391143799,-0.05304291099309921,0.3182969093322754,0.4346013069152832,1.2097923755645752,-9.674921035766602
1745734832.2930026,-0.059077125042676926,-0.048408668488264084,0.3181952238082886,0.3605537712574005,0.942182183265686,-9.395200729370117
1745734832.294472,-0.034273602068424225,-0.032831355929374695,0.33188125491142273,0.5255927443504333,-0.35478144884109497,-9.886223793029785
1745734832.2957747,-0.06900403648614883,-0.02238762378692627,0.32782143354415894,0.37271979451179504,0.15600883960723877,-10.473560333251953
1745734832.2972686,-0.08394517004489899,-0.012045105919241905,0.32866841554641724,0.12790606915950775,0.1726990044116974,-9.723833084106445
1745734832.2984385,-0.07704822719097137,-0.017972957342863083,0.33273372054100037,0.4117640554904938,0.3889138996601105,-8.934805870056152
1745734832.3368678,-0.07548858225345612,-0.01716058887541294,0.3363344967365265,0.29117247462272644,1.0213239192962646,-9.775751113891602
1745734832.341142,-0.03824407234787941,-0.012607350945472717,0.33646178245544434,0.3395947813987732,0.5895814299583435,-10.709708213806152
1745734832.3416514,0.009148623794317245,-0.0009716495987959206,0.3409183621406555,0.26860833168029785,1.3654371500015259,-9.528505325317383
1745734832.3428018,0.023571355268359184,0.0042370641604065895,0.33983707427978516,0.13606230914592743,0.856705367565155,-9.091421127319336
1745734832.382127,0.03583217039704323,-0.018989354372024536,0.33573469519615173,0.41722583770751953,0.9980043172836304,-9.79543399810791
1745734832.3821878,0.0739736258983612,0.0001658923865761608,0.3339821398258209,0.4519384801387787,0.6775810718536377,-10.51799201965332
1745734832.3839095,0.03968602791428566,0.00914248451590538,0.3313509523868561,0.44030317664146423,0.5150817632675171,-9.907139778137207
1745734832.3854043,0.038922905921936035,-0.004487789236009121,0.3279312252998352,0.30786457657814026,0.10652544349431992,-9.112548828125
1745734832.4217784,0.013636231422424316,-0.005691005382686853,0.3313215374946594,0.6524298191070557,0.06371305882930756,-9.53173542022705
1745734832.4229603,-0.011836008168756962,0.0029914870392531157,0.33180516958236694,0.4398978352546692,0.2526558041572571,-10.52406120300293
1745734832.4280264,-0.0037466275971382856,0.009189654141664505,0.33332163095474243,0.3894405961036682,0.049827512353658676,-10.029095649719238
1745734832.4316854,0.01880253478884697,0.03203370422124863,0.36671367287635803,0.7196289896965027,0.9536949992179871,-10.064462661743164
1745734832.4651964,0.022054757922887802,0.05120784789323807,0.3686322271823883,0.7315932512283325,0.8038367033004761,-9.909070014953613
1745734832.4746742,0.041248299181461334,0.048400405794382095,0.36783358454704285,0.4656442701816559,1.119157314300537,-9.308661460876465
1745734832.475287,0.06259775161743164,0.03506675362586975,0.37178945541381836,0.7109753489494324,0.5597906708717346,-9.409416198730469
1745734832.4753492,0.07252081483602524,0.047003164887428284,0.3722415566444397,0.6719775199890137,0.862941563129425,-10.029378890991211
1745734832.475396,0.08648239076137543,0.05605824664235115,0.37679076194763184,0.548157811164856,0.31268465518951416,-10.161378860473633
1745734832.519017,0.07643736153841019,0.044616200029850006,0.38015812635421753,0.7818961143493652,0.3380395770072937,-9.268937110900879
1745734832.5191596,0.08673359453678131,0.0464765764772892,0.3851514160633087,0.6763120889663696,0.15558458864688873,-9.4688081741333
1745734832.520861,0.038695722818374634,0.047473736107349396,0.3884205222129822,0.7454586625099182,-0.14449442923069,-10.209920883178711
1745734832.5220108,0.037387363612651825,0.05026327818632126,0.3889688551425934,0.500026524066925,0.01399858295917511,-9.886762619018555
1745734832.551626,0.00950558390468359,0.05426425859332085,0.39423662424087524,0.6958364248275757,-0.1328234225511551,-9.17707347869873
1745734832.5543795,-0.031546950340270996,0.04655926302075386,0.3950519561767578,0.5493417978286743,0.18657968938350677,-9.54435920715332
1745734832.5556874,-0.02967221662402153,0.050028372555971146,0.3960999548435211,0.6978713274002075,0.07081951200962067,-10.180213928222656
1745734832.5577552,-0.043035589158535004,0.054988205432891846,0.39594489336013794,0.8007084131240845,0.5468564629554749,-9.79833698272705
1745734832.5948317,-0.03150634840130806,0.05632985383272171,0.39799371361732483,0.5446882843971252,0.5175959467887878,-9.42412281036377
1745734832.5974295,-0.03317607194185257,0.04492185264825821,0.4033985137939453,0.7998878955841064,0.5216496586799622,-9.54582691192627
1745734832.6002982,0.000501489092130214,0.051879383623600006,0.40660548210144043,0.6729214787483215,0.8528842926025391,-9.936689376831055
1745734832.6047404,0.006863722112029791,0.05505369231104851,0.40847134590148926,0.7825300693511963,0.6224379539489746,-9.939358711242676
1745734832.6100795,0.02705739066004753,0.04561527445912361,0.41109776496887207,0.60743647813797,0.9177693128585815,-9.531890869140625
1745734832.6395752,0.045316651463508606,0.048925478011369705,0.41043567657470703,0.719719409942627,0.5183917284011841,-9.583375930786133
1745734832.642393,-0.02985885739326477,0.04240664467215538,0.42350634932518005,0.5459641218185425,0.5538605451583862,-9.658197402954102
1745734832.6441438,-0.03970472514629364,0.03210289031267166,0.4249313473701477,0.7559272050857544,0.28799933195114136,-9.656839370727539
1745734832.6458788,-0.028696119785308838,0.03287810832262039,0.4242721498012543,0.7616284489631653,0.6713151931762695,-9.701940536499023
1745734832.681305,-0.04181976616382599,0.039764367043972015,0.42605891823768616,0.8570636510848999,0.265802800655365,-9.913858413696289
1745734832.6831217,-0.031008664518594742,0.031544484198093414,0.42599186301231384,0.7239602208137512,0.6232464909553528,-9.691628456115723
1745734832.6863365,-0.03075690008699894,0.029468515887856483,0.4277566373348236,0.8058594465255737,0.32958945631980896,-9.621711730957031
1745734832.6876667,-0.0351836234331131,0.027307307347655296,0.43002748489379883,0.7953325510025024,0.5730990171432495,-9.743759155273438
1745734832.7240758,-0.015677761286497116,0.028781022876501083,0.430917888879776,0.5876831412315369,0.575616717338562,-9.879810333251953
1745734832.727437,-0.031034881249070168,0.02252606488764286,0.4311864972114563,0.7028045654296875,0.3737154006958008,-9.734590530395508
1745734832.730308,-0.006256466265767813,0.024570122361183167,0.4326642155647278,0.5867800712585449,0.6220852136611938,-9.57985782623291
1745734832.7303672,-0.03796916455030441,0.023039747029542923,0.429980605840683,0.7980983257293701,0.260899156332016,-9.723154067993164
1745734832.731786,-0.022896889597177505,0.011151812970638275,0.4302072525024414,0.7452018857002258,0.4269290864467621,-9.876659393310547
1745734832.7684658,-0.04058751463890076,0.021701272577047348,0.4292914867401123,0.8511918783187866,0.1554797738790512,-9.910200119018555
1745734832.7704704,-0.056262992322444916,0.013189402408897877,0.43207550048828125,0.731880784034729,0.28487029671669006,-9.675034523010254
1745734832.7742138,-0.052257657051086426,0.011142682284116745,0.43749839067459106,0.6698852777481079,0.17403899133205414,-9.613980293273926
1745734832.81202,-0.05479605123400688,-0.036921702325344086,0.4409078061580658,0.628872275352478,0.5665086507797241,-9.576513290405273
1745734832.8154519,-0.08980842679738998,-0.03014112450182438,0.43911629915237427,0.729324996471405,0.22937652468681335,-9.796348571777344
1745734832.8191383,-0.0791778415441513,-0.041845619678497314,0.4420958161354065,0.5938984155654907,0.5708894729614258,-9.886238098144531
1745734832.8218474,-0.0802263468503952,-0.033796004951000214,0.4396747946739197,0.65345299243927,0.39911848306655884,-9.755295753479004
1745734832.821913,-0.09395556151866913,-0.03704483434557915,0.44036394357681274,0.6861173510551453,0.5565531849861145,-9.594486236572266
1745734832.8519702,-0.07960861921310425,-0.039168454706668854,0.43854522705078125,0.5804532766342163,0.5317574143409729,-9.856611251831055
1745734832.8532054,-0.09688068926334381,-0.04422134906053543,0.4385441839694977,0.7650765776634216,0.5313597321510315,-9.8997163772583
1745734832.8553593,-0.0760650485754013,-0.04299933835864067,0.43975943326950073,0.5991572737693787,0.6573530435562134,-9.803014755249023
1745734832.8577614,-0.09490015357732773,-0.038707319647073746,0.43719950318336487,0.6834898591041565,0.44701719284057617,-9.734347343444824
1745734832.894707,-0.08777027577161789,-0.04851462319493294,0.4389449656009674,0.5709096193313599,0.6619048118591309,-9.69831657409668
1745734832.9070768,-0.08098335564136505,-0.04337875917553902,0.4363759160041809,0.7279254198074341,0.4584712088108063,-9.765432357788086
1745734832.907134,-0.09776709228754044,-0.04847428947687149,0.4370601773262024,0.6723545789718628,0.7267104387283325,-9.85560131072998
1745734832.9071984,-0.07835312187671661,-0.046105850487947464,0.43788090348243713,0.5886951684951782,0.5407817959785461,-9.857752799987793
1745734832.907237,-0.09331841766834259,-0.05030042678117752,0.43687504529953003,0.7075051069259644,0.5920707583427429,-9.651577949523926
1745734832.9404328,-0.07856349647045135,-0.04378864914178848,0.4372533857822418,0.5633965730667114,0.6231045722961426,-9.709707260131836
1745734832.9421713,-0.0943458303809166,-0.04644425958395004,0.43853530287742615,0.668740451335907,0.420689195394516,-9.853693962097168
1745734832.943524,-0.08219774812459946,-0.05085720866918564,0.4376242756843567,0.5650493502616882,0.7517298460006714,-9.729268074035645
1745734832.9461162,-0.08564677089452744,-0.044143106788396835,0.43783602118492126,0.7000059485435486,0.4208708703517914,-9.726069450378418
1745734832.9811866,-0.09910674393177032,-0.04856393486261368,0.43638747930526733,0.5576978325843811,0.7465670108795166,-9.788480758666992
1745734832.9844432,-0.09005336463451385,-0.04724031314253807,0.4371698796749115,0.5707076787948608,0.30975306034088135,-9.880928039550781
1745734832.988794,-0.08320077508687973,-0.04597393423318863,0.4369606077671051,0.5432354211807251,0.7685236930847168,-9.615350723266602
1745734832.991825,-0.11136315762996674,-0.04676750302314758,0.4307212233543396,0.6200734376907349,0.4192083775997162,-9.837995529174805
1745734833.026752,-0.08857117593288422,-0.055290766060352325,0.43386897444725037,0.5997158288955688,0.836048424243927,-9.835714340209961
1745734833.0300446,-0.10169179737567902,-0.04288191348314285,0.4327922463417053,0.608015239238739,0.5012001991271973,-9.789332389831543
1745734833.0333548,-0.10053962469100952,-0.04417293891310692,0.4342740476131439,0.514796793460846,0.7523574829101562,-9.60883903503418
1745734833.034933,-0.09083966165781021,-0.046801287680864334,0.43396228551864624,0.5208761096000671,0.611052393913269,-9.740230560302734
1745734833.0687358,-0.1094260960817337,-0.04769086837768555,0.4347717761993408,0.6449862718582153,0.7266861200332642,-9.848386764526367
1745734833.0704432,-0.07911673933267593,-0.04321925342082977,0.4343220293521881,0.5475224256515503,0.8160190582275391,-9.849206924438477
1745734833.0727506,-0.10949105024337769,-0.044092245399951935,0.4308266043663025,0.6228255033493042,0.7050237655639648,-9.778756141662598
1745734833.0749385,-0.08392201364040375,-0.04895363003015518,0.4321710169315338,0.4768124222755432,0.7768127918243408,-9.70960807800293
1745734833.0763958,-0.09278567135334015,-0.04389633610844612,0.4297814965248108,0.6722826361656189,0.654435932636261,-9.679685592651367
1745734833.1138666,-0.10037461668252945,-0.046649668365716934,0.43260422348976135,0.5426205396652222,0.8066810369491577,-9.899561882019043
1745734833.1166022,-0.08287844806909561,-0.04681655019521713,0.43099159002304077,0.5742300152778625,0.6289823651313782,-9.882037162780762
1745734833.1202915,-0.09884537011384964,-0.04541108012199402,0.4307219088077545,0.585218608379364,0.8435718417167664,-9.605460166931152
1745734833.1265402,-0.07698546350002289,-0.038233667612075806,0.43142086267471313,0.4680691659450531,0.7909590601921082,-9.683991432189941
1745734833.151604,-0.09027358144521713,-0.045588720589876175,0.4308294355869293,0.6396090388298035,0.7238883972167969,-9.852437019348145
1745734833.1562738,-0.060443200170993805,-0.0256683137267828,0.41912609338760376,0.5954610705375671,0.7844063639640808,-9.745016098022461
1745734833.1573117,-0.058213938027620316,-0.033080827444791794,0.41630011796951294,0.40441426634788513,0.8671592473983765,-9.775714874267578
1745734833.169207,-0.05243600532412529,-0.03105374053120613,0.4165043830871582,0.6310588121414185,0.6409527659416199,-9.72037410736084
1745734833.1692922,-0.06649298220872879,-0.0282024797052145,0.4155951142311096,0.5331486463546753,0.8770097494125366,-9.691780090332031
1745734833.1979666,-0.0528847873210907,-0.023589059710502625,0.41919293999671936,0.4499153196811676,0.6885654330253601,-9.766866683959961
1745734833.1984825,-0.06296912580728531,-0.03356294333934784,0.41940778493881226,0.6322914958000183,0.8550965189933777,-9.723382949829102
1745734833.1998162,-0.050893258303403854,-0.027220701798796654,0.41970404982566833,0.4496937692165375,0.93528813123703,-9.813169479370117
1745734833.2036738,-0.05312858894467354,-0.02454369328916073,0.41757115721702576,0.5712177157402039,0.8214526176452637,-9.771400451660156
1745734833.2403042,-0.0449826605618,-0.031041864305734634,0.4153205454349518,0.3872395157814026,1.0608251094818115,-9.682656288146973
1745734833.2415044,-0.044155918061733246,-0.026044894009828568,0.41618281602859497,0.5802807211875916,0.6666346192359924,-9.729815483093262
1745734833.243737,-0.049277208745479584,-0.028274130076169968,0.4155934453010559,0.4763195514678955,1.0387156009674072,-9.676359176635742
1745734833.2458873,-0.04769839718937874,-0.02353624626994133,0.414284884929657,0.4629437327384949,0.5619936585426331,-9.832878112792969
1745734833.2487338,-0.05329582095146179,-0.031813204288482666,0.41540735960006714,0.6536094546318054,0.9397218823432922,-9.701411247253418
1745734833.2843168,-0.0458909310400486,-0.022597026079893112,0.41264504194259644,0.47314319014549255,0.8131328821182251,-9.805166244506836
1745734833.2884142,-0.052574120461940765,-0.025746747851371765,0.414908230304718,0.5793524384498596,0.7515334486961365,-9.733833312988281
1745734833.2908297,-0.03809163719415665,-0.02789214812219143,0.41456905007362366,0.4299127459526062,1.0349376201629639,-9.680930137634277
1745734833.2936018,-0.051844485104084015,-0.023527273908257484,0.4131223261356354,0.5599920153617859,0.6519242525100708,-9.764543533325195
1745734833.334231,-0.034629758447408676,-0.028158623725175858,0.41459426283836365,0.4280291497707367,1.0923898220062256,-9.693235397338867
1745734833.3343558,-0.04522012919187546,-0.021657031029462814,0.41269055008888245,0.4203557074069977,0.7102676033973694,-9.81076431274414
1745734833.3344238,-0.040256522595882416,-0.027182001620531082,0.41047269105911255,0.557914137840271,0.9163908958435059,-9.636148452758789
1745734833.3368437,-0.019043583422899246,-0.030209019780158997,0.40621885657310486,0.4257161617279053,0.7973346710205078,-9.718582153320312
1745734833.371461,-0.026813428848981857,-0.023906150832772255,0.4048197865486145,0.6617809534072876,0.7147817611694336,-9.802267074584961
1745734833.3735685,-0.03913606330752373,-0.02358960546553135,0.40569162368774414,0.4840029776096344,0.923337459564209,-9.844687461853027
1745734833.3754761,-0.021617263555526733,-0.022718727588653564,0.40402549505233765,0.4209292531013489,0.6911402940750122,-9.711468696594238
1745734833.3785582,-0.040702275931835175,-0.031128454953432083,0.40502461791038513,0.5378430485725403,0.9317718744277954,-9.549490928649902
1745734833.414065,-0.030362272635102272,-0.02385186031460762,0.40421396493911743,0.4450518488883972,0.768293023109436,-9.842798233032227
1745734833.4167423,-0.03501422703266144,-0.022250991314649582,0.40667080879211426,0.5574069023132324,0.9133871793746948,-9.79809284210205
1745734833.4200027,-0.028825348243117332,-0.026141267269849777,0.40436261892318726,0.3422859013080597,0.9761734008789062,-9.69355583190918
1745734833.4236636,-0.02182423137128353,-0.024892251938581467,0.40311017632484436,0.6074332594871521,0.7670775651931763,-9.670205116271973
1745734833.4278286,-0.026195460930466652,-0.023691710084676743,0.4035682678222656,0.44817858934402466,1.1995208263397217,-9.730199813842773
1745734833.4544828,-0.02047831378877163,-0.024489108473062515,0.4022233486175537,0.4877656102180481,0.6408455967903137,-9.90907096862793
1745734833.4562929,-0.018934616819024086,-0.028620708733797073,0.4012618958950043,0.5958002209663391,1.0805782079696655,-9.609209060668945
1745734833.4589248,-0.017331207171082497,-0.021282587200403214,0.4029110372066498,0.43932366371154785,0.7669954895973206,-9.747539520263672
1745734833.461326,-0.026900649070739746,-0.026028666645288467,0.4010087549686432,0.4806981086730957,0.7949848175048828,-9.74156379699707
1745734833.498932,-0.0070227705873548985,-0.02719542384147644,0.40019774436950684,0.4437464773654938,0.987006664276123,-9.699068069458008
1745734833.5032704,-0.03166339918971062,-0.0234990157186985,0.4027416706085205,0.6000584363937378,0.6974005699157715,-9.791437149047852
1745734833.5093822,-0.0055325692519545555,-0.026425594463944435,0.39133304357528687,0.5411375761032104,0.6707028150558472,-9.904638290405273
1745734833.5118644,-0.004481547512114048,-0.026080559939146042,0.38863998651504517,0.5432729721069336,1.136109709739685,-9.653364181518555
1745734833.514108,-0.0040737600065767765,-0.019440382719039917,0.388439804315567,0.39543741941452026,0.6933603882789612,-9.747964859008789
1745734833.5419827,-0.003182576969265938,-0.027871835976839066,0.38962623476982117,0.45779770612716675,0.8529049158096313,-9.680968284606934
1745734833.5431843,0.005628874991089106,-0.02477080747485161,0.3884107768535614,0.45099109411239624,0.887952446937561,-9.736692428588867
1745734833.5458653,-0.0132952481508255,-0.019526680931448936,0.3900810778141022,0.5737327337265015,0.7459831237792969,-9.820195198059082
1745734833.5475903,0.007363545708358288,-0.023416994139552116,0.3906833529472351,0.3757643401622772,1.059232234954834,-9.73266315460205
1745734833.586408,-0.011322190053761005,-0.027585744857788086,0.38630223274230957,0.541824460029602,0.6264737248420715,-9.770586013793945
1745734833.5941064,0.003835940733551979,-0.023279476910829544,0.38623636960983276,0.42359286546707153,1.1001806259155273,-9.716828346252441
1745734833.594201,-0.012169362977147102,-0.019421054050326347,0.38449880480766296,0.41881242394447327,0.6720463633537292,-9.772977828979492
1745734833.5942628,-0.00981032382696867,-0.029767772182822227,0.38415640592575073,0.5052300691604614,0.8192246556282043,-9.673051834106445
1745734833.5944946,-3.404040035093203e-05,-0.022401876747608185,0.38475900888442993,0.48651447892189026,0.9124676585197449,-9.758116722106934
1745734833.6302383,-0.02021087519824505,-0.022894617170095444,0.3860320448875427,0.49731987714767456,0.7543503046035767,-9.877243041992188
1745734833.6338682,0.0075162737630307674,-0.02345018833875656,0.38443246483802795,0.36107486486434937,1.0756274461746216,-9.707378387451172
1745734833.633915,-0.006316071841865778,-0.025530945509672165,0.38465386629104614,0.6167939305305481,0.8027834892272949,-9.621240615844727
1745734833.637842,0.005082688294351101,-0.024922559037804604,0.38454490900039673,0.3929077088832855,1.0450646877288818,-9.816758155822754
1745734833.6708598,0.011292529292404652,-0.021588100120425224,0.38251417875289917,0.48552435636520386,0.8311942219734192,-9.883450508117676
1745734833.674354,0.002679684432223439,-0.03046530857682228,0.38177379965782166,0.4514651298522949,0.9335706830024719,-9.68836784362793
1745734833.6756852,0.021536264568567276,-0.02108180522918701,0.38062572479248047,0.4287198483943939,0.8575311899185181,-9.673696517944336
1745734833.6781852,-0.007560203317552805,-0.02412794530391693,0.37965428829193115,0.517723798751831,0.8893563151359558,-9.77406120300293
1745734833.7147758,0.002994182985275984,-0.026980996131896973,0.3761085569858551,0.47641873359680176,1.0422741174697876,-9.757253646850586
1745734833.7176814,0.0031705531291663647,-0.01799718663096428,0.37429165840148926,0.41568484902381897,0.6553509831428528,-9.817194938659668
1745734833.7213945,0.00022775241814088076,-0.027891239151358604,0.37693166732788086,0.43708449602127075,0.9580460786819458,-9.62303352355957
1745734833.7243476,0.01309473067522049,-0.022435296326875687,0.3743526339530945,0.45633116364479065,0.819991946220398,-9.711321830749512
1745734833.7630146,-0.0010197038063779473,-0.02194702997803688,0.37607353925704956,0.5101233720779419,0.7920560836791992,-9.83847713470459
1745734833.763084,0.01871882565319538,-0.019665971398353577,0.3758780062198639,0.33059439063072205,0.9927841424942017,-9.738035202026367
1745734833.7631307,2.7379393941373564e-05,-0.02446538396179676,0.3743877708911896,0.5337437987327576,0.5811532139778137,-9.689037322998047
1745734833.7631679,0.018075793981552124,-0.021903518587350845,0.37465378642082214,0.37826138734817505,1.0406017303466797,-9.72359848022461
1745734833.7711918,-0.005945560522377491,-0.015992948785424232,0.3724063038825989,0.47448673844337463,0.5902236104011536,-9.836771011352539
1745734833.8044028,0.005683404393494129,-0.027171665802598,0.3722071647644043,0.4821475148200989,0.8796380162239075,-9.664464950561523
1745734833.8137145,0.004390885587781668,-0.017535720020532608,0.3719944357872009,0.4930998384952545,0.7892917394638062,-9.726370811462402
1745734833.8173537,-0.012670593336224556,-0.023901140317320824,0.37341824173927307,0.4365357756614685,0.719708263874054,-9.85612678527832
1745734833.821015,0.01848509907722473,-0.021466972306370735,0.37286990880966187,0.3304196298122406,0.8728763461112976,-9.739084243774414
1745734833.843662,-0.008475550450384617,-0.020760545507073402,0.37309059500694275,0.5704612731933594,0.7022956013679504,-9.590946197509766
1745734833.8449037,0.009942423552274704,-0.018411889672279358,0.3777789771556854,0.35040417313575745,0.9524186253547668,-9.753087043762207
1745734833.8479362,0.00922380480915308,-0.019203366711735725,0.37494581937789917,0.48351311683654785,0.7999508380889893,-9.8344144821167
1745734833.8522718,0.008414552547037601,-0.01589403674006462,0.37052106857299805,0.54457026720047,0.682468056678772,-9.780632019042969
1745734833.8560464,0.000759970978833735,-0.019799349829554558,0.370994508266449,0.4264046549797058,0.8400005102157593,-9.797523498535156
1745734833.8865693,0.018868764862418175,-0.017597388476133347,0.3728281855583191,0.38073939085006714,0.7147207856178284,-9.687979698181152
1745734833.8980672,-0.004318791441619396,-0.02180674858391285,0.3738538324832916,0.5867553353309631,0.7668676376342773,-9.585370063781738
1745734833.8981774,0.016812575981020927,-0.017267664894461632,0.37188583612442017,0.3514072895050049,0.8654760122299194,-9.864189147949219
1745734833.898227,0.0072311460971832275,-0.01801891252398491,0.37221866846084595,0.5082679986953735,0.8200944066047668,-9.83034610748291
1745734833.9278512,0.01942652463912964,-0.023295607417821884,0.3705548048019409,0.35949891805648804,0.9530976414680481,-9.70508098602295
1745734833.9312928,0.019983923062682152,-0.016133997589349747,0.3703543543815613,0.47152870893478394,0.7421244382858276,-9.712430953979492
1745734833.9338033,0.005559264682233334,-0.02314205840229988,0.37022098898887634,0.3995988070964813,0.9071608781814575,-9.740691184997559
1745734833.946014,0.023855159059166908,-0.020958656445145607,0.3677670359611511,0.4379429817199707,0.5921539664268494,-9.803701400756836
1745734833.9460845,0.0023672417737543583,-0.02090153470635414,0.3706662058830261,0.5893512964248657,0.8189696073532104,-9.663553237915039
1745734833.974654,0.012874280102550983,-0.019081847742199898,0.3704565167427063,0.35990485548973083,0.711327850818634,-9.805864334106445
1745734833.9770603,0.0003641381917987019,-0.024600647389888763,0.36891165375709534,0.5373402833938599,0.6407343745231628,-9.749543190002441
1745734833.9793909,0.01235894300043583,-0.023213980719447136,0.3722822070121765,0.43287959694862366,0.9496182203292847,-9.688016891479492
1745734833.9828005,-0.000537247397005558,-0.01525432150810957,0.37052324414253235,0.46327638626098633,0.5970702171325684,-9.792603492736816
1745734834.0159907,0.011630874127149582,-0.02631891332566738,0.3718279004096985,0.38006627559661865,1.0816842317581177,-9.641108512878418
1745734834.019603,0.012104498222470284,-0.022730445489287376,0.3712407946586609,0.4797293245792389,0.5979734659194946,-9.806236267089844
1745734834.0237815,0.01379744429141283,-0.02190229669213295,0.3690589666366577,0.4764740467071533,0.9936981201171875,-9.794633865356445
1745734834.0278769,0.016425643116235733,-0.019713224843144417,0.3698997497558594,0.3354107737541199,0.7554893493652344,-9.805475234985352
1745734834.0616205,0.01582776941359043,-0.027874400839209557,0.3695968687534332,0.5698199272155762,0.6777923107147217,-9.602974891662598
1745734834.061718,0.011915569193661213,-0.027273599058389664,0.37219756841659546,0.3607727587223053,0.952875018119812,-9.677428245544434
1745734834.0649455,0.021058931946754456,-0.026411721482872963,0.36995190382003784,0.38215911388397217,0.6615710258483887,-9.744470596313477
1745734834.067181,0.012718143872916698,-0.028580158948898315,0.3705906569957733,0.5266600847244263,0.8127201199531555,-9.705109596252441
1745734834.105799,0.02291029691696167,-0.017631137743592262,0.37126773595809937,0.3560165762901306,0.7409758567810059,-9.80439567565918
1745734834.1103349,0.01076401025056839,-0.025781195610761642,0.3703664243221283,0.47697877883911133,0.7481826543807983,-9.680112838745117
1745734834.1146107,0.023498617112636566,-0.028562426567077637,0.368856281042099,0.35583823919296265,0.8101059794425964,-9.721494674682617
1745734834.1169891,0.013881024904549122,-0.020789682865142822,0.36998993158340454,0.49439963698387146,0.6755643486976624,-9.820240020751953
1745734834.1205506,0.005810937844216824,-0.024351920932531357,0.3695308268070221,0.32933536171913147,0.8639998435974121,-9.756963729858398
1745734834.1449025,0.01696379855275154,-0.02489035576581955,0.36718878149986267,0.47270631790161133,0.5246018171310425,-9.678448677062988
1745734834.1484652,-0.00036443956196308136,-0.025201911106705666,0.36895227432250977,0.5265989899635315,0.9115222096443176,-9.648633003234863
1745734834.1524963,0.014145943336188793,-0.021900009363889694,0.36758512258529663,0.3245643973350525,0.6388724446296692,-9.97555160522461
1745734834.158719,0.006332541350275278,-0.02671871706843376,0.36946865916252136,0.4508071541786194,0.7462746500968933,-9.735352516174316
1745734834.1863513,0.018863901495933533,-0.02188035286962986,0.3701235055923462,0.3508892357349396,0.8425304293632507,-9.50562572479248
1745734834.1877713,0.004554559011012316,-0.02261866256594658,0.37088581919670105,0.5213116407394409,0.5699411034584045,-9.70842456817627
1745734834.1891906,0.022658109664916992,-0.02498462237417698,0.3712412714958191,0.38322895765304565,1.0761457681655884,-9.868156433105469
1745734834.1913517,0.010059548541903496,-0.0215243361890316,0.3686588704586029,0.4557023048400879,0.4846525192260742,-9.981462478637695
1745734834.2331915,0.0014325950760394335,-0.023628903552889824,0.3715755343437195,0.5054978728294373,0.8996624946594238,-9.848834037780762
1745734834.2332883,0.0024740404915064573,-0.01622030697762966,0.36873412132263184,0.4011787474155426,0.4809242784976959,-9.920799255371094
1745734834.2342036,-0.005156056024134159,-0.026586484163999557,0.36986014246940613,0.40397340059280396,0.7821480631828308,-9.576948165893555
1745734834.2374463,0.008080952800810337,-0.024102767929434776,0.3713270425796509,0.42475518584251404,0.6928869485855103,-9.579350471496582
1745734834.2433367,-0.014150680974125862,-0.01977689191699028,0.3712987005710602,0.5150026082992554,0.6166013479232788,-9.919973373413086
1745734834.2719607,0.009422180242836475,-0.01940585859119892,0.372689425945282,0.2961915135383606,0.8823947906494141,-9.863893508911133
1745734834.2741077,-0.006475165486335754,-0.022095754742622375,0.3717704713344574,0.4779525399208069,0.49618640542030334,-9.653841018676758
1745734834.2772548,0.007471025921404362,-0.02182905003428459,0.3721674084663391,0.37259960174560547,1.0304664373397827,-9.599040031433105
1745734834.2807567,-0.007844021543860435,-0.019007189199328423,0.3691379427909851,0.4497288763523102,0.5390804409980774,-9.949376106262207
1745734834.3224247,0.004239288624376059,-0.027504121884703636,0.3711298704147339,0.4755897521972656,0.7822621464729309,-9.828121185302734
1745734834.3240247,0.003331925021484494,-0.016256041824817657,0.36955034732818604,0.42250436544418335,0.6657713651657104,-9.658186912536621
1745734834.3240786,-0.013177761808037758,-0.02307833358645439,0.3726457953453064,0.4687069058418274,0.6122739911079407,-9.701746940612793
1745734834.32412,0.009306426160037518,-0.02642681822180748,0.37244004011154175,0.33200803399086,0.7512527704238892,-9.855175971984863
1745734834.3252482,-0.01267850212752819,-0.02153218723833561,0.3734411299228668,0.5540772676467896,0.5691384673118591,-9.829519271850586
1745734834.3609562,-0.0008373238961212337,-0.019548477604985237,0.3751493990421295,0.3319970667362213,0.8527302742004395,-9.667167663574219
1745734834.3629973,7.892242865636945e-05,-0.020943935960531235,0.3730599284172058,0.4795958995819092,0.6799139976501465,-9.655779838562012
1745734834.364879,-0.006210872437804937,-0.029465243220329285,0.3724854290485382,0.4217410087585449,0.8231202363967896,-9.884394645690918
1745734834.3663063,0.01290537416934967,-0.01864917203783989,0.3711477816104889,0.41079050302505493,0.6454188823699951,-9.941643714904785
1745734834.4029377,-0.01643381640315056,-0.02134750783443451,0.37262028455734253,0.4145047068595886,0.7181599140167236,-9.613359451293945
1745734834.4081848,0.006523399148136377,-0.027883823961019516,0.3721242845058441,0.3532041907310486,0.6238327622413635,-9.581037521362305
1745734834.4171846,-0.01071297749876976,-0.0319112204015255,0.3746007978916168,0.41514357924461365,0.8223036527633667,-9.752908706665039
1745734834.4177911,-0.0055422415025532246,-0.021992716938257217,0.37440142035484314,0.4818364679813385,0.6630820631980896,-9.970022201538086
1745734834.4203765,-0.016240332275629044,-0.02288449928164482,0.37385863065719604,0.4434666037559509,0.7100275754928589,-9.783404350280762
1745734834.4465175,0.005031963344663382,-0.023647958412766457,0.37571030855178833,0.30183643102645874,0.8592464327812195,-9.519292831420898
1745734834.4478338,-0.019321566447615623,-0.028956934809684753,0.374278724193573,0.5019975900650024,0.509772002696991,-9.74670696258545
1745734834.4503655,0.01198937464505434,-0.022647183388471603,0.37565940618515015,0.33657240867614746,0.9049518704414368,-9.927215576171875
1745734834.4635627,-0.021801510825753212,-0.021267946809530258,0.37410467863082886,0.42320290207862854,0.4920189380645752,-9.838048934936523
1745734834.4893835,-0.0016765901818871498,-0.030453989282250404,0.3724196255207062,0.35337379574775696,0.7953639030456543,-9.537506103515625
1745734834.493788,-0.009367403574287891,-0.021603062748908997,0.3753153383731842,0.49135008454322815,0.5981038212776184,-9.718603134155273
1745734834.4969187,-0.021569984033703804,-0.024112049490213394,0.3738803565502167,0.4109951853752136,0.6962188482284546,-9.952522277832031
1745734834.5000188,-0.00028681772528216243,-0.02342584915459156,0.3750283420085907,0.3510618507862091,0.630092978477478,-9.780564308166504
1745734834.5313718,-0.022778058424592018,-0.02782350778579712,0.3742818236351013,0.5229489803314209,0.6437946557998657,-9.527420043945312
1745734834.5331767,-0.00916040875017643,-0.021354524418711662,0.3778902590274811,0.3111906945705414,0.7527429461479187,-9.805438041687012
1745734834.5344286,-0.014409998431801796,-0.02193775586783886,0.3764263093471527,0.4939061105251312,0.6444602012634277,-9.906183242797852
1745734834.5383532,-0.006318895611912012,-0.029084239155054092,0.3747464120388031,0.3832564651966095,0.9029585123062134,-9.750457763671875
1745734834.575302,-0.002203861717134714,-0.020760493353009224,0.37523093819618225,0.43187278509140015,0.6467736959457397,-9.734762191772461
1745734834.5824366,-0.03204704076051712,-0.027257582172751427,0.38027381896972656,0.48978376388549805,0.7689025402069092,-9.604497909545898
1745734834.5825694,-0.01899908110499382,-0.02090221643447876,0.3813168406486511,0.33537495136260986,0.7392830848693848,-9.717462539672852
1745734834.5826766,-0.024826480075716972,-0.02707475796341896,0.3819652497768402,0.472858726978302,0.7241355776786804,-9.793115615844727
1745734834.5832205,-0.012108318507671356,-0.026345843449234962,0.3790030777454376,0.32229918241500854,0.8171417117118835,-9.857745170593262
1745734834.6187396,-0.015928979963064194,-0.02041386067867279,0.3808779716491699,0.4522465169429779,0.5781914591789246,-9.748258590698242
1745734834.6320198,-0.02125939354300499,-0.025418823584914207,0.37852299213409424,0.35370951890945435,0.9022325277328491,-9.566561698913574
1745734834.632065,-0.014786707237362862,-0.02605334483087063,0.37934884428977966,0.4385107159614563,0.47500142455101013,-9.809656143188477
1745734834.632098,-0.02637660875916481,-0.02728363312780857,0.38028091192245483,0.49192014336586,0.8541048765182495,-9.871783256530762
1745734834.6614075,-0.015056470409035683,-0.018042856827378273,0.3777119517326355,0.3254348933696747,0.5823373794555664,-9.844740867614746
1745734834.6645668,-0.028709644451737404,-0.02734760381281376,0.3783908784389496,0.45350104570388794,0.6682068109512329,-9.54057502746582
1745734834.6688883,-0.017788376659154892,-0.02880924567580223,0.3810270428657532,0.3875158429145813,0.7984983325004578,-9.712128639221191
1745734834.6718206,-0.03310404345393181,-0.021788811311125755,0.3799056112766266,0.47724777460098267,0.5173715949058533,-10.005270004272461
1745734834.6767452,-0.012208549305796623,-0.02173539064824581,0.3807135820388794,0.30828869342803955,0.9887307286262512,-9.724752426147461
1745734834.714629,-0.02629498764872551,-0.024746762588620186,0.3809494376182556,0.4438266158103943,0.5129368901252747,-9.603193283081055
1745734834.7146993,-0.015595784410834312,-0.03006870113313198,0.3798201084136963,0.43066757917404175,0.913992702960968,-9.764554977416992
1745734834.7172165,-0.020467232912778854,-0.01955212652683258,0.38017064332962036,0.36726999282836914,0.6711200475692749,-9.987297058105469
1745734834.718468,-0.027153417468070984,-0.029728513211011887,0.3786730170249939,0.4538477957248688,0.6046034097671509,-9.722825050354004
1745734834.747502,-0.01064056996256113,-0.024367675185203552,0.37879401445388794,0.3916962742805481,0.8889368772506714,-9.531306266784668
1745734834.7518077,-0.03869108110666275,-0.024270445108413696,0.3786243498325348,0.46641987562179565,0.5181816816329956,-9.892383575439453
1745734834.7537782,-0.010274980217218399,-0.02583221159875393,0.3798171281814575,0.2746849060058594,0.8841685056686401,-9.886048316955566
1745734834.7569573,-0.03448941558599472,-0.028440821915864944,0.3784874677658081,0.4458540081977844,0.8943206667900085,-9.532758712768555
1745734834.7903707,-0.026118796318769455,-0.01725897751748562,0.3795376121997833,0.3508627116680145,0.625655472278595,-9.950857162475586
1745734834.7904468,-0.033766742795705795,-0.022269371896982193,0.377911776304245,0.4761061668395996,0.8162806630134583,-9.849421501159668
1745734834.7924807,-0.023786574602127075,-0.02333003655076027,0.37690499424934387,0.26658326387405396,0.7119511961936951,-9.684885025024414
1745734834.7947617,-0.030888769775629044,-0.022165736183524132,0.3765660524368286,0.4551382064819336,0.6026445627212524,-9.633740425109863
1745734834.833154,-0.03341454267501831,-0.020774321630597115,0.37580886483192444,0.33566081523895264,0.9067294001579285,-9.759846687316895
1745734834.8389318,-0.03719668835401535,-0.02069692686200142,0.37621960043907166,0.43459200859069824,0.46034175157546997,-9.9113130569458
1745734834.84117,-0.03487182781100273,-0.024055473506450653,0.37494760751724243,0.3978377878665924,0.9386304616928101,-9.64420223236084
1745734834.842284,-0.036429263651371,-0.016521479934453964,0.3766041398048401,0.36660200357437134,0.5420697331428528,-9.72369384765625
1745734834.8455834,-0.04240729287266731,-0.0229685939848423,0.378206342458725,0.35627421736717224,0.7786148190498352,-9.740388870239258
1745734834.8781893,-0.02747085690498352,-0.022472165524959564,0.3766213357448578,0.3528183400630951,0.7526002526283264,-9.776741027832031
1745734834.8795128,-0.04647031053900719,-0.015837376937270164,0.3777523934841156,0.5004833340644836,0.6446871161460876,-9.785374641418457
1745734834.8838797,-0.021248873323202133,-0.017788443714380264,0.37807488441467285,0.2867288887500763,0.9941717386245728,-9.690637588500977
1745734834.8860443,-0.04277575761079788,-0.022822950035333633,0.3773866295814514,0.4362947344779968,0.5433990359306335,-9.808747291564941
1745734834.9191394,-0.020858271047472954,-0.01933130994439125,0.37428152561187744,0.37729519605636597,1.0209846496582031,-9.751565933227539
1745734834.9207182,-0.036364950239658356,-0.012833881191909313,0.3749770224094391,0.38094523549079895,0.6288422346115112,-9.80438232421875
1745734834.9228556,-0.004774664528667927,-0.014146259054541588,0.37253648042678833,0.2770090401172638,0.8987398147583008,-9.854436874389648
1745734834.9344172,-0.031214436516165733,-0.014190597459673882,0.3728711009025574,0.43403998017311096,0.6080710291862488,-9.724466323852539
1745734834.9619853,-0.013333797454833984,-0.014416180551052094,0.37409234046936035,0.33353811502456665,0.8125407099723816,-9.639289855957031
1745734834.968483,-0.03416634351015091,-0.01286925096064806,0.37365537881851196,0.5156046152114868,0.5342055559158325,-9.706162452697754
1745734834.9685361,-0.03927824646234512,-0.01792445406317711,0.37215670943260193,0.36947986483573914,0.7681639790534973,-9.857940673828125
1745734834.9714735,-0.03088911436498165,-0.011491762474179268,0.37303024530410767,0.45054998993873596,0.6412128210067749,-9.836527824401855
1745734834.9751205,-0.046939998865127563,-0.014827857725322247,0.37177929282188416,0.4780256748199463,0.8104835748672485,-9.648538589477539
1745734835.0122926,-0.026428863406181335,-0.0127136604860425,0.37397217750549316,0.2851058542728424,0.8147482872009277,-9.707834243774414
1745734835.0123794,-0.04260038584470749,-0.018412938341498375,0.3737969994544983,0.440767765045166,0.7454406023025513,-9.822954177856445
1745734835.01338,-0.021076809614896774,-0.012937190942466259,0.374429315328598,0.32296887040138245,0.9784920811653137,-9.74863052368164
1745734835.015049,-0.02558978833258152,-0.01060422882437706,0.3742012083530426,0.46844109892845154,0.7425711154937744,-9.646651268005371
1745734835.0459337,-0.02420809306204319,-0.02225528284907341,0.37255674600601196,0.32622289657592773,1.0154362916946411,-9.792020797729492
1745734835.049067,-0.00765369925647974,-0.013956139795482159,0.37208041548728943,0.4405602812767029,0.6148275136947632,-9.904107093811035
1745734835.0543952,-0.024922724813222885,-0.01260126382112503,0.37158799171447754,0.45562881231307983,0.9656704068183899,-9.585713386535645
1745734835.0572853,-0.01731673814356327,-0.01684824749827385,0.37326425313949585,0.3295045495033264,0.5538495779037476,-9.722380638122559
1745734835.0589476,-0.028490599244832993,-0.021310430020093918,0.3722139298915863,0.6125237345695496,0.7917362451553345,-9.777242660522461
1745734835.093287,-0.019814351573586464,-0.014117675833404064,0.3729042708873749,0.3574691116809845,0.8406550288200378,-9.910107612609863
1745734835.0975227,-0.030614977702498436,-0.01178053766489029,0.37229812145233154,0.3765484690666199,0.65440833568573,-9.704808235168457
1745734835.100464,-0.013402712531387806,-0.022480899468064308,0.3718244731426239,0.3229268193244934,1.017936110496521,-9.505366325378418
1745734835.1066947,-0.02828296087682247,-0.013188770040869713,0.3709290623664856,0.43758153915405273,0.6364156007766724,-9.797642707824707
1745734835.135932,-0.013662410899996758,-0.017802126705646515,0.37158069014549255,0.3526829779148102,0.9626694917678833,-9.906171798706055
1745734835.1436496,-0.0036694849841296673,-0.016436131671071053,0.3687892258167267,0.36613568663597107,0.8478035926818848,-9.705121040344238
1745734835.1475177,-0.025419896468520164,-0.021796289831399918,0.3659752905368805,0.42377781867980957,0.8184517025947571,-9.714094161987305
1745734835.1493232,0.0022183682303875685,-0.018203193321824074,0.36945265531539917,0.3358380198478699,0.8197177648544312,-9.784199714660645
1745734835.1769814,-0.016242491081357002,-0.015286913141608238,0.36761927604675293,0.5149704217910767,0.7199043035507202,-9.692248344421387
1745734835.1789157,-0.013884332962334156,-0.022581003606319427,0.3687642812728882,0.2851560711860657,0.879913330078125,-9.782094955444336
1745734835.180632,-0.00519963726401329,-0.023002535104751587,0.3663787245750427,0.4879867434501648,0.6348297595977783,-9.813035011291504
1745734835.1857185,-0.019502585753798485,-0.019168134778738022,0.368280827999115,0.43097561597824097,0.9378582239151001,-9.697809219360352
1745734835.1889296,-0.0055608064867556095,-0.01556109357625246,0.3678835928440094,0.32691964507102966,0.635016918182373,-9.734888076782227
1745734835.222398,-0.01773812808096409,-0.024417802691459656,0.36910757422447205,0.47131314873695374,0.786734402179718,-9.656331062316895
1745734835.222438,-0.006684431340545416,-0.019685965031385422,0.369880348443985,0.37703579664230347,0.8086986541748047,-9.805392265319824
1745734835.2251334,-0.013012421317398548,-0.020437493920326233,0.36755257844924927,0.4950487017631531,0.7322582602500916,-9.775886535644531
1745734835.2268403,-0.009663288481533527,-0.023191850632429123,0.3685441315174103,0.22975578904151917,0.9930806159973145,-9.768558502197266
1745734835.2636278,-0.009329011663794518,-0.018877634778618813,0.36672720313072205,0.41825056076049805,0.5713454484939575,-9.719680786132812
1745734835.2654946,-0.006144199054688215,-0.021025508642196655,0.3661418557167053,0.3998013734817505,1.0973011255264282,-9.513188362121582
1745734835.2674053,-0.013765084557235241,-0.020447108894586563,0.36440563201904297,0.36235105991363525,0.561883270740509,-9.911871910095215
1745734835.2729516,0.004874927457422018,-0.021884223446249962,0.35996130108833313,0.22434234619140625,0.9069898724555969,-9.798826217651367
1745734835.2729948,-0.008607788011431694,-0.025046762079000473,0.3597274422645569,0.42654332518577576,0.47855204343795776,-9.600103378295898
1745734835.3064125,0.0029633943922817707,-0.02700841799378395,0.35818997025489807,0.38346439599990845,0.9747215509414673,-9.539976119995117
1745734835.309106,-0.01964491233229637,-0.0203311238437891,0.35858815908432007,0.45572108030319214,0.5147460699081421,-10.060483932495117
1745734835.3102975,-0.009606121107935905,-0.030743354931473732,0.35959646105766296,0.42166686058044434,0.8689185976982117,-9.890238761901855
1745734835.3139248,-0.005697081796824932,-0.0202280692756176,0.3590957522392273,0.40545859932899475,0.7144166827201843,-9.527606964111328
1745734835.3493893,-0.021844053640961647,-0.024436643347144127,0.3584628403186798,0.4433205723762512,0.7592606544494629,-9.57324504852295
1745734835.3530378,0.004608036018908024,-0.02346264012157917,0.3621543049812317,0.29683026671409607,0.8392416834831238,-10.00555419921875
1745734835.3552167,-0.015468413010239601,-0.024457436054944992,0.35974201560020447,0.4657984673976898,0.7326766848564148,-9.865410804748535
1745734835.3597894,0.012400343082845211,-0.020195839926600456,0.3620027005672455,0.3025009334087372,0.9719470739364624,-9.548007011413574
1745734835.3917468,-0.007531376089900732,-0.02128264307975769,0.3594294488430023,0.3706899583339691,0.7245798707008362,-9.661999702453613
1745734835.3938158,-0.0015682667726650834,-0.028056958690285683,0.3570269048213959,0.34892210364341736,0.8242007493972778,-9.891448974609375
1745734835.3965428,0.00978007446974516,-0.0204366035759449,0.35998013615608215,0.47714972496032715,0.6704046130180359,-9.800708770751953
1745734835.4000227,-0.02144799567759037,-0.020929764956235886,0.3563615679740906,0.40903863310813904,0.7778424024581909,-9.684236526489258
1745734835.4035418,-0.0022260150872170925,-0.02576575055718422,0.35722994804382324,0.33127304911613464,0.6570408344268799,-9.734376907348633
1745734835.4367945,-0.019875751808285713,-0.024764534085989,0.35939374566078186,0.558049738407135,0.6847314834594727,-9.732288360595703
1745734835.4420538,-0.007451418787240982,-0.014721711166203022,0.3589206039905548,0.27532538771629333,0.8619438409805298,-9.807104110717773
1745734835.4451547,-0.016488322988152504,-0.020398665219545364,0.35909271240234375,0.4151042103767395,0.5509144067764282,-9.77398681640625
1745734835.4481807,-0.006046181079000235,-0.02562999352812767,0.3614274263381958,0.3253834545612335,1.0908442735671997,-9.551665306091309
1745734835.4822037,-0.004391908645629883,-0.017670799046754837,0.36084920167922974,0.4242020547389984,0.6298453211784363,-9.805824279785156
1745734835.4848073,-0.011692924425005913,-0.02148674800992012,0.3563827574253082,0.34203845262527466,0.9943200349807739,-9.94691276550293
1745734835.4873192,-0.012012159451842308,-0.023481912910938263,0.3592013716697693,0.42474427819252014,0.8340440988540649,-9.715082168579102
1745734835.490312,-0.00015437175170518458,-0.016457360237836838,0.3597651720046997,0.2557160556316376,0.8652293086051941,-9.671124458312988
1745734835.5240507,-0.01885717175900936,-0.024578044191002846,0.3599689304828644,0.4416138529777527,0.5873185396194458,-9.740704536437988
1745734835.5320816,0.008445369079709053,-0.020956579595804214,0.3597540259361267,0.36320075392723083,0.9765046238899231,-9.760917663574219
1745734835.5350385,-0.021016720682382584,-0.015093554742634296,0.36038655042648315,0.45086655020713806,0.5643497109413147,-9.912549018859863
1745734835.535223,-0.002430357038974762,-0.024533113464713097,0.359781950712204,0.3550261855125427,0.9033598899841309,-9.667638778686523
1745734835.5641725,-0.009079070761799812,-0.01965935528278351,0.35986796021461487,0.4390086233615875,0.6477175354957581,-9.652228355407715
1745734835.566397,-0.016330691054463387,-0.019738787785172462,0.3614351153373718,0.42952364683151245,0.8580368757247925,-9.794832229614258
1745734835.5664465,0.0020355067681521177,-0.015248410403728485,0.36238422989845276,0.2917947769165039,0.703281044960022,-9.924787521362305
1745734835.5675251,-0.017400994896888733,-0.023380573838949203,0.36107897758483887,0.4702301621437073,0.8203955888748169,-9.572896957397461
1745734835.5690913,0.0051089124754071236,-0.022500719875097275,0.36147210001945496,0.3444138467311859,0.8713899850845337,-9.649806022644043
1745734835.6097076,-0.015110577456653118,-0.019014514982700348,0.3605809807777405,0.4467163681983948,0.6887232065200806,-9.987682342529297
1745734835.61404,-0.002667688298970461,-0.01981957070529461,0.3608267903327942,0.29694050550460815,0.8898808360099792,-9.844629287719727
1745734835.6170702,-0.00200956710614264,-0.021935677155852318,0.35864323377609253,0.5240596532821655,0.6169064044952393,-9.520403861999512
1745734835.649702,-0.019794095307588577,-0.025996673852205276,0.36004820466041565,0.3932510316371918,0.8634986877441406,-9.972111701965332
1745734835.6529646,-0.008871132507920265,-0.025374028831720352,0.3604101240634918,0.42211294174194336,0.5352649092674255,-9.983312606811523
1745734835.6567836,-0.019975118339061737,-0.028762945905327797,0.3621271252632141,0.4223572611808777,0.8863743543624878,-9.476469039916992
1745734835.659668,-0.01114789117127657,-0.02410200983285904,0.3625214993953705,0.3810359239578247,0.6603893637657166,-9.574270248413086
1745734835.660755,-0.02158692292869091,-0.0270405113697052,0.3655277192592621,0.46089601516723633,0.7205770611763,-9.991752624511719
1745734835.6943343,-0.0004131164459977299,-0.026715990155935287,0.36292240023612976,0.299858033657074,0.978905975818634,-9.893028259277344
1745734835.6964731,-0.014354179613292217,-0.025649849325418472,0.3631191849708557,0.4780120849609375,0.5911898016929626,-9.550535202026367
1745734835.698852,-0.002687073079869151,-0.030017465353012085,0.36411601305007935,0.2929989695549011,1.0473668575286865,-9.574922561645508
1745734835.7022114,-0.016156282275915146,-0.02727968618273735,0.36230388283729553,0.38944244384765625,0.47808536887168884,-9.999878883361816
1745734835.7453656,-0.006337225437164307,-0.03031254932284355,0.36322543025016785,0.435321182012558,0.8919938802719116,-9.745733261108398
1745734835.7454476,-0.017038367688655853,-0.022426340728998184,0.36087900400161743,0.4233693480491638,0.6091201901435852,-9.631139755249023
1745734835.7455053,-0.02753397822380066,-0.035422515124082565,0.36134251952171326,0.41584840416908264,0.7027233839035034,-9.723674774169922
1745734835.7455482,-0.012749533168971539,-0.027560710906982422,0.36219853162765503,0.3184465765953064,0.7695630788803101,-9.847414016723633
1745734835.7464015,-0.03455303609371185,-0.02254713699221611,0.36362576484680176,0.48406872153282166,0.5856704711914062,-9.70734977722168
1745734835.7804797,-0.01628817617893219,-0.025644248351454735,0.3647143840789795,0.308684766292572,0.8812845349311829,-9.614439964294434
1745734835.7837272,-0.02581261657178402,-0.030193736776709557,0.3638572096824646,0.46773195266723633,0.7280613780021667,-9.762825012207031
1745734835.7878532,-0.014348603785037994,-0.030226444825530052,0.3619081676006317,0.36327478289604187,0.9875470995903015,-9.857388496398926
1745734835.7910771,-0.008918329142034054,-0.01875174790620804,0.363237202167511,0.3572970926761627,0.7803555727005005,-9.852023124694824
1745734835.8226979,-0.023716023191809654,-0.03056844137609005,0.35934391617774963,0.3731878101825714,0.7908336520195007,-9.608194351196289
1745734835.825012,0.0031160269863903522,-0.02950020506978035,0.3613359332084656,0.4034910798072815,0.6876024007797241,-9.645803451538086
1745734835.82686,-0.03600899130105972,-0.02627863921225071,0.3614024519920349,0.5367490649223328,0.695376992225647,-9.896414756774902
1745734835.828198,-0.009848621673882008,-0.028551289811730385,0.3630734086036682,0.2816842198371887,0.8010878562927246,-9.923052787780762
1745734835.8374872,-0.029065299779176712,-0.028709765523672104,0.364776611328125,0.410489946603775,0.8677217364311218,-9.662395477294922
1745734835.8651185,-0.01615767925977707,-0.027057135477662086,0.36437422037124634,0.2678404450416565,0.7526630163192749,-9.87060832977295
1745734835.866796,-0.020697545260190964,-0.03076314367353916,0.36235448718070984,0.5153164267539978,0.6549737453460693,-9.743218421936035
1745734835.8677602,-0.02117203362286091,-0.024686411023139954,0.3621361553668976,0.3855811059474945,0.9487981796264648,-9.680696487426758
1745734835.8716521,-0.026697004213929176,-0.028157034888863564,0.3619266450405121,0.4227990210056305,0.5487084984779358,-9.824381828308105
1745734835.9108446,-0.024133112281560898,-0.03186902031302452,0.36339542269706726,0.3828889727592468,0.9507939219474792,-9.716119766235352
1745734835.9150589,-0.023488664999604225,-0.022752420976758003,0.36298781633377075,0.4170915484428406,0.583474338054657,-9.732237815856934
1745734835.920156,-0.03036533296108246,-0.027098234742879868,0.3652037978172302,0.41134271025657654,0.8546549081802368,-9.691478729248047
1745734835.922048,-0.016683276742696762,-0.029446911066770554,0.3643187880516052,0.3207119107246399,0.874173641204834,-9.74950122833252
1745734835.9549375,-0.026502594351768494,-0.029774155467748642,0.3617311716079712,0.5111726522445679,0.6800684928894043,-9.825671195983887
1745734835.9549792,-0.012289045378565788,-0.02296948991715908,0.363286554813385,0.28026559948921204,1.0500634908676147,-9.778382301330566
1745734835.9565754,-0.033678777515888214,-0.027226969599723816,0.3618173897266388,0.41782575845718384,0.5213567018508911,-9.755433082580566
1745734835.9582078,-0.00709462771192193,-0.0343913696706295,0.36109188199043274,0.3995521664619446,0.941353976726532,-9.625840187072754
1745734835.9627204,-0.028861824423074722,-0.020765896886587143,0.3628126084804535,0.4423139691352844,0.6045058369636536,-9.900531768798828
1745734835.9975743,-0.01892380230128765,-0.022055229172110558,0.36134102940559387,0.36629632115364075,0.6410435438156128,-9.91739559173584
1745734836.0009708,-0.03401947021484375,-0.02111193723976612,0.36171644926071167,0.46334338188171387,0.8456878662109375,-9.585973739624023
1745734836.0009992,-0.017162421718239784,-0.018178638070821762,0.3623722195625305,0.30115804076194763,0.7817970514297485,-9.650670051574707
1745734836.0015237,-0.035492975264787674,-0.025311123579740524,0.3609160780906677,0.44705748558044434,0.8141454458236694,-9.790749549865723
1745734836.0380163,-0.009574477560818195,-0.021337933838367462,0.36246150732040405,0.32652419805526733,0.8903533220291138,-9.913846969604492
1745734836.0425189,-0.0231320820748806,-0.015277773141860962,0.3610624670982361,0.42169442772865295,0.7621411085128784,-9.721124649047852
1745734836.0460083,-0.023258980363607407,-0.021520236507058144,0.36323460936546326,0.2628554403781891,0.9040061235427856,-9.597822189331055
1745734836.0490856,-0.007366435136646032,-0.022666404023766518,0.3597956895828247,0.4261237680912018,0.625973105430603,-9.751962661743164
1745734836.0828304,-0.030195195227861404,-0.017748039215803146,0.36053982377052307,0.4325591027736664,0.8889158964157104,-9.89387035369873
1745734836.0864987,-0.012329960241913795,-0.016363438218832016,0.36200404167175293,0.2856506407260895,0.6814946532249451,-9.827031135559082
1745734836.0911705,-0.02933848462998867,-0.023851387202739716,0.3612614870071411,0.43629640340805054,0.8068262338638306,-9.52811336517334
1745734836.0947418,-0.017298396676778793,-0.01996423676609993,0.3614787459373474,0.3483738899230957,0.8518502116203308,-9.735151290893555
1745734836.1255777,-0.03073030710220337,-0.014934581704437733,0.36222538352012634,0.4356207251548767,0.6368393301963806,-9.996219635009766
1745734836.1259124,-0.013965221121907234,-0.0176236592233181,0.3612009286880493,0.27021029591560364,1.0281379222869873,-9.635686874389648
1745734836.1269228,-0.022624770179390907,-0.01918013021349907,0.36277103424072266,0.46490439772605896,0.5016301274299622,-9.597219467163086
1745734836.1286056,-0.017465701326727867,-0.019911950454115868,0.363305002450943,0.3758971393108368,1.0667484998703003,-9.78582763671875
1745734836.1297336,-0.022815505042672157,-0.01410201657563448,0.36327609419822693,0.34474119544029236,0.6456268429756165,-10.019352912902832
1745734836.1685822,-0.017989862710237503,-0.02236543968319893,0.3600882887840271,0.458709716796875,0.9011037945747375,-9.602701187133789
1745734836.1747112,-0.01242526900023222,-0.0149734141305089,0.36223649978637695,0.37160035967826843,0.9064618945121765,-9.634557723999023
1745734836.1784198,-0.026759445667266846,-0.021596718579530716,0.3601715564727783,0.4058809280395508,0.7079818844795227,-9.916677474975586
1745734836.1842842,-0.006052178330719471,-0.019155588001012802,0.36126285791397095,0.24842050671577454,0.961905300617218,-9.803557395935059
1745734836.2092545,-0.022179460152983665,-0.010830158367753029,0.36067718267440796,0.4817574918270111,0.5860298275947571,-9.55409049987793
1745734836.2149153,-0.003557025920599699,-0.021119019016623497,0.3610312342643738,0.33871954679489136,0.7864457368850708,-9.7755126953125
1745734836.2180567,-0.030181702226400375,-0.01293039321899414,0.3606463670730591,0.5182085037231445,0.7059405446052551,-9.919032096862793
1745734836.2212358,-0.022503217682242393,-0.01630430296063423,0.36079686880111694,0.23052051663398743,0.8963335156440735,-9.776754379272461
1745734836.2510319,-0.015406347811222076,-0.015587834641337395,0.35902756452560425,0.3947833180427551,0.6912686228752136,-9.537698745727539
1745734836.2555594,-0.02729771099984646,-0.020160408690571785,0.36111676692962646,0.4618612229824066,0.9925345182418823,-9.657094955444336
1745734836.2582002,-0.012235204689204693,-0.012627850286662579,0.3588787913322449,0.4004836678504944,0.6862208247184753,-10.044507026672363
1745734836.262092,-0.019024547189474106,-0.020779257640242577,0.36064305901527405,0.43129968643188477,0.9876359105110168,-9.74700927734375
1745734836.2632124,-0.005629677325487137,-0.017417648807168007,0.357992559671402,0.27085208892822266,0.8040329217910767,-9.640823364257812
1745734836.2959447,-0.014337179251015186,-0.01652141846716404,0.3597736060619354,0.4258597493171692,0.7902148365974426,-9.665796279907227
1745734836.3018308,-0.015301520936191082,-0.01580728217959404,0.35898590087890625,0.26257967948913574,0.9161710739135742,-9.83537483215332
1745734836.3059666,-0.011313339695334435,-0.01741650328040123,0.35545235872268677,0.4995037615299225,0.5616993308067322,-9.798439025878906
1745734836.3108892,-0.021832631900906563,-0.018135253340005875,0.35693421959877014,0.43950366973876953,1.0072828531265259,-9.654501914978027
1745734836.3394012,-0.01941770501434803,-0.014281225390732288,0.35681167244911194,0.3401905596256256,0.5656258463859558,-9.845279693603516
1745734836.3437572,-0.026493240147829056,-0.02136848494410515,0.35654354095458984,0.40038734674453735,0.8517971038818359,-9.707555770874023
1745734836.3473337,-0.01583326794207096,-0.024152344092726707,0.3552369475364685,0.30841249227523804,0.9935694932937622,-9.583965301513672
1745734836.349782,-0.018946509808301926,-0.01883726939558983,0.3567354679107666,0.44946280121803284,0.6884363293647766,-9.610422134399414
1745734836.3799095,-0.02760731242597103,-0.021588897332549095,0.3576297461986542,0.43271604180336,0.8702481985092163,-9.822967529296875
1745734836.383795,-0.005811545066535473,-0.019720055162906647,0.357401579618454,0.28295472264289856,0.9954423904418945,-9.841326713562012
1745734836.3857727,-0.026433339342474937,-0.020466776564717293,0.3552621901035309,0.43975013494491577,0.6943119764328003,-9.703986167907715
1745734836.3884387,0.003398501081392169,-0.01958361268043518,0.3561123311519623,0.29863297939300537,1.0594907999038696,-9.574378967285156
1745734836.3895528,-0.024950185790657997,-0.016343776136636734,0.3557884693145752,0.4399715065956116,0.6454793214797974,-9.78140640258789
1745734836.4237483,-0.0064963698387146,-0.026705797761678696,0.3554598391056061,0.36790981888771057,0.9605320692062378,-9.813859939575195
1745734836.4270318,-0.009899181313812733,-0.01811319962143898,0.3569033145904541,0.4630439281463623,0.7548350095748901,-9.7699556350708
1745734836.4299717,-0.021947963163256645,-0.02163083292543888,0.3543514609336853,0.3725184500217438,0.900840163230896,-9.711435317993164
1745734836.4300306,-0.001681407680734992,-0.02068326435983181,0.3560267984867096,0.318349152803421,0.7457002997398376,-9.747305870056152
1745734836.4670413,-0.025448506698012352,-0.026644151657819748,0.35558265447616577,0.5330079793930054,0.7563823461532593,-9.698424339294434
1745734836.4696662,-0.011339797638356686,-0.016583295539021492,0.355637788772583,0.32095450162887573,0.8536043167114258,-9.80571460723877
1745734836.4731455,-0.023271946236491203,-0.022908130660653114,0.3580879271030426,0.4860033094882965,0.7125030755996704,-9.719813346862793
1745734836.476348,-0.015156103298068047,-0.027823563665151596,0.3569062650203705,0.3312418758869171,0.9258416295051575,-9.737236022949219
1745734836.47859,-0.012025291100144386,-0.018503371626138687,0.35689330101013184,0.4293997883796692,0.7299178242683411,-9.803194046020508
1745734836.5178163,-0.025883078575134277,-0.024482261389493942,0.3570723533630371,0.35294610261917114,1.0098836421966553,-9.687423706054688
1745734836.5229254,-0.0027228742837905884,-0.024432821199297905,0.3549116551876068,0.36924225091934204,0.7101208567619324,-9.745911598205566
1745734836.5261035,-0.019956033676862717,-0.026342814788222313,0.35787591338157654,0.4649485647678375,0.9583598375320435,-9.73649787902832
1745734836.5371966,-0.0025929040275514126,-0.020498059689998627,0.3555351197719574,0.2683756351470947,0.8315441012382507,-9.834284782409668
1745734836.5541167,-0.015390696004033089,-0.02495758794248104,0.35835620760917664,0.4366943836212158,0.7288991212844849,-9.654474258422852
1745734836.556165,-0.008981190621852875,-0.023577237501740456,0.353829950094223,0.37281614542007446,1.0229688882827759,-9.686311721801758
1745734836.5574186,-0.02643219567835331,-0.02109832689166069,0.35437092185020447,0.4330073297023773,0.6195451021194458,-9.901227951049805
1745734836.5974011,-0.007175906095653772,-0.027289768680930138,0.3546982705593109,0.3090481758117676,1.05173659324646,-9.701925277709961
1745734836.6027591,-0.013465735130012035,-0.025224024429917336,0.3562871217727661,0.48243942856788635,0.6712899208068848,-9.648880004882812
1745734836.6068802,-0.01934061571955681,-0.02440427616238594,0.35576075315475464,0.37972256541252136,0.9623894691467285,-9.797819137573242
1745734836.6107712,0.0005478232051245868,-0.0209280364215374,0.3547589182853699,0.3511563837528229,0.8045842051506042,-9.854616165161133
1745734836.6159365,-0.023262994363904,-0.030147215351462364,0.3561885356903076,0.44535771012306213,0.81452876329422,-9.697783470153809
1745734836.6405797,0.006765901111066341,-0.023767344653606415,0.35807326436042786,0.35027316212654114,0.9177793264389038,-9.693511962890625
1745734836.6450884,-0.02222985401749611,-0.025275547057390213,0.3564373850822449,0.4922274649143219,0.7667078971862793,-9.781758308410645
1745734836.648595,-0.003385332180187106,-0.030487533658742905,0.3548887372016907,0.30096501111984253,0.8865289688110352,-9.873432159423828
1745734836.6512876,-0.011273193173110485,-0.023919934406876564,0.3551144003868103,0.5137432217597961,0.7367756962776184,-9.739173889160156
1745734836.6831448,-0.012470145709812641,-0.02681184746325016,0.3542671799659729,0.33270615339279175,0.921430230140686,-9.655184745788574
1745734836.686185,-0.004397773649543524,-0.02552926167845726,0.3592144548892975,0.3341396450996399,0.6590665578842163,-9.764413833618164
1745734836.689868,-0.0168733149766922,-0.031794846057891846,0.3564435839653015,0.49862679839134216,0.8739053010940552,-9.721390724182129
1745734836.6899607,-0.015168063342571259,-0.032068271189928055,0.3618486523628235,0.35782819986343384,0.9684202075004578,-9.505605697631836
1745734836.7256248,-0.012691344134509563,-0.022663209587335587,0.3644169569015503,0.3798091411590576,0.6762795448303223,-9.763418197631836
1745734836.7301638,-0.019084293395280838,-0.02673443593084812,0.3642357885837555,0.4184192717075348,0.9468051791191101,-9.86291217803955
1745734836.7345505,-0.008093992248177528,-0.02773824892938137,0.35981836915016174,0.27661073207855225,0.7977837324142456,-9.850194931030273
1745734836.7351353,-0.016315508633852005,-0.026884520426392555,0.3621240258216858,0.500961184501648,0.7771366834640503,-9.600020408630371
1745734836.738123,-0.015735376626253128,-0.025142472237348557,0.3614266514778137,0.32939696311950684,1.011938214302063,-9.627366065979004
1745734836.7712705,-0.021213065832853317,-0.029073813930153847,0.36173805594444275,0.4666268229484558,0.5274395942687988,-9.974946975708008
1745734836.7746701,-0.011776561848819256,-0.029361817985773087,0.36410510540008545,0.447291761636734,1.0547380447387695,-9.808937072753906
1745734836.7787604,-0.019005049020051956,-0.02054480090737343,0.36248549818992615,0.39793315529823303,0.6203755140304565,-9.732636451721191
1745734836.7799582,-0.020275525748729706,-0.03248864412307739,0.3631322681903839,0.32291916012763977,0.9501476287841797,-9.568283081054688
1745734836.8113792,-0.005512642674148083,-0.029747966676950455,0.3643583655357361,0.37322455644607544,0.7819092273712158,-9.782136917114258
1745734836.8129191,-0.026264425367116928,-0.026080122217535973,0.3644508123397827,0.46950942277908325,0.8249005079269409,-9.911186218261719
1745734836.81748,-0.0002600794250611216,-0.02447998896241188,0.3642217218875885,0.3111882209777832,1.001467227935791,-9.716835021972656
1745734836.8213377,-0.023114873096346855,-0.03130488097667694,0.3620421290397644,0.47201329469680786,0.6657476425170898,-9.653451919555664
1745734836.8249981,-0.0011194427497684956,-0.031321845948696136,0.3669759929180145,0.3313346803188324,0.9775919914245605,-9.793940544128418
1745734836.8575108,-0.01963956095278263,-0.021638892590999603,0.3627551198005676,0.44882622361183167,0.6559650897979736,-9.86347770690918
1745734836.860025,-0.018891680985689163,-0.03236984461545944,0.3648197650909424,0.33715128898620605,0.8415307998657227,-9.685139656066895
1745734836.862484,-0.010745001956820488,-0.026975324377417564,0.36272701621055603,0.43832722306251526,0.772666871547699,-9.640324592590332
1745734836.8641424,-0.03194620460271835,-0.027883971109986305,0.363370418548584,0.4380553364753723,0.8282874226570129,-9.811286926269531
1745734836.9001958,-0.004206014331430197,-0.024982677772641182,0.3650514483451843,0.25815320014953613,0.8601188659667969,-9.859491348266602
1745734836.9009104,-0.02326303906738758,-0.028933104127645493,0.36666297912597656,0.454969584941864,0.7640413641929626,-9.643938064575195
1745734836.9042642,-0.013257903046905994,-0.02785421907901764,0.3634279668331146,0.3119506239891052,0.9412792325019836,-9.646199226379395
1745734836.9061913,-0.010098504833877087,-0.022800946608185768,0.36373311281204224,0.2824367880821228,0.8748914003372192,-9.822308540344238
1745734836.941259,-0.022865179926156998,-0.025600764900445938,0.3647727072238922,0.3747791349887848,0.6817681193351746,-9.52343463897705
1745734836.9439719,-0.008791415020823479,-0.03350876644253731,0.365814745426178,0.35483571887016296,1.035226821899414,-9.59748363494873
1745734836.947125,-0.021086430177092552,-0.02506636641919613,0.3645196557044983,0.46539729833602905,0.6372871398925781,-10.034332275390625
1745734836.9493513,-0.009156974032521248,-0.025426030158996582,0.3660709261894226,0.3573582172393799,0.989102840423584,-9.815631866455078
1745734836.9503884,-0.011732766404747963,-0.025928471237421036,0.3647831976413727,0.28388428688049316,0.688165009021759,-9.601003646850586
1745734836.992727,-0.01848025992512703,-0.0310048870742321,0.364890992641449,0.442222535610199,0.7611335515975952,-9.60082721710205
1745734836.992895,-0.01313166506588459,-0.02453063428401947,0.3644561171531677,0.35005122423171997,0.9175752401351929,-9.84644889831543
1745734836.992973,-0.03197414427995682,-0.02840276062488556,0.36491256952285767,0.4595091938972473,0.5545663833618164,-9.930482864379883
1745734836.9930415,-0.011508163996040821,-0.028126392513513565,0.3627646565437317,0.3585397005081177,1.0230042934417725,-9.61656379699707
1745734837.0285232,-0.035573966801166534,-0.0235738642513752,0.36511021852493286,0.4372466206550598,0.5906016826629639,-9.694722175598145
1745734837.0330982,-0.021367888897657394,-0.0303205456584692,0.3630152642726898,0.3134886622428894,1.0089151859283447,-9.73945426940918
1745734837.0353482,-0.0224536694586277,-0.02646292746067047,0.36413273215293884,0.40708422660827637,0.6959339380264282,-9.841917037963867
1745734837.0386527,-0.032118286937475204,-0.028119748458266258,0.3646487891674042,0.41555213928222656,0.9478543996810913,-9.742385864257812
1745734837.0706522,-0.027678057551383972,-0.02655203267931938,0.3633262515068054,0.37993019819259644,1.0144200325012207,-9.703596115112305
1745734837.0740323,-0.0110139986500144,-0.019807128235697746,0.35987362265586853,0.37624406814575195,0.7696187496185303,-9.915268898010254
1745734837.0777085,-0.033200159668922424,-0.024095917120575905,0.3590770959854126,0.3668913245201111,0.9281681776046753,-9.809815406799316
1745734837.0817297,-0.0042479014955461025,-0.022252405062317848,0.35830748081207275,0.32373979687690735,0.7941378355026245,-9.6273775100708
1745734837.0841482,-0.027762901037931442,-0.023673897609114647,0.3601014018058777,0.524410605430603,0.8576798439025879,-9.530787467956543
1745734837.1176133,-0.02029344066977501,-0.02515013888478279,0.36001691222190857,0.24809381365776062,0.9065229296684265,-9.968497276306152
1745734837.1214216,-0.022447317838668823,-0.02232273481786251,0.3587874174118042,0.5036829113960266,0.6931520700454712,-9.896833419799805
1745734837.1233478,-0.017706019803881645,-0.02343219332396984,0.3579655587673187,0.36319684982299805,1.0355665683746338,-9.527939796447754
1745734837.1264486,-0.020398518070578575,-0.01876777969300747,0.3585430085659027,0.332597017288208,0.696136474609375,-9.65799617767334
1745734837.1580675,-0.019508015364408493,-0.029035568237304688,0.3612273931503296,0.3605935275554657,0.9261230230331421,-9.83926010131836
1745734837.1600873,-0.014221416786313057,-0.017671536654233932,0.35875219106674194,0.3430202603340149,0.8358607292175293,-9.819366455078125
1745734837.1611018,-0.02120368927717209,-0.020059797912836075,0.36061930656433105,0.4322580397129059,0.8253609538078308,-9.610688209533691
1745734837.164293,-0.013199945911765099,-0.02504732273519039,0.35668033361434937,0.2656465172767639,0.9859156608581543,-9.745015144348145
1745734837.1999543,-0.023276343941688538,-0.021867875009775162,0.3575337529182434,0.4837929308414459,0.649628758430481,-9.876670837402344
1745734837.2036138,-0.01301555149257183,-0.021915312856435776,0.3550640046596527,0.35479551553726196,1.1092911958694458,-9.631224632263184
1745734837.2085047,-0.03194674104452133,-0.02077559195458889,0.3567768931388855,0.39551281929016113,0.5846965909004211,-9.760801315307617
1745734837.2135851,-0.019136976450681686,-0.03163013607263565,0.3557418882846832,0.44231900572776794,1.0265527963638306,-9.739652633666992
1745734837.2173767,-0.018651064485311508,-0.017862869426608086,0.3570162355899811,0.3816430866718292,0.7979604601860046,-9.81620979309082
1745734837.2427425,-0.02555396594107151,-0.021077271550893784,0.3572969436645508,0.3759297728538513,0.9066706895828247,-9.6679048538208
1745734837.2468402,-0.0020303274504840374,-0.024580374360084534,0.3577395975589752,0.31183308362960815,0.9381235837936401,-9.69316291809082
1745734837.252102,-0.020807091146707535,-0.020824456587433815,0.35867738723754883,0.4801464080810547,0.8328262567520142,-9.742042541503906
1745734837.2568526,-0.013123169541358948,-0.01799984835088253,0.35555675625801086,0.3082464635372162,0.8738031387329102,-9.634000778198242
1745734837.2874768,-0.021584080532193184,-0.022971361875534058,0.3567095398902893,0.4582153260707855,0.6828089356422424,-9.872255325317383
1745734837.289463,-0.010331946425139904,-0.02075529471039772,0.35709348320961,0.3506665825843811,1.11427903175354,-9.796984672546387
1745734837.2916737,-0.007460387889295816,-0.018055526539683342,0.35590726137161255,0.4022417962551117,0.7692288160324097,-9.717141151428223
1745734837.2942407,-0.012739020399749279,-0.02328239381313324,0.35350552201271057,0.272115021944046,1.1130905151367188,-9.664308547973633
1745734837.3279066,0.003393409075215459,-0.020076502114534378,0.3541659414768219,0.32887426018714905,0.7507582902908325,-9.770421981811523
1745734837.3307657,-0.007763030473142862,-0.02029126137495041,0.3555860221385956,0.4691700339317322,0.968542218208313,-9.665772438049316
1745734837.3338392,-0.0014070530887693167,-0.018121512606739998,0.3527558445930481,0.24928884208202362,0.8295365571975708,-9.845253944396973
1745734837.3372812,-0.009302997030317783,-0.02421407587826252,0.35089465975761414,0.4983616769313812,0.7321920394897461,-9.725193977355957
1745734837.3406227,-0.001239634701050818,-0.02184782177209854,0.3534602224826813,0.3407473862171173,0.9789046049118042,-9.667840957641602
1745734837.374961,-0.011261967942118645,-0.01278139092028141,0.35469502210617065,0.4373714327812195,0.6475092172622681,-9.790921211242676
1745734837.3775826,-0.006654616445302963,-0.023132022470235825,0.3525350093841553,0.3297286331653595,0.9522262811660767,-9.782092094421387
1745734837.3819256,-0.0045214081183075905,-0.019240962341427803,0.3549667298793793,0.41690248250961304,0.7792472839355469,-9.719515800476074
1745734837.3845458,-0.007040490861982107,-0.02141163870692253,0.3544153571128845,0.4299201965332031,0.9356756210327148,-9.707356452941895
1745734837.4181254,0.000844560272525996,-0.01833115518093109,0.35452550649642944,0.25542283058166504,0.9227932691574097,-9.888496398925781
1745734837.4217908,0.000438212271546945,-0.015398615971207619,0.3497810363769531,0.48765724897384644,0.7958327531814575,-9.980056762695312
1745734837.4264941,0.0037230246234685183,-0.017116788774728775,0.3504123091697693,0.37874385714530945,1.0157287120819092,-9.730204582214355
1745734837.4297414,0.015880273655056953,-0.012583133764564991,0.34987181425094604,0.34949082136154175,0.8369142413139343,-9.628159523010254
1745734837.4575393,-0.010533245280385017,-0.019746150821447372,0.3495103418827057,0.38986843824386597,0.7743169665336609,-9.770986557006836
1745734837.4639013,0.026282671838998795,-0.01752522960305214,0.34777480363845825,0.35261985659599304,0.826321005821228,-9.815542221069336
1745734837.4692023,-0.014667418785393238,-0.012890389189124107,0.34952378273010254,0.505791187286377,0.7345070838928223,-9.731427192687988
1745734837.4734404,0.009676015935838223,-0.020398106426000595,0.3493298590183258,0.2902560532093048,0.8941541910171509,-9.75160026550293
1745734837.499102,0.002110087778419256,-0.020415049046278,0.34914135932922363,0.48558053374290466,0.7554469108581543,-9.726855278015137
1745734837.503229,0.0031357400584965944,-0.016418669372797012,0.3506622910499573,0.33575892448425293,0.9506239891052246,-9.763102531433105
1745734837.5047789,0.009713167324662209,-0.012403419241309166,0.3485961854457855,0.39995652437210083,0.6572548747062683,-9.80038833618164
1745734837.5072668,0.0012265511322766542,-0.025119608268141747,0.3499952256679535,0.40534114837646484,0.9835882186889648,-9.608602523803711
1745734837.507303,0.018562976270914078,-0.01839177869260311,0.3512634336948395,0.3676384687423706,0.7191170454025269,-9.822319030761719
1745734837.5537326,-0.0038300305604934692,-0.01680915430188179,0.35058727860450745,0.4243749976158142,0.8506251573562622,-9.877321243286133
1745734837.553804,0.012332288548350334,-0.018810827285051346,0.3502104580402374,0.273967444896698,0.803972601890564,-9.671303749084473
1745734837.5538385,0.003624893259257078,-0.02074933424592018,0.34966498613357544,0.5634328126907349,0.687750518321991,-9.543485641479492
1745734837.5538728,-0.002581653418019414,-0.020908672362565994,0.35052889585494995,0.3781530559062958,0.9945639371871948,-9.903421401977539
1745734837.58607,0.0024778705555945635,-0.019013062119483948,0.34814199805259705,0.4048789143562317,0.5763139724731445,-9.987138748168945
1745734837.589945,0.000151478496263735,-0.022967731580138206,0.349761962890625,0.3701779544353485,0.9594341516494751,-9.490592956542969
1745734837.5935035,-0.00013485978706739843,-0.014355522580444813,0.35269179940223694,0.35692134499549866,0.6312192678451538,-9.589059829711914
1745734837.59778,-0.005939292721450329,-0.02225937880575657,0.3521360158920288,0.43954572081565857,0.8347263336181641,-9.827061653137207
1745734837.632027,0.01104793418198824,-0.021168328821659088,0.35471707582473755,0.3043780028820038,0.8476999998092651,-9.897817611694336
1745734837.63597,0.0012084923218935728,-0.0246624443680048,0.3525514006614685,0.4768385887145996,0.7752560377120972,-9.6850004196167
1745734837.6393785,0.009529730305075645,-0.023506639525294304,0.35469290614128113,0.3455323278903961,0.9295154809951782,-9.644343376159668
1745734837.6445541,0.010028118267655373,-0.021512974053621292,0.35481518507003784,0.3885863423347473,0.7192205190658569,-9.84691333770752
1745734837.6733115,-0.0007032862049527466,-0.025586646050214767,0.3540341258049011,0.33870381116867065,0.897717297077179,-9.786954879760742
1745734837.6744945,0.022792460396885872,-0.02191411331295967,0.35448914766311646,0.42292124032974243,0.7326958775520325,-9.618501663208008
1745734837.6770825,-0.009055529721081257,-0.025330480188131332,0.3535122275352478,0.5232528448104858,0.8323267102241516,-9.703859329223633
1745734837.6794238,0.017108477652072906,-0.027332667261362076,0.3545215129852295,0.3106074333190918,0.8021023869514465,-9.970352172851562
1745734837.684975,0.0007045624079182744,-0.02620406448841095,0.3538057208061218,0.45644158124923706,0.6875463724136353,-9.744927406311035
1745734837.7174375,0.006452840752899647,-0.01978425309062004,0.3575003743171692,0.3359602391719818,0.870374321937561,-9.499818801879883
1745734837.7212133,0.0044099753722548485,-0.027218986302614212,0.35741329193115234,0.47315630316734314,0.6239139437675476,-9.728304862976074
1745734837.7213135,0.0054447222501039505,-0.0315239243209362,0.3559184670448303,0.38495904207229614,1.0534923076629639,-9.888669967651367
1745734837.7226818,0.01944594457745552,-0.02131751738488674,0.3560097813606262,0.41234761476516724,0.6784045100212097,-9.922700881958008
1745734837.7594519,0.0026448960416018963,-0.024481240659952164,0.3548368513584137,0.38662752509117126,1.0245418548583984,-9.539505958557129
1745734837.7637537,0.010112157091498375,-0.02796754240989685,0.35568347573280334,0.2927713990211487,0.6385716199874878,-9.654584884643555
1745734837.7776825,0.0010841380571946502,-0.02742081880569458,0.3556966781616211,0.3043827414512634,1.0481295585632324,-9.619466781616211
1745734837.7779934,-0.0066097513772547245,-0.027542078867554665,0.356160432100296,0.4295419752597809,0.5144640207290649,-9.669759750366211
1745734837.80533,-0.004924161359667778,-0.028822418302297592,0.3562085032463074,0.3438529968261719,1.0020904541015625,-9.828718185424805
1745734837.8079054,-0.006085203029215336,-0.02025444433093071,0.35722261667251587,0.30181822180747986,0.5923875570297241,-9.933432579040527
1745734837.8093157,-0.009312016889452934,-0.03019816242158413,0.35619428753852844,0.4531189501285553,0.727232813835144,-9.580817222595215
1745734837.81187,-0.002073184121400118,-0.024547085165977478,0.3564697802066803,0.39975056052207947,0.8147009015083313,-9.698025703430176
1745734837.8130407,-0.018315497785806656,-0.026791924610733986,0.35791850090026855,0.42009806632995605,0.5883796811103821,-9.98069953918457
1745734837.8465307,-0.0003950900863856077,-0.027784258127212524,0.35812994837760925,0.23507502675056458,0.8750103116035461,-9.78057861328125
1745734837.8490639,-0.016997767612338066,-0.02339213155210018,0.357829749584198,0.4954703450202942,0.5484498739242554,-9.532920837402344
1745734837.8511627,-0.016323694959282875,-0.027124276384711266,0.3597096800804138,0.3236822187900543,0.8926097750663757,-9.723001480102539
1745734837.8555295,-0.007025361061096191,-0.02344527095556259,0.35792213678359985,0.3691919445991516,0.6873077750205994,-9.942302703857422
1745734837.8879974,-0.01835729368031025,-0.029320215806365013,0.3554578125476837,0.4464053213596344,0.8309189677238464,-9.775257110595703
1745734837.8904848,0.0017209704965353012,-0.021939251571893692,0.3577214479446411,0.33166736364364624,0.8292258977890015,-9.662343978881836
1745734837.8916771,-0.026741981506347656,-0.02638230286538601,0.35703718662261963,0.41303935647010803,0.6600226163864136,-9.729997634887695
1745734837.8938231,0.002950869034975767,-0.02947043813765049,0.35719141364097595,0.33447590470314026,0.8438172340393066,-9.815043449401855
1745734837.8950856,-0.022311454638838768,-0.020738894119858742,0.3579576909542084,0.5494378805160522,0.6970165967941284,-9.805452346801758
1745734837.9324825,-0.00849673617631197,-0.027991238981485367,0.35723093152046204,0.25521957874298096,0.8979191780090332,-9.783536911010742
1745734837.9354286,-0.008098341524600983,-0.02379421517252922,0.3602558970451355,0.34890398383140564,0.5949550271034241,-9.720588684082031
1745734837.9381993,-0.017356805503368378,-0.025171782821416855,0.35763663053512573,0.4347657263278961,0.8783599734306335,-9.621156692504883
1745734837.9428453,-0.007319243159145117,-0.02002994902431965,0.36020612716674805,0.37112730741500854,0.6078553795814514,-9.88248348236084
1745734837.9752085,-0.01731347106397152,-0.028138378635048866,0.3606685996055603,0.4470047354698181,0.8541391491889954,-9.786112785339355
1745734837.9785693,-0.003763349261134863,-0.026404857635498047,0.36194735765457153,0.2762794494628906,1.0226523876190186,-9.710763931274414
1745734837.9823527,-0.02508053556084633,-0.02921919897198677,0.35981497168540955,0.4420982301235199,0.5097547173500061,-9.736851692199707
1745734837.9847217,-0.00294562173075974,-0.028195764869451523,0.36247214674949646,0.3396145701408386,1.023804783821106,-9.717864036560059
1745734838.0164657,-0.026360075920820236,-0.01895749196410179,0.3628740906715393,0.3770661950111389,0.5767728686332703,-9.807169914245605
1745734838.0174649,-0.019709404557943344,-0.03282690793275833,0.362251341342926,0.4006245732307434,0.7658801078796387,-9.646944999694824
1745734838.0206592,-0.014331604354083538,-0.024370726197957993,0.36029547452926636,0.4444255828857422,0.7603489756584167,-9.707119941711426
1745734838.024151,-0.03679110109806061,-0.02612883970141411,0.362587034702301,0.3975175619125366,0.6569396257400513,-9.95528507232666
1745734838.0270052,-0.008095315657556057,-0.024544114246964455,0.3641130328178406,0.22753481566905975,0.8167926669120789,-9.75285530090332
1745734838.0616095,-0.034228138625621796,-0.024524081498384476,0.36270883679389954,0.5348426103591919,0.6087440252304077,-9.491496086120605
1745734838.0650377,-0.024982763454318047,-0.024145402014255524,0.36502498388290405,0.3126438856124878,0.8731274604797363,-9.758081436157227
1745734838.0706494,-0.028735658153891563,-0.022624898701906204,0.36510056257247925,0.43628042936325073,0.6540839672088623,-9.989001274108887
1745734838.0718205,-0.029780203476548195,-0.03121115267276764,0.36344191431999207,0.3742895722389221,0.9200516939163208,-9.780375480651855
1745734838.110443,-0.019544323906302452,-0.021479984745383263,0.3625980615615845,0.35561543703079224,0.7465744018554688,-9.641908645629883
1745734838.1105893,-0.04251832515001297,-0.027180593460798264,0.36072176694869995,0.3916776180267334,0.855430006980896,-9.679205894470215
1745734838.110692,-0.016985386610031128,-0.029708433896303177,0.36339670419692993,0.3642849326133728,0.6938673853874207,-9.875842094421387
1745734838.116628,-0.027914930135011673,-0.02623440884053707,0.3588619828224182,0.27476945519447327,0.9463149309158325,-9.685075759887695
1745734838.1489136,-0.01637534610927105,-0.019779395312070847,0.36033302545547485,0.4244648814201355,0.6621330976486206,-9.711294174194336
1745734838.1517627,-0.03521313890814781,-0.019970441237092018,0.3580562174320221,0.3904164433479309,0.9973839521408081,-9.735452651977539
1745734838.156124,-0.022043639793992043,-0.023243192583322525,0.35916656255722046,0.3436133563518524,0.6205031275749207,-9.88013744354248
1745734838.1597145,-0.033749233931303024,-0.02465800568461418,0.35656896233558655,0.4912647306919098,0.8776570558547974,-9.668058395385742
1745734838.1890073,-0.026119258254766464,-0.017510507255792618,0.35800838470458984,0.24910089373588562,0.7978207468986511,-9.743546485900879
1745734838.1915493,-0.03413177281618118,-0.02263176627457142,0.35825586318969727,0.401481568813324,0.6731991767883301,-9.730822563171387
1745734838.1973844,-0.022405734285712242,-0.025403792038559914,0.35873693227767944,0.3491525650024414,1.0014898777008057,-9.673559188842773
1745734838.200302,-0.03194049745798111,-0.015293797478079796,0.35892993211746216,0.4217091500759125,0.6505707502365112,-9.824411392211914
1745734838.2072246,-0.02164561115205288,-0.022900009527802467,0.35845187306404114,0.32263505458831787,1.106350302696228,-9.706865310668945
1745734838.2343094,-0.02084597572684288,-0.023196881636977196,0.3584255278110504,0.345042884349823,0.6388714909553528,-9.823216438293457
1745734838.235372,-0.01810300722718239,-0.02240729331970215,0.35974979400634766,0.4235648512840271,0.9421439170837402,-9.703370094299316
1745734838.2382057,-0.019242798909544945,-0.015872294083237648,0.3568912148475647,0.2624690532684326,0.8209991455078125,-9.699753761291504
1745734838.240458,-0.02805650234222412,-0.023755419999361038,0.3597750663757324,0.44406747817993164,0.6299200057983398,-9.708498001098633
1745734838.2747207,-0.014283031225204468,-0.020974161103367805,0.35487300157546997,0.38442903757095337,0.986066460609436,-9.751564025878906
1745734838.275533,-0.03230700269341469,-0.01477211993187666,0.35925692319869995,0.4476701617240906,0.5942075252532959,-9.891316413879395
1745734838.276948,-0.01775887794792652,-0.02163606323301792,0.3563775420188904,0.26305556297302246,0.9928514361381531,-9.65673828125
1745734838.2783415,-0.02199799008667469,-0.021228861063718796,0.35800713300704956,0.4338000416755676,0.6460415720939636,-9.638045310974121
1745734838.2800386,-0.02733447775244713,-0.020933883264660835,0.3598828911781311,0.4147090017795563,0.8897384405136108,-9.788737297058105
1745734838.3215284,-0.011295922100543976,-0.015002472326159477,0.3617182970046997,0.33833831548690796,0.7993632555007935,-9.864850997924805
1745734838.3250334,-0.011731238104403019,-0.02455851249396801,0.3589208126068115,0.23884281516075134,0.9699066877365112,-9.861474990844727
1745734838.328518,-0.011054185219109058,-0.018324745818972588,0.35707640647888184,0.4127214550971985,0.6591011881828308,-9.706892967224121
1745734838.329791,-0.016138795763254166,-0.017365405336022377,0.35785436630249023,0.3121461272239685,1.0598589181900024,-9.501358032226562
1745734838.3616095,-0.014210452325642109,-0.023184964433312416,0.3562560975551605,0.3683187961578369,0.5287187099456787,-9.83090591430664
1745734838.364123,-0.01609228178858757,-0.026453513652086258,0.35672348737716675,0.4688700735569,0.9889078140258789,-9.86355209350586
1745734838.3650947,-0.010707497596740723,-0.012524351477622986,0.3586392104625702,0.3244578242301941,0.7314611673355103,-9.835113525390625
1745734838.3689632,-0.019726894795894623,-0.018459778279066086,0.35937124490737915,0.4114643931388855,0.748896598815918,-9.525506973266602
1745734838.4060192,-0.0063428618013858795,-0.028349515050649643,0.35973504185676575,0.3512703776359558,0.8831820487976074,-9.677446365356445
1745734838.4077113,-0.026360664516687393,-0.018154386430978775,0.36009499430656433,0.5157917141914368,0.6212003827095032,-9.996404647827148
1745734838.4100738,-0.006166988052427769,-0.02006795071065426,0.3595500588417053,0.2985507845878601,1.0893945693969727,-9.747404098510742
1745734838.412217,-0.02155301347374916,-0.02442893572151661,0.3577065169811249,0.3720916509628296,0.6379915475845337,-9.627121925354004
1745734838.4536316,-0.008654803037643433,-0.02591317519545555,0.3577108383178711,0.40268754959106445,1.0408090353012085,-9.638676643371582
1745734838.4537768,-0.014275354333221912,-0.017467599362134933,0.3554704785346985,0.3921116292476654,0.8005450367927551,-9.895193099975586
1745734838.453847,-0.023047447204589844,-0.025739425793290138,0.3558650612831116,0.3928573727607727,0.7621736526489258,-9.793574333190918
1745734838.4538975,-0.0005717637250199914,-0.023419704288244247,0.35678744316101074,0.3848441243171692,0.9095834493637085,-9.57740592956543
1745734838.456335,-0.02763340435922146,-0.019614819437265396,0.35729512572288513,0.49898210167884827,0.6478102803230286,-9.744714736938477
1745734838.4903643,-0.013320115394890308,-0.023812197148799896,0.35595712065696716,0.44429293274879456,0.7383549809455872,-9.75016975402832
1745734838.4927592,0.0017122995341196656,-0.02560972236096859,0.3555017113685608,0.3654087781906128,0.9687660336494446,-9.809725761413574
1745734838.4939566,-0.002013160614296794,-0.016053130850195885,0.35331395268440247,0.4426782727241516,0.6972148418426514,-9.761063575744629
1745734838.4956315,-0.021549899131059647,-0.025395071133971214,0.3542073369026184,0.37610945105552673,0.7668518424034119,-9.701136589050293
1745734838.533434,-0.0016048101242631674,-0.023312624543905258,0.3533399999141693,0.4122755527496338,0.7474097013473511,-9.70660400390625
1745734838.5378013,-0.030387520790100098,-0.02278635837137699,0.35831788182258606,0.4320000112056732,0.7500689029693604,-9.784404754638672
1745734838.5405252,0.0067290873266756535,-0.01859956420958042,0.3625775873661041,0.36419257521629333,0.8762160539627075,-9.79289436340332
1745734838.5447683,0.0011398524511605501,-0.03396128490567207,0.35337865352630615,0.5356034636497498,1.510598063468933,-9.760843276977539
1745734838.5480258,0.015841325744986534,-0.05344630032777786,0.33620694279670715,-0.44819384813308716,1.5264158248901367,-10.323160171508789
1745734838.5807045,0.05630052089691162,-0.032754600048065186,0.31467434763908386,-0.32505956292152405,1.2882777452468872,-9.537062644958496
1745734838.5833797,0.08386401832103729,-0.043318476527929306,0.3051581382751465,-0.44699567556381226,1.7337119579315186,-9.1017484664917
1745734838.5852637,0.06192623823881149,-0.05124258995056152,0.29355499148368835,-0.9684487581253052,0.6724710464477539,-10.198282241821289
1745734838.5902028,0.11866754293441772,-0.03964827582240105,0.29489773511886597,-0.3434859812259674,-0.08451330661773682,-9.777520179748535
