timestamp,angular_vel_x,angular_vel_y,angular_vel_z,linear_acc_x,linear_acc_y,linear_acc_z
1745669378.6975372,-0.034546881914138794,-0.012796217575669289,0.20528006553649902,0.645177960395813,-0.16217270493507385,-9.499116897583008
1745669378.754149,-0.0496075302362442,-0.01715628243982792,0.20841975510120392,0.831184983253479,-0.21203657984733582,-9.688909530639648
1745669378.7541895,-0.03470391035079956,-0.00803881511092186,0.21419267356395721,0.6839935183525085,-0.17458662390708923,-10.060762405395508
1745669378.7546957,-0.058995187282562256,-0.010038102976977825,0.21646110713481903,0.7911690473556519,-0.2910619378089905,-9.799199104309082
1745669378.75638,-0.05768426135182381,-0.013640223070979118,0.2209913283586502,0.7642626166343689,-0.25238218903541565,-9.473029136657715
1745669378.76648,-0.16605035960674286,-0.030652964487671852,0.3317669928073883,0.7884618639945984,0.10440144687891006,-9.58894157409668
1745669378.7775583,-0.19030790030956268,-0.03303513675928116,0.3359494209289551,0.6435811519622803,0.0560913160443306,-9.734713554382324
1745669378.7935367,-0.16884920001029968,-0.03216098994016647,0.3367246687412262,0.7606008648872375,0.07433919608592987,-9.839686393737793
1745669378.7952955,-0.19395576417446136,-0.03360946476459503,0.339172899723053,0.7728720903396606,0.15964575111865997,-9.770995140075684
1745669378.8007216,-0.17918334901332855,-0.02717556431889534,0.34173551201820374,0.6300055384635925,0.0685054212808609,-9.716286659240723
1745669378.8020296,-0.1892283707857132,-0.0363636240363121,0.3434332311153412,0.718425989151001,0.18205204606056213,-9.6084623336792
1745669378.8044233,-0.18861126899719238,-0.029620502144098282,0.34772926568984985,0.6133114695549011,0.1502106487751007,-9.812252044677734
1745669378.8234622,-0.17270807921886444,-0.027511393651366234,0.35234278440475464,0.7645784020423889,0.30852001905441284,-9.735185623168945
1745669378.829303,-0.19219709932804108,-0.032777704298496246,0.3518008291721344,0.5213273763656616,0.2589419484138489,-9.763556480407715
1745669378.83556,-0.16168725490570068,-0.030328813940286636,0.35227519273757935,0.7502205967903137,0.20980191230773926,-9.736528396606445
1745669378.8462837,-0.184480220079422,-0.02958115004003048,0.35455867648124695,0.6770990490913391,0.38235658407211304,-9.781545639038086
1745669378.8532355,-0.168216735124588,-0.030652645975351334,0.35569140315055847,0.6191083192825317,0.03743361309170723,-9.827047348022461
1745669378.8648946,-0.17530648410320282,-0.03285551816225052,0.3604167103767395,0.7908315062522888,0.21423664689064026,-9.61213493347168
1745669378.8690355,-0.19363072514533997,-0.02869393490254879,0.3623213768005371,0.596105694770813,0.13144975900650024,-9.836492538452148
1745669378.875379,-0.18332315981388092,-0.034697435796260834,0.36586034297943115,0.7778677940368652,0.12490089982748032,-9.801848411560059
1745669378.877527,-0.19838564097881317,-0.03072292171418667,0.3664645552635193,0.6006290912628174,0.38275834918022156,-9.693059921264648
1745669378.8848014,-0.18959979712963104,-0.028213713318109512,0.3671587109565735,0.701091468334198,0.14704418182373047,-9.786419868469238
1745669378.8885446,-0.1964188516139984,-0.035867974162101746,0.3692484200000763,0.588912844657898,0.4489167332649231,-9.69038200378418
1745669378.924012,-0.18359288573265076,-0.02821403741836548,0.37078723311424255,0.628504753112793,0.2617557644844055,-9.742074966430664
1745669378.924138,-0.1885611116886139,-0.028333187103271484,0.37201249599456787,0.638008713722229,0.36521217226982117,-9.756799697875977
1745669378.9242222,-0.18535839021205902,-0.027719411998987198,0.3743824362754822,0.510682225227356,0.37160950899124146,-9.75413990020752
1745669378.9286625,-0.1730131059885025,-0.031353630125522614,0.3759537935256958,0.7825740575790405,0.33125364780426025,-9.558273315429688
1745669378.953324,-0.18757584691047668,-0.026984145864844322,0.37766367197036743,0.513344943523407,0.48952752351760864,-9.838186264038086
1745669378.9557095,-0.17675155401229858,-0.032854530960321426,0.38285255432128906,0.60999596118927,0.4215604364871979,-9.735014915466309
1745669378.9579847,-0.1790638417005539,-0.01761740818619728,0.3840028643608093,0.5884631872177124,0.40672236680984497,-9.846384048461914
1745669378.9603307,-0.17308422923088074,-0.026470597833395004,0.385329008102417,0.7101361155509949,0.37341028451919556,-9.700979232788086
1745669378.9965057,-0.1775970160961151,-0.025721188634634018,0.3845440745353699,0.4763956069946289,0.5640209913253784,-9.756573677062988
1745669378.9976244,-0.16748924553394318,-0.026351556181907654,0.3868808150291443,0.7564137578010559,0.24835224449634552,-9.812681198120117
1745669379.000032,-0.17490620911121368,-0.022297998890280724,0.3895401060581207,0.5216367840766907,0.6085637807846069,-9.749105453491211
1745669379.0013213,-0.17136475443840027,-0.025050628930330276,0.39058777689933777,0.665263295173645,0.2846311926841736,-9.73099136352539
1745669379.0188355,-0.16536147892475128,-0.028733044862747192,0.3922433853149414,0.6107339859008789,0.5516007542610168,-9.72069263458252
1745669379.0393078,-0.17454668879508972,-0.01730874367058277,0.3932819962501526,0.5516697764396667,0.4901498854160309,-9.829408645629883
1745669379.0411062,-0.1655772626399994,-0.03199220076203346,0.3935147523880005,0.6698176264762878,0.43580374121665955,-9.675756454467773
1745669379.04261,-0.1648048609495163,-0.019948685541749,0.3943343460559845,0.5426159501075745,0.6422246098518372,-9.671173095703125
1745669379.044311,-0.16567334532737732,-0.02098653092980385,0.39436668157577515,0.6597613096237183,0.32136639952659607,-9.850553512573242
1745669379.084327,-0.16024576127529144,-0.023821882903575897,0.39499980211257935,0.5081559419631958,0.7480717897415161,-9.681640625
1745669379.0852277,-0.09221689403057098,-0.011408986523747444,0.41625842452049255,0.5135949850082397,0.8247516751289368,-9.566383361816406
1745669379.0866826,-0.09682656824588776,-0.01140451431274414,0.4139203131198883,0.579460859298706,0.7507795095443726,-9.813981056213379
1745669379.089449,-0.0930606871843338,-0.016093384474515915,0.4153617024421692,0.620169997215271,0.6576923131942749,-9.980096817016602
1745669379.124924,-0.08113671839237213,-0.002255042316392064,0.4151681959629059,0.5697248578071594,0.9386146664619446,-9.64857292175293
1745669379.1281462,-0.10129532963037491,-0.017780344933271408,0.41392356157302856,0.6022254228591919,0.5088959336280823,-9.65239143371582
1745669379.1301646,-0.06906004250049591,-0.009063785895705223,0.41553783416748047,0.5438318252563477,0.8951080441474915,-9.739423751831055
1745669379.1323385,-0.09808667004108429,-0.00846167840063572,0.41525477170944214,0.6566678881645203,0.6737568974494934,-9.855134963989258
1745669379.13468,-0.07661018520593643,-0.014697475358843803,0.4165458083152771,0.4222581386566162,0.7717782258987427,-9.786392211914062
1745669379.176856,-0.07231070101261139,-0.00840909592807293,0.41797304153442383,0.6518514156341553,0.7551454901695251,-9.547223091125488
1745669379.1770418,-0.08368868380784988,-0.008440583944320679,0.41806310415267944,0.488635390996933,0.6730805039405823,-9.809471130371094
1745669379.177101,-0.06566590815782547,-0.008366038091480732,0.4181923270225525,0.6204825639724731,0.8990024328231812,-9.767464637756348
1745669379.1771438,-0.07965107262134552,-0.01633107103407383,0.4190526008605957,0.6700035333633423,0.6197627782821655,-9.822243690490723
1745669379.2124052,-0.05720750615000725,-0.0041002752259373665,0.4188257157802582,0.5087308287620544,0.8997092247009277,-9.804109573364258
1745669379.2136636,-0.08859995752573013,-0.011791459284722805,0.41755008697509766,0.5999215841293335,0.5674939751625061,-9.734975814819336
1745669379.2152371,-0.06180481240153313,-0.0171161200851202,0.4182678759098053,0.5537087917327881,0.7785075306892395,-9.599149703979492
1745669379.2177072,-0.08147649466991425,-0.01057069469243288,0.41647863388061523,0.673958420753479,0.7850441932678223,-9.819917678833008
1745669379.2524283,-0.08296141773462296,-0.015949126332998276,0.4162670075893402,0.4907180666923523,0.6500372290611267,-10.062291145324707
1745669379.25442,-0.05599531531333923,-0.009656155481934547,0.4191073775291443,0.6758651733398438,0.9445600509643555,-9.542963981628418
1745669379.2566497,-0.07851096242666245,-0.01604531705379486,0.416140079498291,0.57598876953125,0.7463381886482239,-9.581287384033203
1745669379.2587504,-0.05162925645709038,-0.014245112426578999,0.4206444323062897,0.48558616638183594,0.8499778509140015,-9.90355396270752
1745669379.2621663,-0.06754173338413239,-0.01740991696715355,0.41888636350631714,0.6697416305541992,0.7264655232429504,-9.812776565551758
1745669379.3001008,-0.04346006363630295,-0.009450530633330345,0.4197429120540619,0.5023649334907532,0.9353983998298645,-9.615156173706055
1745669379.3034549,-0.0679524689912796,-0.014777772128582,0.4152420163154602,0.634229302406311,0.705141544342041,-9.804953575134277
1745669379.3055623,-0.049354322254657745,-0.015241725370287895,0.4176664352416992,0.4707949757575989,0.7679809331893921,-9.840553283691406
1745669379.3084364,-0.048702262341976166,-0.019927319139242172,0.419063001871109,0.7014380693435669,0.7734460830688477,-9.574644088745117
1745669379.3431554,-0.05433981493115425,-0.012476513162255287,0.417283296585083,0.46873632073402405,0.8152015805244446,-9.807365417480469
1745669379.345428,-0.03931774944067001,-0.015709448605775833,0.4192947447299957,0.6487069725990295,0.9364151954650879,-9.744122505187988
1745669379.3491013,-0.05148608610033989,-0.027254968881607056,0.41718950867652893,0.55220627784729,0.8113721609115601,-9.845192909240723
1745669379.3507948,-0.020251234993338585,-0.013094824738800526,0.41794222593307495,0.609747052192688,0.8586565852165222,-9.762520790100098
1745669379.383941,-0.05755559727549553,-0.019720088690519333,0.4152568280696869,0.5257509350776672,0.7449373006820679,-9.696354866027832
1745669379.3876815,-0.02321127988398075,-0.024053905159235,0.416430801153183,0.5756607055664062,0.7507327198982239,-9.624398231506348
1745669379.3920698,-0.047038860619068146,-0.02186005190014839,0.41540518403053284,0.7082068920135498,0.8271265029907227,-9.765820503234863
1745669379.3959122,-0.052805084735155106,-0.01960488222539425,0.41533851623535156,0.458930104970932,0.7137603759765625,-10.043787002563477
1745669379.3985348,-0.028265470638871193,-0.021628398448228836,0.4183608591556549,0.7293542623519897,0.7711108326911926,-9.531092643737793
1745669379.429564,-0.05390569567680359,-0.02255193330347538,0.4156458377838135,0.5062035322189331,0.8478097915649414,-9.56757926940918
1745669379.4338598,-0.029986459761857986,-0.02154075726866722,0.41814422607421875,0.5503145456314087,0.7434797883033752,-9.919578552246094
1745669379.4382174,-0.014763424172997475,-0.040208857506513596,0.40941041707992554,0.4465251564979553,0.9021903872489929,-9.4822359085083
1745669379.4408593,-0.023873819038271904,-0.028309891000390053,0.4118820130825043,0.643740713596344,0.7273256182670593,-9.663902282714844
1745669379.4737504,-0.019976671785116196,-0.03477289527654648,0.41295209527015686,0.5378885865211487,0.8766765594482422,-9.966318130493164
1745669379.4743261,-0.023907050490379333,-0.03229059651494026,0.4100843071937561,0.4136123061180115,0.8454984426498413,-9.893022537231445
1745669379.477397,-0.014178141951560974,-0.03529854863882065,0.40826216340065,0.6503615379333496,0.7267124056816101,-9.518437385559082
1745669379.4818902,-0.029875358566641808,-0.029121870175004005,0.40979671478271484,0.4193405508995056,1.060204267501831,-9.603815078735352
1745669379.5112994,-0.02505846880376339,-0.03939652070403099,0.40687504410743713,0.6211280822753906,0.5357416868209839,-9.913177490234375
1745669379.5126617,-0.01598173752427101,-0.03511319309473038,0.40781649947166443,0.5138252973556519,1.0959804058074951,-9.78022575378418
1745669379.5144799,-0.033166784793138504,-0.028093835338950157,0.4055151343345642,0.5003632307052612,0.6955065727233887,-9.790574073791504
1745669379.5172431,-0.021562788635492325,-0.04424120485782623,0.40858396887779236,0.5001674890518188,0.8603614568710327,-9.566563606262207
1745669379.519699,-0.01743791624903679,-0.02912173792719841,0.4058140218257904,0.5502496957778931,0.9523344039916992,-9.615281105041504
1745669379.5560455,-0.024312075227499008,-0.03338727355003357,0.40761619806289673,0.5110460519790649,0.7087635397911072,-9.94847583770752
1745669379.5605898,-0.007852228358387947,-0.035442136228084564,0.4060427248477936,0.42349353432655334,1.0896356105804443,-9.75912857055664
1745669379.5608244,-0.01016184687614441,-0.037556711584329605,0.40646156668663025,0.6735624074935913,0.7183969616889954,-9.635960578918457
1745669379.562628,-0.0054101780988276005,-0.029541397467255592,0.4042961001396179,0.39857983589172363,1.0218111276626587,-9.775176048278809
1745669379.597641,-0.016858236864209175,-0.03603298217058182,0.4038509428501129,0.5505686402320862,0.5947007536888123,-9.831840515136719
1745669379.6013095,-0.005410538055002689,-0.04074288159608841,0.40390506386756897,0.5165449380874634,0.8660672903060913,-9.59426498413086
1745669379.6034122,-0.023920802399516106,-0.028545569628477097,0.4050280451774597,0.4855824410915375,0.7877488136291504,-9.781702041625977
1745669379.6063244,-0.0254330076277256,-0.04269237443804741,0.4019191861152649,0.5708194971084595,0.6072269678115845,-9.869966506958008
1745669379.6080978,-0.01482462603598833,-0.032495345920324326,0.4025418758392334,0.5802064538002014,1.0245335102081299,-9.632200241088867
1745669379.643553,-0.0335782989859581,-0.034644417464733124,0.4029025435447693,0.5100733637809753,0.6405899524688721,-9.767088890075684
1745669379.6465786,-0.013298394158482552,-0.03612617775797844,0.4022756516933441,0.3346450924873352,0.9544674754142761,-9.746807098388672
1745669379.6482377,-0.027248535305261612,-0.04307970032095909,0.3995611071586609,0.5407348275184631,0.5453301072120667,-9.77171516418457
1745669379.6495082,-0.0013917821925133467,-0.032852575182914734,0.3965124487876892,0.5001490712165833,0.9645780324935913,-9.927413940429688
1745669379.687171,-0.03377817943692207,-0.027877623215317726,0.39636364579200745,0.5714479684829712,0.7407031059265137,-9.80656623840332
1745669379.688764,-0.012070970609784126,-0.03511859476566315,0.39886167645454407,0.37375277280807495,0.8589133024215698,-9.585553169250488
1745669379.6924713,-0.0136319100856781,-0.03484261780977249,0.39719703793525696,0.6233342289924622,0.8506234288215637,-9.59809684753418
1745669379.6954813,-0.023044180124998093,-0.02962760627269745,0.39692074060440063,0.37176311016082764,0.7853807806968689,-10.030889511108398
1745669379.7275088,-0.004530467092990875,-0.027480613440275192,0.3959980607032776,0.46313944458961487,0.9683338403701782,-9.683660507202148
1745669379.7307765,-0.021721746772527695,-0.03725322708487511,0.3957200050354004,0.5335499048233032,0.7217763066291809,-9.563505172729492
1745669379.7324038,-6.57280907034874e-05,-0.02709062024950981,0.39627593755722046,0.46346765756607056,0.9530777931213379,-9.850302696228027
1745669379.7334507,-0.02935107611119747,-0.02880242094397545,0.39483314752578735,0.5161348581314087,0.6633559465408325,-9.955667495727539
1745669379.7741303,-0.0008748050895519555,-0.030730674043297768,0.3949456810951233,0.43251410126686096,0.8967703580856323,-9.532781600952148
1745669379.7777116,-0.025082632899284363,-0.02837073802947998,0.3938411772251129,0.612070620059967,0.8121083378791809,-9.544252395629883
1745669379.7801168,-0.030028274282813072,-0.034280501306056976,0.39162230491638184,0.38818615674972534,0.6885507702827454,-10.026348114013672
1745669379.7854002,-0.008294078521430492,-0.02217807061970234,0.3819681406021118,0.44431814551353455,1.0767176151275635,-9.719786643981934
1745669379.814318,-0.005350545048713684,-0.019651859998703003,0.38581228256225586,0.48224693536758423,0.6718764901161194,-9.74559211730957
1745669379.8175015,-0.0014302374329417944,-0.030815165489912033,0.38410481810569763,0.46311840415000916,0.8838316798210144,-9.606588363647461
1745669379.8190024,-0.005484557710587978,-0.018172556534409523,0.3866303563117981,0.5051591396331787,0.8346697092056274,-9.781327247619629
1745669379.82147,0.001621333183720708,-0.02358837053179741,0.38615161180496216,0.5184457898139954,0.8908570408821106,-9.832979202270508
1745669379.8571575,-0.0020869928412139416,-0.024800041690468788,0.38430923223495483,0.323495477437973,0.960793673992157,-9.810934066772461
1745669379.85892,0.011199059896171093,-0.02745955064892769,0.38247355818748474,0.63908851146698,0.7119660377502441,-9.663614273071289
1745669379.8632061,-0.007704451680183411,-0.019831828773021698,0.3832845091819763,0.3305974304676056,1.0491083860397339,-9.713805198669434
1745669379.8659606,0.001769901835359633,-0.027314621955156326,0.38406872749328613,0.5194627642631531,0.5138341188430786,-9.805359840393066
1745669379.8687887,0.002430105581879616,-0.025440746918320656,0.382962703704834,0.48787862062454224,0.9412090182304382,-9.643601417541504
1745669379.9108536,-0.015417846851050854,-0.017442045733332634,0.38301149010658264,0.43784099817276,0.7395482659339905,-9.8070707321167
1745669379.9110317,-0.000914134259801358,-0.03400224447250366,0.3849662244319916,0.4933854639530182,0.7561293840408325,-9.731623649597168
1745669379.9111207,0.0013631221372634172,-0.01805160380899906,0.38480907678604126,0.45805835723876953,1.0005505084991455,-9.631184577941895
1745669379.9115381,-0.004443182144314051,-0.021481236442923546,0.3837026357650757,0.47850996255874634,0.6446419954299927,-9.806782722473145
1745669379.940976,0.007745945360511541,-0.023531675338745117,0.384318470954895,0.35959571599960327,1.0700143575668335,-9.682397842407227
1745669379.9429781,0.004385623149573803,-0.02669726312160492,0.3837572932243347,0.6077575087547302,0.6839138269424438,-9.736434936523438
1745669379.9447446,0.009656868875026703,-0.018962642177939415,0.38492685556411743,0.3490618169307709,1.0312516689300537,-9.814118385314941
1745669379.9472468,-0.0007602520054206252,-0.01902424916625023,0.384203165769577,0.4608824849128723,0.6687399744987488,-9.728446960449219
1745669379.9490232,0.012225333601236343,-0.029707616195082664,0.38249510526657104,0.5214748382568359,0.867794394493103,-9.522634506225586
1745669379.9891517,-0.0022559587378054857,-0.01826784573495388,0.3828366696834564,0.4340950548648834,0.894304633140564,-9.831212043762207
1745669379.993178,-0.0035669426433742046,-0.026688966900110245,0.3835669159889221,0.5271265506744385,0.5366312861442566,-10.01043701171875
1745669380.00468,0.012881363742053509,-0.019385701045393944,0.38289064168930054,0.4678996205329895,1.0316921472549438,-9.538095474243164
1745669380.0047257,0.007637854665517807,-0.02973383106291294,0.38354766368865967,0.5301817655563354,0.6609894037246704,-9.874456405639648
1745669380.0308404,0.01647856831550598,-0.015845652669668198,0.38379159569740295,0.4349047541618347,1.0205004215240479,-9.663396835327148
1745669380.032498,-0.002847811207175255,-0.026312116533517838,0.38160818815231323,0.510814905166626,0.5770630836486816,-9.701189041137695
1745669380.0333376,0.020880822092294693,-0.02497788891196251,0.38212019205093384,0.43984460830688477,0.945781409740448,-9.719792366027832
1745669380.0426798,-0.0017903499538078904,-0.019628094509243965,0.38265031576156616,0.5429232120513916,0.7471151947975159,-9.80512523651123
1745669380.075251,0.011804106645286083,-0.026146724820137024,0.3813186585903168,0.3500967025756836,0.8367972373962402,-9.768268585205078
1745669380.0793498,0.012937143445014954,-0.02270110696554184,0.3865218758583069,0.5379962921142578,0.8312776684761047,-9.612714767456055
1745669380.0809965,0.0015387057792395353,-0.020409587770700455,0.3848866820335388,0.4123128056526184,0.7252426147460938,-9.801887512207031
1745669380.0849118,0.022513067349791527,-0.0178960170596838,0.383026659488678,0.40226277709007263,1.0005083084106445,-9.709019660949707
1745669380.0883858,0.0018172452691942453,-0.03194408863782883,0.3834756910800934,0.5419413447380066,0.6628507375717163,-9.746370315551758
1745669380.1163135,0.026687059551477432,-0.01816917397081852,0.38195979595184326,0.3912320137023926,0.978571891784668,-9.828655242919922
1745669380.1166058,-0.0016708576586097479,-0.018702231347560883,0.37919583916664124,0.4930029809474945,0.7189594507217407,-9.760717391967773
1745669380.1182518,0.015812374651432037,-0.028003927320241928,0.38229814171791077,0.37532076239585876,0.7300578951835632,-9.618303298950195
1745669380.1210127,0.006886885967105627,-0.021120060235261917,0.38044753670692444,0.5750200748443604,0.8171650171279907,-9.652597427368164
1745669380.1587317,0.009848173707723618,-0.03007197007536888,0.354926735162735,0.41939282417297363,0.6055520176887512,-9.93378734588623
1745669380.1623542,0.0190981924533844,-0.03663824126124382,0.3523060977458954,0.3722871243953705,0.9050810933113098,-9.2952299118042
1745669380.1677575,0.003692294005304575,-0.03303956240415573,0.3498373031616211,0.4481780529022217,0.7090345621109009,-9.706497192382812
1745669380.1730342,0.0074873813427984715,-0.04118833690881729,0.349756121635437,0.24948759377002716,0.7305550575256348,-10.206306457519531
1745669380.2392,0.01540319062769413,-0.0225073155015707,0.3482125699520111,0.3844251036643982,0.8980003595352173,-9.753931045532227
1745669380.258667,0.0054226042702794075,-0.038762398064136505,0.34671276807785034,0.4437662959098816,0.7798246145248413,-9.406288146972656
1745669380.258788,0.02727164328098297,-0.039135925471782684,0.3446809649467468,0.2895616888999939,0.9073325991630554,-9.832807540893555
1745669380.2589154,0.018271952867507935,-0.03870614618062973,0.34755080938339233,0.4568755030632019,0.7098185420036316,-10.111100196838379
1745669380.2589648,0.03282707557082176,-0.026661735028028488,0.346312552690506,0.27843207120895386,0.7844152450561523,-9.748005867004395
1745669380.2590206,0.03685196489095688,-0.031852371990680695,0.34917595982551575,0.42023783922195435,0.7611238956451416,-9.375558853149414
1745669380.2594132,0.01796726882457733,-0.047224655747413635,0.3455008566379547,0.2545861601829529,0.6621690988540649,-9.888162612915039
1745669380.259478,0.04912661015987396,-0.031221020966768265,0.34503012895584106,0.3814237415790558,0.7570895552635193,-10.056230545043945
1745669380.2595367,0.007199300918728113,-0.027326036244630814,0.3412558138370514,0.24204020202159882,0.7563414573669434,-9.636041641235352
1745669380.2897844,0.038848474621772766,-0.039348650723695755,0.33851099014282227,0.3089851438999176,0.7074548602104187,-9.412444114685059
1745669380.2943032,0.00532177509739995,-0.045786190778017044,0.3352431654930115,0.42016133666038513,0.6306991577148438,-9.893952369689941
1745669380.2972667,0.016292963176965714,-0.02728828229010105,0.3343273103237152,0.14988061785697937,0.5875377655029297,-10.228487014770508
1745669380.301309,0.011182417161762714,-0.03080352209508419,0.336855947971344,0.3759938180446625,0.5614385604858398,-9.420722961425781
1745669380.3303277,0.006992650683969259,-0.04149326682090759,0.3366074562072754,0.2718130350112915,0.6717854738235474,-9.324634552001953
1745669380.3334508,0.008247794583439827,-0.03359437733888626,0.33721452951431274,0.3474595546722412,0.6695111393928528,-10.148635864257812
1745669380.33778,0.007481697015464306,-0.033510006964206696,0.33598318696022034,0.2326182872056961,0.738449215888977,-10.183874130249023
1745669380.3410623,0.027666568756103516,-0.02402682602405548,0.33412355184555054,0.3811487555503845,0.840182900428772,-9.296846389770508
1745669380.3734465,0.020823705941438675,-0.03420879691839218,0.32518190145492554,0.2930469214916229,0.783755362033844,-9.253183364868164
1745669380.383216,0.020674731582403183,-0.03624021261930466,0.3258717656135559,0.2795911133289337,0.7118151783943176,-9.371622085571289
1745669380.3863328,0.019663434475660324,-0.040835585445165634,0.32517439126968384,0.3181965947151184,0.53363436460495,-10.267407417297363
1745669380.3894398,0.023835953325033188,-0.017070168629288673,0.32808881998062134,0.1705438792705536,0.724218487739563,-10.06000804901123
1745669380.3917537,0.024031896144151688,-0.022998273372650146,0.3281958997249603,0.465989887714386,0.4762342870235443,-9.20013427734375
1745669380.4186046,0.004609026946127415,-0.03720730543136597,0.33150795102119446,0.4262118339538574,0.7039872407913208,-9.457301139831543
1745669380.4214845,0.01506110280752182,-0.02853003516793251,0.329706609249115,0.6605185866355896,0.45808982849121094,-10.381606101989746
1745669380.4278283,0.002770445542410016,-0.01815490424633026,0.33010026812553406,0.4146624207496643,0.8457452654838562,-10.068546295166016
1745669380.4615612,-0.00026247743517160416,-0.020046355202794075,0.3308263421058655,0.41888484358787537,0.5883525609970093,-9.291987419128418
1745669380.4677181,0.006010004319250584,-0.03934304788708687,0.33081674575805664,0.5614028573036194,0.8313137292861938,-9.346205711364746
1745669380.469028,-0.003198301885277033,-0.022351745516061783,0.3293361961841583,0.26751649379730225,0.8728032112121582,-10.325101852416992
1745669380.4691002,0.02329208515584469,-0.020545724779367447,0.3311697244644165,0.3872007131576538,0.732171893119812,-10.060574531555176
1745669380.469141,0.022987166419625282,-0.01822684332728386,0.33042222261428833,0.24268154799938202,1.074009656906128,-9.246435165405273
1745669380.4724963,0.038846515119075775,-0.028167109936475754,0.331083208322525,0.5250229239463806,0.6481378078460693,-9.506442070007324
1745669380.5052176,0.04225270822644234,-0.023320045322179794,0.33023327589035034,0.297013521194458,0.8689371347427368,-10.225801467895508
1745669380.5098612,0.02674383483827114,-0.0030999178998172283,0.3306484818458557,0.2715150713920593,0.6426709890365601,-10.048456192016602
1745669380.5116398,0.026062926277518272,-0.010667840950191021,0.333429753780365,0.5992693305015564,0.6863390207290649,-9.174349784851074
1745669380.5160215,0.011284268461167812,-0.009385780431330204,0.3344218134880066,0.29360055923461914,0.631328821182251,-9.681551933288574
1745669380.545456,0.032260261476039886,-0.012818070128560066,0.3326148986816406,0.41845011711120605,0.5841504335403442,-10.21011734008789
1745669380.5477772,0.017174052074551582,-0.004223751835525036,0.3321041166782379,0.29396703839302063,0.7797395586967468,-9.876484870910645
1745669380.5499833,0.03829226270318031,-0.00751968240365386,0.32892435789108276,0.3440517485141754,0.751308798789978,-9.305462837219238
1745669380.5517642,0.02492467127740383,-0.019235579296946526,0.32648682594299316,0.1737755537033081,0.7648888230323792,-9.748067855834961
1745669380.5884345,0.0423419289290905,-0.012928301468491554,0.3220667243003845,0.1339910477399826,0.6750113368034363,-10.075220108032227
1745669380.5915604,0.03665228560566902,-0.008373312652111053,0.32095375657081604,0.22844484448432922,0.5010442137718201,-9.681512832641602
1745669380.5924418,0.040966909378767014,-0.008798512630164623,0.3178856372833252,0.0372544601559639,0.6369923949241638,-9.416467666625977
1745669380.5941575,0.021961424499750137,-0.0237744078040123,0.31962886452674866,0.2639184892177582,0.16663631796836853,-9.8008451461792
1745669380.5962982,0.029096543788909912,-0.012312719598412514,0.3182426989078522,0.22908322513103485,0.45528626441955566,-9.961897850036621
1745669380.6327367,0.01129201054573059,-3.363061841810122e-05,0.31779396533966064,0.36712318658828735,0.3645390570163727,-9.695725440979004
1745669380.6350079,0.0025845058262348175,-0.027109935879707336,0.31556326150894165,0.2908300459384918,0.45713481307029724,-9.573643684387207
1745669380.6362045,0.0025122645311057568,-0.017831796780228615,0.3127017021179199,0.40188470482826233,0.5722676515579224,-9.824318885803223
1745669380.6380851,-0.014049207791686058,-0.014150063507258892,0.3116595149040222,0.26597005128860474,0.567816972732544,-10.03801155090332
1745669380.673692,-0.0022979399655014277,-0.0142273660749197,0.30786147713661194,0.11130028963088989,0.7824390530586243,-9.58918285369873
1745669380.6759593,0.002318446058779955,-0.024347800761461258,0.30653876066207886,0.4258098602294922,0.6820208430290222,-9.382488250732422
1745669380.6787913,0.004005434922873974,-0.018874535337090492,0.3041004240512848,0.2067285031080246,1.038532018661499,-9.918134689331055
1745669380.681733,0.026695597916841507,-0.01780262216925621,0.3023330569267273,0.3252217471599579,0.6962176561355591,-10.210530281066895
1745669380.682374,0.046116869896650314,-0.021794889122247696,0.30002889037132263,0.29199403524398804,0.967502236366272,-9.492823600769043
1745669380.720964,0.004233921878039837,-0.030510183423757553,0.2904815971851349,0.3220432996749878,0.4646316468715668,-9.480199813842773
1745669380.7227414,0.0008547812467440963,-0.019297799095511436,0.29145005345344543,0.26177677512168884,0.5856266617774963,-9.68943977355957
1745669380.7265756,0.0008322633802890778,-0.028178643435239792,0.29025202989578247,0.2774227261543274,0.5078698396682739,-9.977413177490234
1745669380.7295964,0.02735125459730625,-0.020911116153001785,0.2909215986728668,0.19029398262500763,0.9385280609130859,-9.72099781036377
1745669380.7613628,0.014018990099430084,-0.024502014741301537,0.2868953347206116,0.2669561803340912,0.6685979962348938,-9.707601547241211
1745669380.7652051,0.045435305684804916,-0.027391981333494186,0.285739004611969,0.1883889138698578,0.8838313221931458,-9.666959762573242
1745669380.767025,0.045933499932289124,-0.018981292843818665,0.2851923108100891,0.38955095410346985,0.6874707937240601,-9.801959991455078
1745669380.7702317,0.03865022584795952,-0.028335098177194595,0.2811353802680969,0.18417081236839294,0.6913865208625793,-9.911548614501953
1745669380.8043313,0.055285047739744186,-0.027960356324911118,0.2803199887275696,0.4249160885810852,0.4909638464450836,-9.74220085144043
1745669380.8074281,0.04392695054411888,-0.024135608226060867,0.28020399808883667,0.34066811203956604,0.5669993162155151,-9.676202774047852
1745669380.8109198,0.03589319437742233,-0.022981110960245132,0.2784484326839447,0.19969579577445984,0.4717375636100769,-9.836292266845703
1745669380.8131018,0.03699144348502159,-0.03725430741906166,0.28023308515548706,0.4231816828250885,0.3115825057029724,-9.724515914916992
1745669380.8157604,0.03407345712184906,-0.018666187301278114,0.27805984020233154,0.18277797102928162,0.6609659790992737,-9.82124137878418
1745669380.8498392,0.02239839732646942,-0.0259584728628397,0.27656012773513794,0.22713427245616913,0.2725672721862793,-9.929679870605469
1745669380.8499455,0.0523081012070179,-0.02890966460108757,0.28186172246932983,0.14634791016578674,0.6527086496353149,-9.512504577636719
1745669380.8510816,0.11002055555582047,0.008433880284428596,0.1353655308485031,-0.19847238063812256,0.8165271878242493,-9.766806602478027
1745669380.852614,0.11928726732730865,-0.01492132805287838,0.1331876963376999,0.1752249002456665,0.5235646367073059,-8.474700927734375
1745669380.890111,0.13017281889915466,-0.02961955964565277,0.12914979457855225,0.2782103717327118,0.5677512288093567,-9.652875900268555
1745669380.8923678,0.13207265734672546,-0.002869545016437769,0.1263917088508606,0.4702985882759094,0.4390144348144531,-11.117657661437988
1745669380.8951204,0.13965323567390442,0.0021517579443752766,0.11983903497457504,0.34841543436050415,0.34449467062950134,-10.014223098754883
1745669380.8982239,0.12670601904392242,-0.003304621670395136,0.11698669195175171,0.44515639543533325,0.22112593054771423,-8.63947868347168
1745669380.9320142,0.09941436350345612,-0.02371807210147381,0.11497747898101807,0.4431377351284027,0.06430912017822266,-9.588695526123047
1745669380.9324994,0.10366261005401611,-0.009112074971199036,0.11140324175357819,0.14052364230155945,0.2632720470428467,-10.849841117858887
1745669380.9379594,0.09417655318975449,0.006187333259731531,0.10699822008609772,0.185245081782341,0.23234009742736816,-10.124056816101074
1745669380.940595,0.099375419318676,-0.00012165350199211389,0.1023058146238327,0.014477020129561424,0.712363600730896,-8.80946159362793
1745669380.9425504,0.11282248795032501,-0.01549068558961153,0.09618933498859406,0.22458800673484802,0.49152618646621704,-9.416186332702637
1745669380.9769013,0.12413956969976425,-0.005416337866336107,0.09072645753622055,0.16825896501541138,0.6861705780029297,-10.65237045288086
1745669380.9797943,0.14625877141952515,0.017253678292036057,0.09065624326467514,0.3532423675060272,0.30611729621887207,-10.111322402954102
1745669380.981742,0.1472904086112976,0.0016927443211898208,0.08970489352941513,0.1852203905582428,0.387273371219635,-9.110528945922852
1745669380.984131,0.14415982365608215,-0.0019641094841063023,0.08940961211919785,0.2843566834926605,0.28890925645828247,-9.549373626708984
1745669381.0179384,0.1431775540113449,-0.00036753981839865446,0.08433692902326584,0.5076592564582825,0.23178398609161377,-10.397850036621094
1745669381.0312262,0.1542213261127472,0.01403979491442442,0.0758863314986229,0.25516897439956665,0.7255703806877136,-10.034589767456055
1745669381.0313313,0.1585388034582138,0.01771489717066288,0.06493385881185532,0.41999220848083496,0.5020996332168579,-9.227741241455078
1745669381.031421,0.15260806679725647,-0.002975963521748781,0.05721336603164673,0.47497478127479553,0.5411968231201172,-9.421564102172852
1745669381.0314662,0.1655728816986084,0.009911359287798405,0.05085824802517891,0.6012102365493774,0.12654827535152435,-10.30712604522705
1745669381.0643945,0.15001420676708221,0.01615404523909092,0.05123348906636238,0.1319032460451126,0.08879012614488602,-10.328167915344238
1745669381.0644498,0.17090995609760284,0.023612935096025467,0.051261771470308304,0.22659289836883545,0.027783716097474098,-9.258810043334961
1745669381.0684636,0.14904893934726715,0.01339738816022873,0.022726042196154594,0.3727770149707794,0.2121875286102295,-9.720093727111816
1745669381.069595,0.1417558640241623,0.029161754995584488,0.018225204199552536,0.4591468870639801,-0.18413463234901428,-10.43802261352539
1745669381.1057487,0.1538400948047638,0.03276488929986954,0.015363032929599285,0.3343510925769806,0.34808412194252014,-9.767215728759766
1745669381.1091883,0.14995644986629486,0.026035618036985397,0.011506994254887104,0.4429575502872467,0.3143703043460846,-9.28260326385498
1745669381.1149719,0.16088998317718506,0.016755953431129456,0.0058592818677425385,0.5287671685218811,0.34703484177589417,-9.712015151977539
1745669381.1165013,0.16436047852039337,0.023875005543231964,-0.0005463623092509806,0.2894938886165619,0.3814917206764221,-10.396150588989258
1745669381.146976,0.19775566458702087,0.033005572855472565,-0.005145081784576178,0.31013718247413635,0.15276280045509338,-9.84931468963623
1745669381.1505294,0.17242106795310974,0.034268785268068314,-0.005931529216468334,0.09026867896318436,0.24595923721790314,-9.128945350646973
1745669381.1547306,0.19504579901695251,0.02541806735098362,-0.010022273287177086,0.5449556708335876,-0.1866416037082672,-9.460664749145508
1745669381.158445,0.1750582754611969,0.025211161002516747,-0.01505610067397356,0.4763111174106598,0.2741706073284149,-10.234058380126953
1745669381.1614408,0.179652601480484,0.045555878430604935,-0.021929029375314713,0.5364999771118164,-0.04951011389493942,-10.217090606689453
1745669381.1914694,0.1879650205373764,0.029927503317594528,-0.02678697742521763,0.5289835333824158,0.18902716040611267,-9.255576133728027
1745669381.1937304,0.1563003957271576,0.03264010697603226,-0.032394297420978546,0.5669816136360168,-0.17477773129940033,-9.440706253051758
1745669381.1974075,0.17143799364566803,0.03176030516624451,-0.033168137073516846,0.5392263531684875,-0.17000064253807068,-10.139963150024414
1745669381.1981523,0.03409339860081673,-0.03582362085580826,-0.02904353104531765,0.2224927395582199,-0.20706608891487122,-10.459880828857422
1745669381.235747,0.037976909428834915,-0.020829761400818825,-0.032401539385318756,0.2095661163330078,-0.5633581876754761,-10.902349472045898
1745669381.2389922,0.04716585949063301,-0.015175526030361652,-0.03143291175365448,-0.3051973581314087,0.02501220628619194,-8.789985656738281
1745669381.2421386,0.029727447777986526,-0.016399454325437546,-0.023304879665374756,-0.10859644412994385,-0.43206268548965454,-8.422159194946289
1745669381.24819,0.06059125065803528,-0.04449682682752609,-0.006442452780902386,0.5774899125099182,-0.2493744194507599,-9.902999877929688
1745669381.275658,0.08235874027013779,-0.02903641387820244,-0.011340809985995293,0.5804368257522583,0.6863031387329102,-11.631509780883789
1745669381.2788088,0.11645402759313583,-0.02822238579392433,-0.030636250972747803,-0.19358515739440918,0.6324397325515747,-10.48145580291748
1745669381.2814825,0.09935667365789413,-0.03537488728761673,-0.040718864649534225,-0.15581922233104706,0.16734246909618378,-7.769064426422119
1745669381.2885923,0.12228282541036606,-0.08235017210245132,-0.045539163053035736,0.43346476554870605,-0.1618325263261795,-8.719916343688965
1745669381.2919202,0.07301880419254303,-0.03969200327992439,-0.040986813604831696,-0.7118563055992126,-1.097801923751831,-12.352413177490234
1745669381.3263164,0.08799593895673752,-0.001994601683691144,-0.023052729666233063,0.269320547580719,-1.6078474521636963,-9.951367378234863
1745669381.3290925,0.015369994565844536,-0.020642388612031937,-0.001291250460781157,0.3343624472618103,-1.3436176776885986,-7.127558708190918
1745669381.3327374,0.029168803244829178,-0.08251037448644638,0.0017258679727092385,0.8933695554733276,-0.03279970958828926,-9.403168678283691
1745669381.3350098,-0.03749247267842293,-0.026807328686118126,-0.00445009907707572,0.9105669260025024,-0.7065765261650085,-13.249261856079102
1745669381.3625133,0.06784714758396149,-0.0161037128418684,-0.007475173566490412,0.09549559652805328,0.6255192756652832,-10.538985252380371
1745669381.3650086,-0.02194065786898136,-0.050895094871520996,-0.013736141845583916,0.17552237212657928,-0.17479485273361206,-6.796700954437256
1745669381.3686523,0.017605310305953026,-0.06841675937175751,-0.007629808038473129,-0.04833248630166054,-0.4187358021736145,-8.93117904663086
1745669381.3715158,-0.0072456421330571175,-0.040263619273900986,-0.0030346312560141087,0.1532619297504425,-0.17208608984947205,-12.170744895935059
1745669381.3749826,0.011447456665337086,-0.011787932366132736,-0.003649892285466194,0.08532001078128815,0.10930705070495605,-10.496320724487305
1745669381.4056122,0.041893575340509415,-0.03265451639890671,-0.0022873575799167156,0.5885108709335327,0.270546019077301,-7.5410590171813965
1745669381.4068556,0.07510672509670258,-0.06008971482515335,0.002388960449025035,0.6924577355384827,0.47852811217308044,-9.365592956542969
1745669381.4089825,0.057461924850940704,-0.048870157450437546,0.003965102136135101,0.5175002813339233,-0.3665214776992798,-12.27294921875
1745669381.4123318,0.12835846841335297,-0.020785624161362648,0.007150981575250626,0.25331807136535645,-0.3611540198326111,-10.269998550415039
1745669381.4507632,0.04881623759865761,-0.03217387944459915,0.018654555082321167,0.08125191926956177,-0.28713151812553406,-11.36050796508789
1745669381.4519207,0.030075553804636,-0.01177617721259594,0.010749807581305504,0.2656487226486206,-0.5017616748809814,-10.766085624694824
1745669381.4588153,0.004695089999586344,-0.03283765912055969,0.004701049067080021,0.3212105333805084,-0.3219534754753113,-8.504262924194336
1745669381.4610937,-0.007682301104068756,-0.047656524926424026,0.0074059730395674706,0.42357510328292847,-0.8219296336174011,-9.137319564819336
1745669381.4900894,-0.0496908538043499,-0.03924967348575592,0.013187771663069725,0.44854608178138733,-0.9502550363540649,-10.991998672485352
1745669381.4923453,-0.03272818401455879,-0.013836264610290527,0.026843151077628136,0.15905553102493286,-0.9786390066146851,-10.361430168151855
1745669381.494018,-0.06536135822534561,-0.005942587740719318,0.04266580566763878,0.19276325404644012,-0.7474915981292725,-8.679926872253418
1745669381.4951768,-0.05848994851112366,-0.0329711027443409,0.05641122907400131,0.44873037934303284,-0.15257512032985687,-8.951904296875
1745669381.4973488,-0.03546086698770523,-0.008259863592684269,0.06240930035710335,0.816311240196228,0.017948418855667114,-10.937600135803223
1745669381.537434,-0.020305749028921127,0.005818838719278574,0.06035655736923218,0.7172428965568542,0.5261634588241577,-10.691587448120117
1745669381.5386348,-0.032902538776397705,-0.015978042036294937,0.06198339909315109,0.9557474851608276,-0.15065380930900574,-9.068765640258789
1745669381.5397124,-0.010091230273246765,-0.02144179493188858,0.06280922889709473,0.7983293533325195,0.07230234146118164,-9.176172256469727
1745669381.5418963,-0.05956962704658508,-0.00027448945911601186,0.06716692447662354,0.38691312074661255,-0.24538147449493408,-10.730530738830566
1745669381.5785918,-0.09074666351079941,0.04154185205698013,0.1907302439212799,0.5844812393188477,0.08552815020084381,-9.555193901062012
1745669381.5819476,-0.0642942413687706,0.027318794280290604,0.19584806263446808,0.41446051001548767,0.07066284120082855,-9.34630012512207
1745669381.5855572,-0.06042976304888725,0.021777180954813957,0.1966971606016159,0.5276765823364258,0.2449624240398407,-9.918551445007324
1745669381.5893292,-0.06425546854734421,0.028612380847334862,0.19377200305461884,0.3299593925476074,-0.02687901258468628,-10.289946556091309
1745669381.6217313,-0.04299537464976311,0.032487936317920685,0.19445358216762543,0.3784400522708893,-0.03388376533985138,-9.451967239379883
1745669381.62414,-0.06986995041370392,0.018979983404278755,0.19743555784225464,0.45447587966918945,-0.36293503642082214,-9.289316177368164
1745669381.6265113,-0.0739532858133316,0.026125872507691383,0.20198027789592743,0.29800528287887573,-0.5024789571762085,-10.044550895690918
1745669381.630316,-0.10616692155599594,0.025729119777679443,0.20696035027503967,0.4478713870048523,-0.6849542260169983,-10.064714431762695
1745669381.6654434,-0.11877663433551788,0.03167799115180969,0.21272209286689758,0.40730127692222595,-0.5154756903648376,-9.381025314331055
1745669381.6678503,-0.13042156398296356,0.023406576365232468,0.21378259360790253,0.6303259134292603,-0.2434006929397583,-9.338380813598633
1745669381.668303,-0.16247019171714783,0.015608218498528004,0.21352514624595642,0.35463768243789673,-0.11766088008880615,-10.223234176635742
1745669381.6710474,-0.12854234874248505,0.02801496721804142,0.21281103789806366,0.5302667021751404,0.05846843123435974,-10.011924743652344
1745669381.7082222,-0.160281240940094,0.026032626628875732,0.21670424938201904,0.4129754602909088,0.14777031540870667,-9.297443389892578
1745669381.7105534,-0.12437450885772705,0.014659561216831207,0.216703861951828,0.38034671545028687,0.11729226261377335,-9.432716369628906
1745669381.7122076,-0.13578586280345917,0.012643001973628998,0.21891899406909943,0.5477235913276672,0.33027803897857666,-10.024273872375488
1745669381.7146988,-0.11091551929712296,0.027619902044534683,0.22075124084949493,0.322459876537323,0.21352069079875946,-10.126860618591309
1745669381.7161596,-0.08349594473838806,0.017110425978899002,0.22272257506847382,0.6289376020431519,0.4619389474391937,-9.226664543151855
1745669381.7513778,-0.08810088783502579,0.004573484417051077,0.22424599528312683,0.4939831793308258,0.2650383710861206,-9.559800148010254
1745669381.7604868,-0.0625571608543396,0.01325235702097416,0.2245461493730545,0.5350171327590942,0.12886348366737366,-10.279873847961426
1745669381.7618089,-0.07606177031993866,0.009470325894653797,0.22681334614753723,0.39891380071640015,0.010359814390540123,-9.947998046875
1745669381.7643828,-0.06614798307418823,0.016929101198911667,0.2301158607006073,0.4387750029563904,-0.27466726303100586,-9.162285804748535
1745669381.792282,-0.09505834430456161,0.00037545192753896117,0.23283720016479492,0.5354521870613098,-0.08948318660259247,-9.409972190856934
1745669381.7946317,-0.10461648553609848,0.0036321573425084352,0.23295554518699646,0.3223634660243988,-0.317000150680542,-10.350478172302246
1745669381.7974641,-0.1321694552898407,-0.0037459987215697765,0.2443036586046219,0.7180677056312561,-0.40664559602737427,-9.579935073852539
1745669381.8002672,-0.17222300171852112,0.006862812675535679,0.24934399127960205,0.5865436792373657,0.01597786508500576,-10.192998886108398
1745669381.8365748,-0.15294703841209412,0.018517550081014633,0.2566884160041809,0.6211974024772644,-0.07599374651908875,-9.93852424621582
1745669381.837655,-0.15395458042621613,0.002380865393206477,0.25869446992874146,0.7066921591758728,0.5704532861709595,-9.15393352508545
1745669381.8397589,-0.14879344403743744,-0.0011354883899912238,0.2581329941749573,0.5381758809089661,0.39782512187957764,-9.761587142944336
1745669381.8423815,-0.10940141975879669,0.004046543501317501,0.2593204379081726,0.5951772332191467,0.6179223656654358,-10.08727741241455
1745669381.844607,-0.10619144141674042,0.011568212881684303,0.25672122836112976,0.3912791311740875,0.6915115118026733,-9.76667594909668
1745669381.878753,-0.08073723316192627,-0.0005720385815948248,0.26208311319351196,0.6304880380630493,0.37906911969184875,-9.340993881225586
1745669381.8811066,-0.06305654346942902,-0.005055899731814861,0.26082971692085266,0.5066115260124207,0.5189204216003418,-9.767982482910156
1745669381.8860326,-0.0659777820110321,0.01058606244623661,0.26716896891593933,0.5945767164230347,-0.00930867064744234,-10.249801635742188
1745669381.888951,-0.05352587625384331,-0.0008511944906786084,0.27008897066116333,0.5305560827255249,0.21278472244739532,-9.586773872375488
1745669381.9221423,-0.06510351598262787,0.0002969760389532894,0.2749086022377014,0.6809952855110168,-0.18055568635463715,-9.334192276000977
1745669381.9249,-0.11255498230457306,-0.01890973001718521,0.3196204602718353,0.6263485550880432,0.05066593736410141,-9.734553337097168
1745669381.934944,-0.13127222657203674,-0.01227301824837923,0.3210240304470062,0.4521484375,0.35955020785331726,-9.778264999389648
1745669381.9350166,-0.1276792585849762,-0.009961830452084541,0.3217925727367401,0.48884645104408264,0.04070178419351578,-9.923788070678711
1745669381.9657454,-0.13333800435066223,-0.01921844109892845,0.3234333395957947,0.4230097234249115,0.5239070653915405,-9.607767105102539
1745669381.969353,-0.13244271278381348,-0.014472372829914093,0.3234018385410309,0.5187638401985168,0.33845895528793335,-9.756433486938477
1745669381.970201,-0.1245802789926529,-0.015113415196537971,0.3239619731903076,0.4956786632537842,0.5574237108230591,-9.905040740966797
1745669381.9713879,-0.13020780682563782,-0.010573284700512886,0.32311564683914185,0.3896166980266571,0.5738452076911926,-9.850829124450684
1745669382.0091505,-0.10507042706012726,-0.01970820128917694,0.3223305344581604,0.633582592010498,0.4564822316169739,-9.54749870300293
1745669382.0129344,-0.1190536767244339,-0.012607820332050323,0.3232618272304535,0.359413206577301,0.6365509629249573,-9.816429138183594
1745669382.0163333,-0.10664882510900497,-0.016801919788122177,0.3257393538951874,0.5806130170822144,0.2124129980802536,-9.988941192626953
1745669382.0163858,-0.1016683354973793,-0.013414880260825157,0.32741206884384155,0.47510939836502075,0.6185978651046753,-9.621294021606445
1745669382.0186868,-0.10828077793121338,-0.009276640601456165,0.3289201259613037,0.4752170145511627,0.296418160200119,-9.681848526000977
1745669382.0531836,-0.09843287616968155,-0.02186068892478943,0.32955101132392883,0.4384077191352844,0.4695226550102234,-9.841264724731445
1745669382.0547855,-0.10573838651180267,-0.006925277411937714,0.32945510745048523,0.46253761649131775,0.474642813205719,-9.842839241027832
1745669382.058314,-0.10109714418649673,-0.01334476750344038,0.32951346039772034,0.5392571687698364,0.3020370602607727,-9.664658546447754
1745669382.0607824,-0.109607994556427,-0.01421964168548584,0.33000168204307556,0.30576246976852417,0.5288030505180359,-9.786477088928223
1745669382.093896,-0.1151030883193016,-0.013969111256301403,0.3314689099788666,0.5894325375556946,0.0928974598646164,-9.933666229248047
1745669382.0974107,-0.11393216997385025,-0.00850579421967268,0.3317941427230835,0.4108174443244934,0.5702849626541138,-9.656782150268555
1745669382.1119053,-0.12741471827030182,-0.013447871431708336,0.3359265923500061,0.5243731737136841,0.22675688564777374,-9.720866203308105
1745669382.1119938,-0.10990400612354279,-0.02051791548728943,0.3360063433647156,0.5181485414505005,0.5318198204040527,-9.87749195098877
1745669382.1120517,-0.12089095264673233,-0.006470778491348028,0.33552587032318115,0.4755488932132721,0.6091815233230591,-9.91690444946289
1745669382.1369877,-0.11221738159656525,-0.0194551981985569,0.3373822271823883,0.46825653314590454,0.42498308420181274,-9.75079345703125
1745669382.1384568,-0.10236591100692749,-0.012732893228530884,0.33795100450515747,0.4474794268608093,0.7400828003883362,-9.580803871154785
1745669382.1414838,-0.09967778623104095,-0.017383700236678123,0.339373916387558,0.6041664481163025,0.42001262307167053,-9.662603378295898
1745669382.1839092,-0.08887304365634918,-0.014816492795944214,0.34001708030700684,0.4583989977836609,0.6054313778877258,-9.79515266418457
1745669382.1840162,-0.10148496925830841,-0.012088089250028133,0.3389039933681488,0.4802645742893219,0.49862179160118103,-9.9138765335083
1745669382.186089,-0.09310944378376007,-0.020795786753296852,0.3406384289264679,0.5063435435295105,0.38974660634994507,-9.733916282653809
1745669382.1897054,-0.0970066636800766,-0.008315693587064743,0.3399510979652405,0.4150125980377197,0.6127524375915527,-9.638582229614258
1745669382.1927304,-0.11835455894470215,-0.019994881004095078,0.34197306632995605,0.47028833627700806,0.16618700325489044,-9.88801383972168
1745669382.2249744,-0.09495334327220917,-0.014284673146903515,0.34241315722465515,0.40290728211402893,0.664085865020752,-9.69426155090332
1745669382.2267344,-0.11736331135034561,-0.009239531122148037,0.34494897723197937,0.5449424982070923,0.4076469838619232,-9.70620059967041
1745669382.2288601,-0.10312400013208389,-0.016257446259260178,0.34418559074401855,0.3364497125148773,0.565835177898407,-9.85835075378418
1745669382.2329113,-0.09987102448940277,-0.011711609549820423,0.34706825017929077,0.5393983125686646,0.5961691737174988,-9.705055236816406
1745669382.2839713,-0.10573257505893707,-0.02211950160562992,0.34639182686805725,0.5593367218971252,0.7439912557601929,-9.888311386108398
1745669382.2840827,-0.058279186487197876,-0.03797318786382675,0.3348093330860138,0.39061978459358215,1.380022644996643,-9.976733207702637
1745669382.2841346,-0.0737835019826889,-0.021980594843626022,0.31477096676826477,-0.41172561049461365,1.22390615940094,-10.336732864379883
1745669382.284207,-0.011268784292042255,-0.07904650270938873,0.17846325039863586,0.45421403646469116,-0.35888975858688354,-11.497767448425293
1745669382.2842813,-0.022167904302477837,-0.025314200669527054,0.18544353544712067,-0.10760955512523651,0.2271748036146164,-10.9304838180542
1745669382.310163,0.01228710450232029,-0.03679356724023819,0.18140430748462677,0.08738058060407639,1.0851022005081177,-7.585151672363281
1745669382.311755,0.0002735482412390411,-0.08378972113132477,0.16989943385124207,0.25702160596847534,1.0821782350540161,-8.671225547790527
1745669382.3132725,0.029182303696870804,-0.07315768301486969,0.1501648724079132,-0.22319826483726501,1.4385974407196045,-12.154523849487305
1745669382.3161426,0.08655846863985062,-0.02379598282277584,0.13859286904335022,-0.48280763626098633,0.8785943984985352,-11.19515323638916
1745669382.3519533,0.061565667390823364,-0.034468553960323334,0.13828875124454498,-0.19432540237903595,0.20635327696800232,-7.460568428039551
1745669382.353766,0.0392506904900074,-0.05892316251993179,0.14663657546043396,0.5503042340278625,-0.08890397846698761,-8.017809867858887
1745669382.3567665,0.010985038243234158,-0.06452786922454834,0.151585653424263,0.7575825452804565,-0.15947198867797852,-11.785283088684082
1745669382.3602726,0.01152033917605877,-0.014396928250789642,0.1452966034412384,0.37292224168777466,0.37531399726867676,-11.749632835388184
1745669382.3627582,0.004199046175926924,-0.02382049523293972,0.14447622001171112,0.7142286896705627,0.56415855884552,-8.273770332336426
1745669382.3976614,-0.017878416925668716,-0.07311293482780457,0.1357710212469101,0.39607781171798706,1.030306339263916,-8.453332901000977
1745669382.4018228,0.010877958498895168,-0.058730900287628174,0.12784264981746674,-0.10357916355133057,1.018694519996643,-11.43189811706543
1745669382.4067214,0.03791873902082443,-0.01930133067071438,0.11741306632757187,-0.5099028944969177,1.135695219039917,-10.887039184570312
1745669382.4118404,0.05673621967434883,-0.013615189120173454,0.11415159702301025,-0.320431113243103,1.0575801134109497,-7.986293792724609
1745669382.4403524,0.0849863737821579,-0.05230511352419853,0.11252675205469131,0.23145627975463867,0.8831833004951477,-8.432870864868164
1745669382.441698,0.11380493640899658,-0.03394355624914169,0.10860004276037216,0.21589335799217224,1.0513622760772705,-11.530797958374023
1745669382.4438157,0.1279158592224121,-0.00413613673299551,0.11093349754810333,0.4280441701412201,0.22732198238372803,-11.395681381225586
1745669382.4457889,0.1417066901922226,-0.010772165842354298,0.11368922889232635,0.24087290465831757,0.36539560556411743,-8.39566707611084
1745669382.48164,0.09922778606414795,-0.035962436348199844,0.11483478546142578,0.36708876490592957,-0.0020533069036900997,-8.36739444732666
1745669382.4855485,0.08446614444255829,-0.033212631940841675,0.11168690025806427,0.11857541650533676,0.07950977236032486,-11.072885513305664
1745669382.487821,0.07023371756076813,0.004285050090402365,0.10226086527109146,-0.016300126910209656,0.3909195065498352,-10.941145896911621
1745669382.4908907,0.04233286902308464,-0.009559753350913525,0.09551231563091278,0.06535310298204422,0.43603554368019104,-8.665691375732422
1745669382.5244236,0.07653546333312988,9.290324669564143e-05,0.08371244370937347,0.29329946637153625,0.3595457673072815,-8.952895164489746
1745669382.5291426,0.0960429459810257,-0.01771727204322815,0.09186157584190369,0.15737104415893555,0.7851630449295044,-8.953361511230469
1745669382.5303843,0.11378321796655655,-0.0053811585530638695,0.09156948328018188,0.00860374141484499,0.6441558599472046,-10.703872680664062
1745669382.5304205,0.13733604550361633,0.007658602204173803,0.08703958988189697,0.07898548245429993,0.8208209872245789,-10.300691604614258
1745669382.5321636,0.14632809162139893,0.00985405407845974,0.07741561532020569,0.01614522561430931,0.9996821284294128,-8.908966064453125
1745669382.5701594,0.13926057517528534,-0.008738746866583824,0.07043346017599106,0.0817486122250557,0.540621817111969,-9.325075149536133
1745669382.5741918,0.13423821330070496,0.005993420723825693,0.06049386411905289,0.14932599663734436,0.5004279613494873,-10.324803352355957
1745669382.5785081,0.10584230720996857,0.0173532385379076,0.05763975530862808,0.49130821228027344,-0.04208599403500557,-10.16900634765625
1745669382.580487,0.09451939165592194,0.005472264252603054,0.058814577758312225,0.20548494160175323,0.020842978730797768,-9.469183921813965
1745669382.6098301,0.08891912549734116,0.00948602706193924,0.06590140610933304,0.47246456146240234,-0.0032259852159768343,-9.466392517089844
1745669382.6137843,0.08861269056797028,0.011380315758287907,0.06788327544927597,0.20111426711082458,0.48567962646484375,-10.133989334106445
1745669382.617097,0.10944881290197372,0.019556580111384392,0.065851591527462,0.15337792038917542,0.6601125597953796,-9.972713470458984
1745669382.6208258,0.11827783286571503,0.014047631993889809,0.0642833411693573,0.10091495513916016,0.7874674201011658,-9.437922477722168
1745669382.655188,0.1709592342376709,0.07278725504875183,-0.08863718062639236,0.24493715167045593,0.1317993551492691,-9.763822555541992
1745669382.658438,0.16739729046821594,0.06558544933795929,-0.08856049180030823,0.4453458786010742,0.16313648223876953,-9.195180892944336
1745669382.6614313,0.17727120220661163,0.05659668892621994,-0.09154210984706879,0.33915382623672485,0.1153188943862915,-9.686429977416992
1745669382.6649158,0.2050206959247589,0.06324313580989838,-0.09331588447093964,0.593841552734375,0.20907923579216003,-10.119656562805176
1745669382.665853,0.19396045804023743,0.06785687059164047,-0.09972693771123886,0.5513366460800171,0.15055839717388153,-9.883946418762207
1745669382.6992958,0.2213413268327713,0.06361769884824753,-0.10176406800746918,0.6484524011611938,0.059060610830783844,-9.38426399230957
1745669382.7021716,0.18827927112579346,0.048592496663331985,-0.10684982687234879,0.7286938428878784,-0.05437685176730156,-9.61365795135498
1745669382.7042809,0.18823067843914032,0.06191346049308777,-0.10852804034948349,0.41296082735061646,-0.16049829125404358,-10.220057487487793
1745669382.7076244,0.18008510768413544,0.05318927764892578,-0.11362079530954361,0.6478462815284729,-0.26003167033195496,-9.78010368347168
1745669382.7409053,0.17121580243110657,0.053851593285799026,-0.1158096194267273,0.4258984625339508,0.012456233613193035,-9.437304496765137
1745669382.7443967,0.17412535846233368,0.047091044485569,-0.1191428080201149,0.6001682281494141,0.12102548778057098,-9.627286911010742
1745669382.7481432,0.18149106204509735,0.04712766781449318,-0.126161128282547,0.43350738286972046,-0.05963823199272156,-9.988036155700684
1745669382.75199,0.18929101526737213,0.058929599821567535,-0.1290515959262848,0.5300713181495667,0.1593049168586731,-9.721048355102539
1745669382.7555149,0.17212359607219696,0.04364228993654251,-0.13061866164207458,0.5041180849075317,-0.41913899779319763,-9.645193099975586
1745669382.7886667,0.21399128437042236,0.04344816133379936,-0.1301141381263733,0.35658711194992065,-0.01094433106482029,-9.599111557006836
1745669382.7888024,0.1690608114004135,0.051286499947309494,-0.13109101355075836,0.5963783264160156,-0.2671370208263397,-9.773069381713867
1745669382.7888796,0.19704225659370422,0.04905024170875549,-0.13390076160430908,0.4573057293891907,-0.1795085072517395,-9.741971969604492
1745669382.7907946,0.17843587696552277,0.04520007222890854,-0.13954612612724304,0.779386579990387,-0.10079698264598846,-9.500688552856445
1745669382.8245957,0.15771755576133728,0.04166337102651596,-0.14292767643928528,0.4686039090156555,-0.17290553450584412,-9.933059692382812
1745669382.827807,0.17233535647392273,0.0394548662006855,-0.14761093258857727,0.5315820574760437,-0.242689847946167,-9.915748596191406
1745669382.8298492,0.15041163563728333,0.03598985821008682,-0.15002958476543427,0.6019062995910645,-0.27803316712379456,-9.6027193069458
1745669382.8309238,0.15896818041801453,0.04266912490129471,-0.15313158929347992,0.43959712982177734,-0.04822266846895218,-9.511984825134277
1745669382.8331037,0.15253345668315887,0.02936437726020813,-0.15191884338855743,0.5728234052658081,-0.3851843774318695,-9.757646560668945
1745669382.870935,0.17953307926654816,0.02809201180934906,-0.1611613631248474,0.5812042951583862,-0.18995293974876404,-9.696574211120605
1745669382.8751147,0.1891070306301117,0.029599511995911598,-0.16429249942302704,0.5079331994056702,-0.3747410774230957,-9.727078437805176
1745669382.8802838,0.18082943558692932,0.028732318431138992,-0.16626915335655212,0.5651765465736389,-0.22558936476707458,-9.594622611999512
1745669382.8848016,0.1586068570613861,0.01799452304840088,-0.16705572605133057,0.6349387168884277,-0.48658666014671326,-9.758096694946289
1745669382.914204,0.16001275181770325,0.023068562150001526,-0.17037682235240936,0.5308237075805664,-0.3670870065689087,-9.972921371459961
1745669382.9190032,0.14902937412261963,0.019159961491823196,-0.17431552708148956,0.6843026280403137,-0.46264544129371643,-9.858803749084473
1745669382.920875,0.1390274167060852,0.015782246366143227,-0.1766560971736908,0.4251212477684021,-0.13920855522155762,-9.545392990112305
1745669382.9231813,0.1434067189693451,0.013053089380264282,-0.1778348833322525,0.6654201745986938,-0.5432220697402954,-9.577530860900879
1745669382.9540398,0.14760467410087585,0.018395429477095604,-0.17854192852973938,0.4122350811958313,0.03138909861445427,-9.683300018310547
1745669382.9559655,0.139752596616745,0.019324034452438354,-0.1813378930091858,0.4742296636104584,-0.3849621117115021,-9.959112167358398
1745669382.9578414,0.17121794819831848,0.006916182581335306,-0.18228130042552948,0.45764702558517456,-0.15213319659233093,-9.620981216430664
1745669382.9599771,0.16182896494865417,0.016690455377101898,-0.18354018032550812,0.45161134004592896,-0.1084718331694603,-9.649874687194824
1745669382.9613307,0.17028960585594177,0.009180587716400623,-0.18728889524936676,0.6027979850769043,-0.45519018173217773,-9.900201797485352
1745669383.0010827,0.11326185613870621,-0.02065395377576351,-0.2298537939786911,0.3862948417663574,-0.4583815634250641,-9.767172813415527
1745669383.0048952,0.1381468027830124,-0.020794246345758438,-0.2301817685365677,0.5752938985824585,-0.5196341276168823,-9.86472225189209
1745669383.0069802,0.12057854235172272,-0.026355838403105736,-0.23289069533348083,0.49204301834106445,-0.47090643644332886,-9.810041427612305
1745669383.011426,0.12604445219039917,-0.019452225416898727,-0.23505201935768127,0.6001814007759094,-0.7470664978027344,-9.768553733825684
1745669383.0419455,0.10893692076206207,-0.0248093418776989,-0.23402786254882812,0.5719929933547974,-0.7323620915412903,-9.749372482299805
1745669383.0432358,0.10727544128894806,-0.020217742770910263,-0.2348555624485016,0.42586126923561096,-0.631795346736908,-9.789899826049805
1745669383.0450068,0.09000565111637115,-0.0283055417239666,-0.23455071449279785,0.5562389492988586,-0.8918555378913879,-9.804117202758789
1745669383.0479648,0.10804003477096558,-0.0173968356102705,-0.23635049164295197,0.3669704496860504,-0.43539589643478394,-9.725151062011719
1745669383.0835724,0.0888783186674118,-0.02788645587861538,-0.2365211546421051,0.6091071963310242,-0.5977837443351746,-9.732203483581543
1745669383.0859725,0.10063596069812775,-0.024438057094812393,-0.2369607388973236,0.4208149015903473,-0.5717812776565552,-9.890304565429688
1745669383.0879724,0.11741785705089569,-0.017102403566241264,-0.23735427856445312,0.48880496621131897,-0.44913801550865173,-9.776097297668457
1745669383.0886393,0.1006712093949318,-0.026873480528593063,-0.2392391413450241,0.4097883105278015,-0.7356123924255371,-9.818540573120117
1745669383.0907147,0.12023711204528809,-0.02472103014588356,-0.2363884449005127,0.4063354432582855,-0.5627110600471497,-9.769023895263672
1745669383.1372862,0.10584203898906708,-0.027172058820724487,-0.23857760429382324,0.68268883228302,-0.7964089512825012,-9.729368209838867
1745669383.1374187,0.10989339649677277,-0.021278392523527145,-0.23691701889038086,0.39231204986572266,-0.6112686395645142,-9.923887252807617
1745669383.1374838,0.09248099476099014,-0.026214927434921265,-0.2364184409379959,0.6518107056617737,-0.8578150868415833,-9.79650592803955
1745669383.1375241,0.10464298725128174,-0.030271250754594803,-0.23925456404685974,0.4499303698539734,-0.4875408709049225,-9.656625747680664
1745669383.169752,0.0813075378537178,-0.015882868319749832,-0.24141304194927216,0.33989855647087097,-0.7465348243713379,-9.866174697875977
1745669383.1714725,0.09572332352399826,-0.03040659986436367,-0.24338284134864807,0.3962525427341461,-0.7291409373283386,-9.716968536376953
1745669383.1735556,0.09832578897476196,-0.02330087684094906,-0.24335765838623047,0.48067745566368103,-0.47828370332717896,-9.611191749572754
1745669383.1764553,0.0747937336564064,-0.022445742040872574,-0.24478404223918915,0.5084298849105835,-0.9218419194221497,-9.928040504455566
1745669383.1780763,0.10974714905023575,-0.020002402365207672,-0.24300213158130646,0.26124611496925354,-0.5181268453598022,-9.845672607421875
1745669383.2150521,0.084640271961689,-0.02356741949915886,-0.24266013503074646,0.6807866096496582,-0.8818787336349487,-9.619664192199707
1745669383.2174234,0.07047776877880096,-0.018585359677672386,-0.24730296432971954,0.4550674557685852,-0.6950647830963135,-9.641925811767578
1745669383.2298522,0.08520686626434326,-0.031783364713191986,-0.24884125590324402,0.4872532784938812,-0.7644960284233093,-9.709882736206055
1745669383.2300034,0.06028814986348152,-0.019572226330637932,-0.2501164376735687,0.35600966215133667,-0.4758850038051605,-9.926958084106445
1745669383.258384,0.06575587391853333,-0.02305298112332821,-0.252403199672699,0.5270446538925171,-1.067991018295288,-9.942200660705566
1745669383.261058,0.08244635164737701,-0.02699395641684532,-0.25122037529945374,0.3609439432621002,-0.4203539788722992,-9.503705978393555
1745669383.263653,0.05509411543607712,-0.025347381830215454,-0.249221533536911,0.6101416349411011,-1.0179274082183838,-9.801248550415039
1745669383.2658129,0.084633007645607,-0.022961899638175964,-0.2492019683122635,0.3857274353504181,-0.5450407266616821,-9.894832611083984
1745669383.269274,0.06940941512584686,-0.017478173598647118,-0.24836809933185577,0.45864373445510864,-0.7618929743766785,-9.749902725219727
1745669383.3027792,0.07541637122631073,-0.025535622611641884,-0.24820220470428467,0.449990451335907,-0.6520437002182007,-9.576759338378906
1745669383.3028162,0.07474543154239655,-0.0244001355022192,-0.25312742590904236,0.4022601544857025,-0.6862521171569824,-9.865448951721191
1745669383.3055148,0.0682496726512909,-0.02752036415040493,-0.2528553009033203,0.4812158942222595,-0.891861081123352,-10.031633377075195
1745669383.3087287,0.061555106192827225,-0.017565984278917313,-0.2549910247325897,0.3134232461452484,-0.5304883122444153,-9.61964225769043
1745669383.3455195,0.0657448023557663,-0.02257898822426796,-0.25614848732948303,0.5714974403381348,-1.036002516746521,-9.418232917785645
1745669383.349694,0.03389916568994522,-0.02072003111243248,-0.2581651210784912,0.5568129420280457,-0.8540488481521606,-9.776214599609375
1745669383.3542037,0.008794164285063744,-0.022585486993193626,-0.26148223876953125,0.30862244963645935,-0.8023055791854858,-9.750677108764648
1745669383.3559525,0.04164513200521469,-0.019097546115517616,-0.2603876292705536,0.5183805227279663,-0.8211094737052917,-9.619906425476074
1745669383.3865836,-4.2788684368133545e-05,-0.025516891852021217,-0.26281437277793884,0.5260194540023804,-0.6844081878662109,-9.688576698303223
1745669383.3951056,0.028430785983800888,-0.01570763811469078,-0.26302438974380493,0.4160725176334381,-0.8842002749443054,-9.921558380126953
1745669383.396825,0.026325035840272903,-0.02262692153453827,-0.2620144784450531,0.48932552337646484,-0.6191604137420654,-9.682439804077148
1745669383.4019763,0.016153568401932716,-0.018177378922700882,-0.2628212869167328,0.38280510902404785,-0.8612183332443237,-9.73978042602539
1745669383.427578,0.03476946800947189,-0.023994866758584976,-0.2586098313331604,0.6065751314163208,-0.8856080174446106,-9.738009452819824
1745669383.430535,0.020579155534505844,-0.024106571450829506,-0.26254501938819885,0.3867420256137848,-0.756275475025177,-9.830126762390137
1745669383.4317727,0.029229488223791122,-0.019595514982938766,-0.2578077018260956,0.5256543159484863,-0.9209012985229492,-9.793264389038086
1745669383.4335413,0.009824248030781746,-0.021504100412130356,-0.2616952657699585,0.37948742508888245,-0.7981256246566772,-9.574605941772461
1745669383.4363582,0.02857123874127865,-0.019286764785647392,-0.2629205584526062,0.5061737298965454,-0.7221134901046753,-9.578916549682617
1745669383.4734104,-0.008485427126288414,-0.025546249002218246,-0.26373904943466187,0.44716301560401917,-0.8785198330879211,-9.950780868530273
1745669383.4756916,0.02813025936484337,-0.018102876842021942,-0.2650810182094574,0.3685552179813385,-0.810488224029541,-9.943216323852539
1745669383.4784193,-0.002729769330471754,-0.023467833176255226,-0.26437297463417053,0.6271284222602844,-0.7957807779312134,-9.527624130249023
1745669383.4793081,0.000586566689889878,-0.01985359378159046,-0.2625330984592438,0.43667688965797424,-0.9247063398361206,-9.656791687011719
1745669383.5171537,0.016877075657248497,-0.024151084944605827,-0.2618769705295563,0.5648550391197205,-0.7631683945655823,-9.794763565063477
1745669383.5209541,-0.009185979142785072,-0.021268490701913834,-0.2609750032424927,0.35776185989379883,-0.7648564577102661,-9.945426940917969
1745669383.5234337,0.019988922402262688,-0.016689741984009743,-0.26272445917129517,0.4447271227836609,-0.7493121027946472,-9.669764518737793
1745669383.5276024,0.00808385293930769,-0.02958124876022339,-0.2617720663547516,0.5267796516418457,-0.737043023109436,-9.577725410461426
1745669383.5613778,0.01669507659971714,-0.021827716380357742,-0.2623613476753235,0.43558424711227417,-0.7422913908958435,-9.952749252319336
1745669383.5614655,0.0017120868433266878,-0.02509986236691475,-0.26273173093795776,0.484201043844223,-0.8707648515701294,-9.891531944274902
1745669383.5615206,0.020082876086235046,-0.019065316766500473,-0.26563411951065063,0.4296572804450989,-0.6959023475646973,-9.4411039352417
1745669383.5648346,-0.018111811950802803,-0.027474159374833107,-0.26428020000457764,0.4974740147590637,-0.8898285627365112,-9.780169486999512
1745669383.602386,0.005676692817360163,-0.01743662729859352,-0.2646183967590332,0.30858317017555237,-0.7148398756980896,-9.940698623657227
1745669383.6040542,-0.004553056787699461,-0.021057790145277977,-0.2646980583667755,0.5128525495529175,-0.8515965342521667,-9.710966110229492
1745669383.6075878,0.0033695162273943424,-0.025218095630407333,-0.26620131731033325,0.3734353184700012,-0.698608934879303,-9.638006210327148
1745669383.6099231,-0.009392229840159416,-0.023215340450406075,-0.26799923181533813,0.5896156430244446,-0.8258837461471558,-9.838688850402832
1745669383.6132538,0.003952855709940195,-0.02422488108277321,-0.2659831643104553,0.4291051924228668,-0.8131489753723145,-9.855218887329102
1745669383.6456697,-0.008170763030648232,-0.01640837825834751,-0.26696473360061646,0.511764645576477,-0.6808865666389465,-9.55488395690918
1745669383.6484969,-0.017592962831258774,-0.026079321280121803,-0.2671642601490021,0.4757826328277588,-1.0591760873794556,-9.700745582580566
1745669383.652415,0.010480361990630627,-0.024469871073961258,-0.26408785581588745,0.391385942697525,-0.5610748529434204,-9.833288192749023
1745669383.6550024,-0.02326032519340515,-0.024027744308114052,-0.2648554742336273,0.5356124043464661,-0.865932822227478,-9.949668884277344
1745669383.6878579,0.01670249179005623,-0.016887234523892403,-0.267422616481781,0.3531966209411621,-0.5168061852455139,-9.629780769348145
1745669383.6905859,-0.0046819038689136505,-0.022685064002871513,-0.2664058804512024,0.5562540292739868,-0.7784990668296814,-9.47372055053711
1745669383.6959596,0.0021744035184383392,-0.022940993309020996,-0.26676857471466064,0.317396342754364,-0.6894611120223999,-9.836379051208496
1745669383.6980987,0.0008742332574911416,-0.02104741707444191,-0.26653560996055603,0.5338822603225708,-0.9906875491142273,-9.813383102416992
1745669383.7029243,0.008368665352463722,-0.02173055335879326,-0.26539817452430725,0.3496033251285553,-0.6825785636901855,-9.818097114562988
1745669383.7325583,0.00750664621591568,-0.01659855991601944,-0.2668207287788391,0.5303758382797241,-0.8240771293640137,-9.671064376831055
1745669383.7382374,-0.007396664470434189,-0.024171141907572746,-0.26435190439224243,0.4777006506919861,-0.7889384031295776,-9.716899871826172
1745669383.739706,0.005284561775624752,-0.0187668539583683,-0.26562270522117615,0.37307530641555786,-0.7488223314285278,-9.846700668334961
1745669383.740956,0.003126306924968958,-0.021590247750282288,-0.2661980986595154,0.48726922273635864,-0.7100074291229248,-9.675590515136719
1745669383.7756836,-0.011913439258933067,-0.017824959009885788,-0.26585158705711365,0.2517707943916321,-0.7919005155563354,-9.748575210571289
1745669383.7801275,0.020276308059692383,-0.020540857687592506,-0.2665953040122986,0.48957210779190063,-0.8090496063232422,-9.690923690795898
1745669383.783982,-0.007325450424104929,-0.01999763771891594,-0.2663431167602539,0.37430498003959656,-0.4897439479827881,-9.73887825012207
1745669383.7961817,0.01252683810889721,-0.010159050114452839,-0.26621323823928833,0.5323547720909119,-0.9279672503471375,-9.834701538085938
1745669383.8143587,0.018907135352492332,-0.020579470321536064,-0.26527121663093567,0.4461994171142578,-0.46740835905075073,-9.598894119262695
1745669383.8178308,0.004853664431720972,-0.01551366038620472,-0.2661086618900299,0.44392576813697815,-0.8713876605033875,-9.85702133178711
1745669383.8179157,0.01227616798132658,-0.023307668045163155,-0.26466450095176697,0.47459492087364197,-0.8185321688652039,-9.885136604309082
1745669383.8206387,0.01310015469789505,-0.01510792039334774,-0.2665856182575226,0.36452096700668335,-0.733029842376709,-9.746192932128906
1745669383.8219311,0.0029967494774609804,-0.020270410925149918,-0.2639857232570648,0.5722106695175171,-0.920272707939148,-9.634786605834961
1745669383.8610775,-0.0007982135866768658,-0.019490914419293404,-0.2638673186302185,0.3439648747444153,-0.6313869953155518,-9.712023735046387
1745669383.8646116,0.019434981048107147,-0.01684056781232357,-0.2645803391933441,0.5189719796180725,-0.7221560478210449,-9.73436164855957
1745669383.8669496,-0.013601360842585564,-0.01789267361164093,-0.26620274782180786,0.33611780405044556,-0.6566067934036255,-9.83130168914795
1745669383.8691902,0.024493161588907242,-0.015508127398788929,-0.26770296692848206,0.5030293464660645,-0.8751697540283203,-9.807821273803711
1745669383.9017177,0.0043739257380366325,-0.027234692126512527,-0.2655559778213501,0.4758501946926117,-0.6241719126701355,-9.720800399780273
1745669383.9051564,0.007211299147456884,-0.012675464153289795,-0.266417920589447,0.35571178793907166,-0.8770323991775513,-9.845161437988281
1745669383.9064994,0.02451859787106514,-0.017570942640304565,-0.26345744729042053,0.5120790004730225,-0.6471350193023682,-9.535696029663086
1745669383.9113417,0.02920142374932766,-0.016766289249062538,-0.2648842930793762,0.38627225160598755,-0.7306920289993286,-9.69604206085205
1745669383.946551,-0.002365466207265854,-0.01512161921709776,-0.265666127204895,0.4812324643135071,-0.6751421093940735,-9.875215530395508
1745669383.9485624,0.023044528439641,-0.011304488405585289,-0.2659958302974701,0.36352303624153137,-0.8104990124702454,-9.868173599243164
1745669383.9495132,0.025227706879377365,-0.021250244230031967,-0.26501578092575073,0.5200737118721008,-0.6663144826889038,-9.608044624328613
1745669383.950557,0.008411193266510963,-0.019436201080679893,-0.26556020975112915,0.34068647027015686,-0.7619651556015015,-9.825403213500977
1745669383.9621484,0.03855358809232712,-0.011914392933249474,-0.26527878642082214,0.4674314856529236,-0.7315075993537903,-9.7996826171875
1745669383.9904594,0.013739150948822498,-0.014630558900535107,-0.264512836933136,0.3907080292701721,-0.7296699285507202,-9.587827682495117
1745669383.9952013,0.02815922722220421,-0.012856932356953621,-0.2640547752380371,0.4374518394470215,-0.7734513282775879,-9.59965991973877
1745669383.9967587,0.011261940002441406,-0.02090662159025669,-0.26327452063560486,0.4671340882778168,-0.8579035997390747,-9.97089672088623
1745669383.9995556,0.021598361432552338,-0.013410602696239948,-0.265187531709671,0.33694273233413696,-0.7336738705635071,-10.045585632324219
1745669384.0325363,0.005491118878126144,-0.015675442293286324,-0.26532888412475586,0.534267008304596,-0.7486791610717773,-9.590712547302246
1745669384.0359502,0.021411318331956863,-0.02164449170231819,-0.2650756239891052,0.3794025778770447,-0.8207218050956726,-9.53455924987793
1745669384.0402994,0.012803306803107262,-0.014457860961556435,-0.26424938440322876,0.5214464068412781,-0.6675872206687927,-9.695608139038086
1745669384.0430756,-0.0014467176515609026,-0.013185732066631317,-0.26562780141830444,0.37008291482925415,-0.8608600497245789,-10.076565742492676
1745669384.046503,0.009787863120436668,-0.011805747635662556,-0.26071494817733765,0.446742445230484,-0.9696027040481567,-9.657437324523926
1745669384.0767887,0.027328673750162125,-0.01951545849442482,-0.2606963813304901,0.40846648812294006,-0.7789723873138428,-9.929855346679688
1745669384.0808513,0.018261443823575974,-0.012491630390286446,-0.2625869810581207,0.5003194808959961,-0.6502518653869629,-9.833131790161133
1745669384.084959,0.01209285669028759,-0.015355008654296398,-0.2617768347263336,0.5104477405548096,-1.005936622619629,-9.74148941040039
1745669384.0886586,0.032485444098711014,-0.011728201992809772,-0.25875192880630493,0.2721771001815796,-0.5184584856033325,-9.579567909240723
1745669384.1191785,0.006993881426751614,-0.018826918676495552,-0.2604658603668213,0.4828849732875824,-1.0010778903961182,-9.764416694641113
1745669384.1211672,0.022080399096012115,-0.013907226733863354,-0.25893551111221313,0.27841776609420776,-0.639051079750061,-9.876981735229492
1745669384.124429,0.020232638344168663,-0.01612214557826519,-0.25902059674263,0.5268977284431458,-0.8647379875183105,-9.774477005004883
1745669384.1299794,0.017300833016633987,-0.021597007289528847,-0.26042819023132324,0.4203007221221924,-0.7231270670890808,-9.70540714263916
1745669384.1610866,0.01442054845392704,-0.016015294939279556,-0.2595972418785095,0.488961786031723,-0.8546004295349121,-9.77010726928711
1745669384.1663291,0.017634734511375427,-0.02144419029355049,-0.2583237886428833,0.4412587285041809,-0.8099783062934875,-9.668330192565918
1745669384.167971,-8.916109800338745e-05,-0.011673657223582268,-0.2595858573913574,0.31867876648902893,-0.6698676943778992,-9.724772453308105
1745669384.1705709,0.017584895715117455,-0.01735030673444271,-0.25916022062301636,0.4951108992099762,-0.9452270269393921,-9.766359329223633
1745669384.1750371,0.015895996242761612,-0.018748674541711807,-0.26029688119888306,0.32691246271133423,-0.43323808908462524,-9.655284881591797
1745669384.2059174,0.010996739380061626,-0.01736373081803322,-0.26123046875,0.5588181614875793,-0.941785454750061,-9.875398635864258
1745669384.2086723,0.028560122475028038,-0.01732955500483513,-0.2605418562889099,0.2902962565422058,-0.5356318354606628,-9.763665199279785
1745669384.2118964,0.017414264380931854,-0.012507488019764423,-0.2610395550727844,0.4593309462070465,-0.8435460329055786,-9.620996475219727
1745669384.2265308,0.01813298650085926,-0.020745983347296715,-0.2598593235015869,0.3872360587120056,-0.8314111828804016,-9.623382568359375
1745669384.2477565,0.020220741629600525,-0.015470047481358051,-0.259570449590683,0.38342684507369995,-0.8202201128005981,-9.863386154174805
1745669384.2508073,0.01007603295147419,-0.02066190168261528,-0.25738149881362915,0.4956401288509369,-0.9651715159416199,-9.964449882507324
1745669384.2514167,0.007090418133884668,-0.01497042365372181,-0.2605913281440735,0.33557596802711487,-0.6483810544013977,-9.694533348083496
1745669384.2541165,0.018221978098154068,-0.018715187907218933,-0.25988155603408813,0.5783947706222534,-0.9268943667411804,-9.51147174835205
1745669384.2891898,0.009963469579815865,-0.015126047655940056,-0.26145726442337036,0.37110579013824463,-0.6038378477096558,-9.775983810424805
1745669384.2916086,0.014632187783718109,-0.015475282445549965,-0.26182541251182556,0.5149310827255249,-0.8515394330024719,-9.797781944274902
1745669384.2926772,0.01066576223820448,-0.017717095091938972,-0.26322153210639954,0.318669855594635,-0.7193151712417603,-9.785636901855469
1745669384.294623,0.010631193406879902,-0.016357779502868652,-0.25985458493232727,0.4880256652832031,-1.040233850479126,-9.833800315856934
1745669384.2967174,-0.0029047902207821608,-0.019310956820845604,-0.2623410224914551,0.32580631971359253,-0.6069836616516113,-9.729532241821289
1745669384.3332787,0.009681640192866325,-0.012646051123738289,-0.26120105385780334,0.4132918417453766,-0.9472476840019226,-9.68464183807373
1745669384.3360195,0.003481814172118902,-0.017940688878297806,-0.26348182559013367,0.42244213819503784,-0.5699229836463928,-9.548895835876465
1745669384.3360674,-0.00427478039637208,-0.01349155604839325,-0.26290786266326904,0.4246850609779358,-0.8202494382858276,-9.898771286010742
1745669384.342652,0.018512427806854248,-0.0173315592110157,-0.263878732919693,0.43258053064346313,-0.7565679550170898,-9.919393539428711
1745669384.3778493,-0.0008929204195737839,-0.012877549044787884,-0.2652561664581299,0.2607625424861908,-0.5786201357841492,-9.708891868591309
1745669384.3808362,0.0171962883323431,-0.013171963393688202,-0.26312169432640076,0.5215346217155457,-0.977519154548645,-9.58996295928955
1745669384.3861291,0.007256528828293085,-0.017846161499619484,-0.2630361318588257,0.35082072019577026,-0.6299393773078918,-9.653451919555664
1745669384.391697,0.009535441175103188,-0.013986660167574883,-0.2618641257286072,0.5428757667541504,-0.9104596376419067,-9.885491371154785
1745669384.3970938,0.000749079161323607,-0.018381977453827858,-0.2632998526096344,0.42105633020401,-0.7368501424789429,-9.883058547973633
1745669384.4216516,-0.008550776168704033,-0.01678384840488434,-0.2665816843509674,0.3455030620098114,-0.799835741519928,-9.749917984008789
1745669384.4256623,0.017360445111989975,-0.011193269863724709,-0.2680075466632843,0.3830028176307678,-0.7049566507339478,-9.762258529663086
1745669384.4283197,-0.0005414029583334923,-0.01964891329407692,-0.26701849699020386,0.42386943101882935,-0.800437331199646,-9.834441184997559
1745669384.431638,0.015586751513183117,-0.011365987360477448,-0.2675686478614807,0.3160352110862732,-0.7095503211021423,-9.766915321350098
1745669384.464524,-0.004601673688739538,-0.016266152262687683,-0.26752758026123047,0.5577921867370605,-0.8342025876045227,-9.607444763183594
1745669384.46736,0.02055872604250908,-0.015072044916450977,-0.2680080533027649,0.36179319024086,-0.7242005467414856,-9.634257316589355
1745669384.4702792,-0.00551262591034174,-0.011139140464365482,-0.2654620409011841,0.5128075480461121,-0.7396495938301086,-9.8201904296875
1745669384.4743114,0.008668463677167892,-0.012962140142917633,-0.2677645683288574,0.3009401559829712,-0.8427801132202148,-9.923418998718262
1745669384.5076487,0.02141021564602852,-0.011670428328216076,-0.26536694169044495,0.37997886538505554,-0.5662645101547241,-9.582090377807617
1745669384.509898,-0.0074205053970217705,-0.01743273437023163,-0.26876240968704224,0.42429861426353455,-0.8197110295295715,-9.634244918823242
1745669384.5113342,0.03337005898356438,-0.00911234226077795,-0.2697545886039734,0.35176295042037964,-0.5505313277244568,-9.793103218078613
1745669384.513408,-0.0016292817890644073,-0.013739356771111488,-0.27091488242149353,0.4953974187374115,-0.8426802754402161,-9.768178939819336
1745669384.5159628,0.020529503002762794,-0.011070631444454193,-0.2707347869873047,0.348923921585083,-0.7040321230888367,-9.742743492126465
1745669384.549131,0.004523157607764006,-0.017863217741250992,-0.2696717381477356,0.5210555195808411,-0.9780659675598145,-9.813081741333008
1745669384.5500968,0.007238256745040417,-0.01624872162938118,-0.26627397537231445,0.30594757199287415,-0.7632988095283508,-9.907869338989258
1745669384.5526521,0.0013872189447283745,-0.012445485219359398,-0.27012085914611816,0.49708008766174316,-0.7409039735794067,-9.692914962768555
1745669384.5546267,0.004347805865108967,-0.01694251224398613,-0.26821714639663696,0.4327622950077057,-0.8450251817703247,-9.610007286071777
1745669384.592363,0.008020585402846336,-0.011682068929076195,-0.2697794437408447,0.422405481338501,-0.4863069951534271,-9.648664474487305
1745669384.5976672,-0.009556933306157589,-0.017980189993977547,-0.26932209730148315,0.4663478434085846,-0.9300440549850464,-10.050790786743164
1745669384.6043282,0.028663719072937965,-0.01224487368017435,-0.273381769657135,0.24228116869926453,-0.49614018201828003,-9.810203552246094
1745669384.607762,-0.007953655906021595,-0.01764119789004326,-0.27091893553733826,0.46651774644851685,-0.8145726323127747,-9.554113388061523
1745669384.6327753,0.024052659049630165,-0.01761029288172722,-0.27091893553733826,0.36538511514663696,-0.7038429379463196,-9.69855785369873
1745669384.6359076,0.017024120315909386,-0.01386331021785736,-0.2701038420200348,0.3244708776473999,-0.4229622483253479,-9.509872436523438
1745669384.6390727,-0.013502314686775208,-0.01291254349052906,-0.27005428075790405,0.5550841093063354,-0.924094021320343,-9.790700912475586
1745669384.642627,0.018226685002446175,-0.01667962223291397,-0.27032774686813354,0.27832671999931335,-0.6658305525779724,-9.934469223022461
1745669384.6459632,0.003573184134438634,-0.013024786487221718,-0.2705442011356354,0.44263404607772827,-0.6720089912414551,-9.789294242858887
1745669384.6837194,0.003586848033592105,-0.017346499487757683,-0.2724563479423523,0.4141995310783386,-0.8316962122917175,-9.678543090820312
1745669384.6872034,0.018300382420420647,-0.015654191374778748,-0.2693066895008087,0.42602068185806274,-0.624885082244873,-9.625261306762695
1745669384.690573,0.002067498629912734,-0.02172027714550495,-0.2711644768714905,0.5519750118255615,-0.8759319186210632,-9.865679740905762
1745669384.6956072,0.010098827071487904,-0.01582973450422287,-0.27000775933265686,0.3494430482387543,-0.6419658660888672,-9.905160903930664
1745669384.720571,0.00448880810290575,-0.017296183854341507,-0.26950663328170776,0.5001952052116394,-0.8945315480232239,-9.739140510559082
1745669384.72241,0.010527858510613441,-0.01970839500427246,-0.2696654796600342,0.2972698211669922,-0.47271567583084106,-9.569944381713867
1745669384.725993,-0.002258497755974531,-0.018606824800372124,-0.2704041004180908,0.43153953552246094,-0.9566775560379028,-9.8472900390625
1745669384.729782,0.025165865197777748,-0.019996464252471924,-0.2720218300819397,0.33636707067489624,-0.5600309371948242,-9.800994873046875
1745669384.7628567,0.00501466728746891,-0.013067198917269707,-0.27185219526290894,0.49368590116500854,-0.6985074281692505,-9.69279670715332
1745669384.767149,0.01455775462090969,-0.020870815962553024,-0.2711276113986969,0.4756813943386078,-0.9167531728744507,-9.717225074768066
1745669384.7711744,0.006519390735775232,-0.021902034059166908,-0.2678186297416687,0.39219266176223755,-0.47626250982284546,-9.737822532653809
1745669384.777409,0.01239426527172327,-0.016278263181447983,-0.2696126401424408,0.40469294786453247,-0.8458915948867798,-9.905693054199219
1745669384.7806072,0.02901878021657467,-0.025547808036208153,-0.26732391119003296,0.3795052468776703,-0.6237285137176514,-9.696733474731445
1745669384.8079576,0.009421746246516705,-0.02198236808180809,-0.27006155252456665,0.3155062794685364,-0.7099542617797852,-9.706159591674805
1745669384.8114154,0.026779692620038986,-0.020220542326569557,-0.2656952440738678,0.49500927329063416,-0.9070414304733276,-9.810443878173828
1745669384.818465,0.03276478126645088,-0.025861363857984543,-0.2610047459602356,0.33855363726615906,-0.6475598216056824,-9.686018943786621
1745669384.8197699,0.02895475924015045,-0.020706284791231155,-0.2524043023586273,0.03477005660533905,-0.9002526998519897,-9.751958847045898
1745669384.852157,0.016867337748408318,-0.023552827537059784,-0.24574705958366394,-0.14130523800849915,-1.1608240604400635,-9.71545124053955
1745669384.8535657,0.005041331052780151,-0.05140729993581772,-0.23625147342681885,-0.115656778216362,-1.3129239082336426,-9.850942611694336
1745669384.8562098,-0.059345804154872894,-0.02028781734406948,-0.23323893547058105,-0.5231356024742126,-0.9127828478813171,-10.175580978393555
1745669384.8598535,-0.01866382732987404,-0.03764927387237549,-0.23329591751098633,-0.19891753792762756,-0.48577046394348145,-9.255038261413574
1745669384.893813,-0.04921871796250343,-0.040279798209667206,-0.2355967015028,0.26146453619003296,-0.6849156022071838,-9.147906303405762
1745669384.8966498,-0.07818552851676941,-0.055771779268980026,-0.23027534782886505,0.18266704678535461,-0.7695901393890381,-10.442790031433105
1745669384.9004085,-0.03530461713671684,-0.05597814917564392,-0.22099125385284424,0.20686575770378113,-1.353603482246399,-10.688436508178711
1745669384.9028165,-0.04664932191371918,-0.029984336346387863,-0.20774495601654053,-0.22992701828479767,-0.15003840625286102,-9.229124069213867
1745669384.904588,-0.08709254860877991,-0.05830422043800354,-0.19619685411453247,0.09962992370128632,-1.5540920495986938,-9.032005310058594
1745669384.9382274,0.018437454476952553,-0.0667949914932251,-0.1911059319972992,0.1538853943347931,0.2854931652545929,-9.601995468139648
1745669384.9387336,-0.07026823610067368,-0.052404046058654785,-0.19686326384544373,-0.12833115458488464,-0.19653944671154022,-10.88814926147461
1745669384.9396737,0.032550014555454254,-0.04736368730664253,-0.19630339741706848,-0.045117974281311035,-0.8834885358810425,-9.859724044799805
1745669384.9397314,-0.016111988574266434,-0.06188300997018814,-0.1944873034954071,-0.15347851812839508,-0.14523077011108398,-8.517512321472168
1745669384.9792864,-0.04861553758382797,-0.08511044830083847,-0.19037052989006042,0.17164549231529236,-1.678934097290039,-10.00613021850586
1745669384.9828396,-0.042543064802885056,-0.09420743584632874,-0.1670919507741928,-0.026104280725121498,0.5198839902877808,-9.754030227661133
1745669384.9840817,-0.07564513385295868,-0.06440738588571548,-0.1831534206867218,-0.8251749277114868,-0.7328886985778809,-11.697847366333008
1745669384.9870846,-0.03193751722574234,-0.03813106194138527,-0.17851272225379944,-0.30745965242385864,-0.7336364984512329,-8.72479248046875
1745669385.0236588,-0.08745068311691284,-0.07146404683589935,-0.16072477400302887,0.556186318397522,-1.759587049484253,-7.782909393310547
1745669385.0276558,-0.04925282299518585,-0.1011812835931778,-0.14022736251354218,0.28137415647506714,-0.8049831390380859,-11.297015190124512
1745669385.030931,-0.13806316256523132,-0.01550042163580656,-0.13217779994010925,0.2706244885921478,-1.7437080144882202,-11.660028457641602
1745669385.0335026,-0.08513674885034561,-0.04706858471035957,-0.12270307540893555,0.9030178189277649,-0.8117246627807617,-7.82650089263916
1745669385.0355988,-0.1376948058605194,-0.10896055400371552,-0.13463094830513,0.27644261717796326,0.8477880358695984,-8.974648475646973
1745669385.0666633,-0.15576490759849548,-0.08342166244983673,-0.14118127524852753,0.2493823766708374,-1.4613983631134033,-12.427072525024414
1745669385.0685525,-0.03285849094390869,-0.039453499019145966,-0.1398828774690628,-0.3761516213417053,1.020620584487915,-10.040190696716309
1745669385.0706158,-0.19563043117523193,-0.05675792694091797,-0.14367587864398956,-0.6604134440422058,-1.1962629556655884,-7.775735378265381
1745669385.073284,-0.01978464424610138,-0.08783840388059616,-0.13221779465675354,0.4015447199344635,-0.20933595299720764,-8.316134452819824
1745669385.1118028,-0.106769859790802,-0.04842046648263931,-0.12514668703079224,0.2647741436958313,0.344395250082016,-12.239240646362305
1745669385.115241,-0.03872400149703026,-0.056652672588825226,-0.1198585256934166,0.4145894944667816,-1.5083503723144531,-11.595210075378418
1745669385.115416,0.0208840724080801,-0.03229647874832153,-0.11261026561260223,0.2209133356809616,0.6492049098014832,-7.156551361083984
1745669385.118202,-0.18391910195350647,0.03986098989844322,0.048228807747364044,0.21334032714366913,-0.802747905254364,-9.277448654174805
1745669385.1494653,-0.2121777981519699,0.034817393869161606,0.048531025648117065,0.31094062328338623,-0.7613142728805542,-10.337247848510742
1745669385.1529014,-0.19984349608421326,0.05391208454966545,0.0490114763379097,0.2637040317058563,-0.09677628427743912,-10.231471061706543
1745669385.15501,-0.20590874552726746,0.05215085297822952,0.055997759103775024,0.37652841210365295,-0.14992482960224152,-9.461380004882812
1745669385.1599817,-0.15562596917152405,0.04090125113725662,0.061697326600551605,0.33387625217437744,0.1259375959634781,-9.196950912475586
1745669385.1625369,-0.14386260509490967,0.05176033824682236,0.07527637481689453,0.5532284379005432,-0.06086768954992294,-10.13086223602295
1745669385.1940153,-0.09596574306488037,0.05549289658665657,0.0854886844754219,0.3952694535255432,0.11216211318969727,-10.363008499145508
1745669385.1980207,-0.08000795543193817,0.05967742204666138,0.09279270470142365,0.38296380639076233,0.19970639050006866,-9.44969367980957
1745669385.1985872,-0.0670493021607399,0.0508742518723011,0.09299802780151367,0.45932307839393616,-0.023428678512573242,-9.244219779968262
1745669385.2029572,-0.06306161731481552,0.05592019110918045,0.08948866277933121,0.33316469192504883,0.0998167172074318,-9.965394020080566
1745669385.2377613,-0.0899583101272583,0.05473603680729866,0.087502621114254,0.5482434630393982,-0.4111071228981018,-10.30268669128418
1745669385.2457201,-0.08648978173732758,0.05995754152536392,0.08749885857105255,0.385829359292984,-0.3179444670677185,-9.578130722045898
1745669385.2457807,-0.13118861615657806,0.05801849812269211,0.09136141836643219,0.4699951708316803,-0.8200003504753113,-9.376564979553223
1745669385.2458463,-0.14148838818073273,0.051844824105501175,0.09979069977998734,0.5021591186523438,-0.6820027828216553,-9.770872116088867
1745669385.2480924,-0.14568793773651123,0.0679338127374649,0.11064843088388443,0.507579505443573,-0.6380032300949097,-10.064756393432617
1745669385.280127,-0.16042611002922058,0.060942262411117554,0.11880253255367279,0.4043002724647522,-0.5445231199264526,-9.756467819213867
1745669385.2834058,-0.12990112602710724,0.06830303370952606,0.12693797051906586,0.2270255833864212,-0.06987188011407852,-9.336099624633789
1745669385.2863138,-0.15176908671855927,0.06359218060970306,0.13118866086006165,0.33367758989334106,-0.2706106901168823,-9.730705261230469
1745669385.2894342,-0.11792314052581787,0.06765885651111603,0.13119558990001678,0.22991672158241272,0.19143331050872803,-10.049330711364746
1745669385.3227222,-0.1336422711610794,0.06560380756855011,0.13231591880321503,0.3702767789363861,-0.2338588982820511,-9.805849075317383
1745669385.324502,-0.1284051537513733,0.0694795548915863,0.1310604065656662,0.2475876361131668,-0.16367992758750916,-9.36943244934082
1745669385.327294,-0.16175444424152374,0.07093028724193573,0.13487151265144348,0.5345265865325928,-0.35993343591690063,-9.488761901855469
1745669385.3467028,-0.1180076152086258,0.061321891844272614,0.16199982166290283,0.38035887479782104,0.22854328155517578,-9.615047454833984
1745669385.3664505,-0.10232020914554596,0.054601214826107025,0.16391251981258392,0.33367908000946045,0.11015342175960541,-9.36943244934082
1745669385.368656,-0.10034185647964478,0.059635795652866364,0.16324089467525482,0.46393173933029175,-0.06208764389157295,-9.843412399291992
1745669385.3709683,-0.12088297307491302,0.05188385397195816,0.16697221994400024,0.5952152013778687,-0.41761311888694763,-10.087030410766602
1745669385.374388,-0.1256435215473175,0.059062182903289795,0.16959646344184875,0.549740195274353,-0.415792852640152,-9.607558250427246
1745669385.3775072,-0.1606197953224182,0.0544414222240448,0.17612510919570923,0.6182986497879028,-0.5550506711006165,-9.367111206054688
1745669385.411702,-0.17759600281715393,0.04787088930606842,0.18120074272155762,0.47138601541519165,-0.38216954469680786,-9.766839981079102
1745669385.4127939,-0.18337860703468323,0.053511910140514374,0.18450073897838593,0.6290274858474731,-0.20639558136463165,-9.982385635375977
1745669385.4181075,-0.19010256230831146,0.053116120398044586,0.18579740822315216,0.291098415851593,0.1942344605922699,-9.78311538696289
1745669385.421428,-0.17231854796409607,0.04969620704650879,0.18612763285636902,0.3938848376274109,0.26100248098373413,-9.414205551147461
1745669385.451689,-0.1705055683851242,0.04012560099363327,0.1859453022480011,0.4402676522731781,0.2750624120235443,-9.604979515075684
1745669385.4539242,-0.13899996876716614,0.047388218343257904,0.1900545060634613,0.4208318293094635,0.3028373420238495,-9.97258186340332
1745669385.4559574,-0.1464327871799469,0.04165525734424591,0.1928485631942749,0.4696060121059418,0.08997640758752823,-9.867181777954102
1745669385.4587295,-0.11737678945064545,0.04310563579201698,0.1964145004749298,0.4574102461338043,0.1245095282793045,-9.492707252502441
1745669385.49819,-0.16334977746009827,-0.014063348062336445,0.2566355764865875,0.34727469086647034,0.45840445160865784,-9.573476791381836
1745669385.5020883,-0.1421310305595398,-0.017705772072076797,0.2577439248561859,0.557827353477478,0.28139805793762207,-9.938301086425781
1745669385.503563,-0.1467055082321167,-0.008853740990161896,0.2576100826263428,0.3128741681575775,0.6505429148674011,-9.921398162841797
1745669385.5070617,-0.13201186060905457,-0.017603402957320213,0.25816240906715393,0.5035721659660339,0.19839850068092346,-9.579832077026367
1745669385.5100403,-0.13252879679203033,-0.021045811474323273,0.25968989729881287,0.4411178231239319,0.5013482570648193,-9.575532913208008
1745669385.5379732,-0.13959451019763947,-0.015146257355809212,0.261817991733551,0.520513653755188,0.20354893803596497,-10.048863410949707
1745669385.5406654,-0.13171181082725525,-0.02589445933699608,0.26034748554229736,0.5516818165779114,0.30263540148735046,-9.90843391418457
1745669385.5411766,-0.14007598161697388,-0.015154927968978882,0.265024870634079,0.46739667654037476,0.3378714621067047,-9.633735656738281
1745669385.5454476,-0.13991202414035797,-0.023270510137081146,0.2675025463104248,0.4982993006706238,0.10349229723215103,-9.693747520446777
1745669385.5815327,-0.14548547565937042,-0.02518901228904724,0.2680193781852722,0.3880113661289215,0.48506489396095276,-9.84555435180664
1745669385.584139,-0.14581020176410675,-0.025765281170606613,0.2713759243488312,0.5960730314254761,0.14341966807842255,-9.928644180297852
1745669385.5857692,-0.13949914276599884,-0.024384159594774246,0.27036765217781067,0.30913248658180237,0.5556054711341858,-9.801759719848633
1745669385.588378,-0.14815768599510193,-0.025638099759817123,0.27041739225387573,0.43749016523361206,0.29115188121795654,-9.70304012298584
1745669385.589688,-0.14007864892482758,-0.03215176984667778,0.2719559371471405,0.45865440368652344,0.4438733458518982,-9.660244941711426
1745669385.6260035,-0.1441437304019928,-0.024961456656455994,0.2727128863334656,0.4195469915866852,0.43270143866539,-9.957121849060059
1745669385.6277318,-0.14420399069786072,-0.032266486436128616,0.27523499727249146,0.5043805241584778,0.20631106197834015,-9.94667911529541
1745669385.6310573,-0.13751709461212158,-0.023814838379621506,0.27426809072494507,0.3818729519844055,0.588520884513855,-9.597494125366211
1745669385.6336133,-0.1458437144756317,-0.03042593039572239,0.2794111669063568,0.5090205669403076,0.2392730414867401,-9.672052383422852
1745669385.6673706,-0.13608530163764954,-0.03489772230386734,0.27919408679008484,0.3474275469779968,0.5906731486320496,-9.889124870300293
1745669385.6699076,-0.14519205689430237,-0.02277272567152977,0.2801417410373688,0.5571333169937134,0.39876776933670044,-9.869795799255371
1745669385.672651,-0.13237103819847107,-0.03172876313328743,0.27896660566329956,0.37014520168304443,0.5625954866409302,-9.69898796081543
1745669385.6765804,-0.13633926212787628,-0.029185300692915916,0.2805589437484741,0.36884385347366333,0.5671372413635254,-9.773221969604492
1745669385.7112455,-0.13056588172912598,-0.03525584191083908,0.288017600774765,0.31563782691955566,0.4480830132961273,-9.800000190734863
1745669385.7139244,-0.12444654852151871,-0.029520368203520775,0.2912222146987915,0.4958677291870117,0.5396980047225952,-9.656539916992188
1745669385.7170653,-0.13989074528217316,-0.030064379796385765,0.29172271490097046,0.4040481448173523,0.3405904173851013,-9.968829154968262
1745669385.7201207,-0.12139010429382324,-0.030947323888540268,0.29151517152786255,0.3841966986656189,0.7034620642662048,-9.804239273071289
1745669385.724337,-0.14461418986320496,-0.037908442318439484,0.2915089428424835,0.5181866884231567,0.3254229426383972,-9.758744239807129
1745669385.753113,-0.12306754291057587,-0.030054885894060135,0.2916606068611145,0.33507299423217773,0.601932168006897,-9.814557075500488
1745669385.7577221,-0.15105947852134705,-0.02875746414065361,0.29450374841690063,0.485222727060318,0.41376805305480957,-9.809861183166504
1745669385.7582953,-0.13705137372016907,-0.03545012325048447,0.2916482985019684,0.4198435842990875,0.48448824882507324,-9.727750778198242
1745669385.7597132,-0.13693144917488098,-0.028677362948656082,0.29700544476509094,0.5063174366950989,0.614961564540863,-9.772144317626953
1745669385.7974615,-0.15405000746250153,-0.03353225439786911,0.29531317949295044,0.3265755772590637,0.44164156913757324,-10.043020248413086
1745669385.8015792,-0.11609327793121338,-0.027893582358956337,0.2970873713493347,0.41086116433143616,0.7220213413238525,-9.63360595703125
1745669385.8082557,-0.149631068110466,-0.02734535001218319,0.2978533208370209,0.39501357078552246,0.5771855711936951,-9.618276596069336
1745669385.809944,-0.11904430389404297,-0.02795528434216976,0.29769638180732727,0.24790215492248535,0.6357446908950806,-9.904450416564941
1745669385.8385868,-0.13381698727607727,-0.030498361214995384,0.2987596392631531,0.5452398061752319,0.6134145855903625,-9.816261291503906
1745669385.8425853,-0.11551666259765625,-0.021556954830884933,0.3124498128890991,0.2228327989578247,1.0699305534362793,-9.946008682250977
1745669385.8490577,-0.1010175347328186,-0.02399088628590107,0.3101778030395508,0.4802132546901703,0.621525764465332,-9.785905838012695
1745669385.852415,-0.10431607067584991,-0.020975176244974136,0.31143465638160706,0.4065358638763428,1.0057710409164429,-9.43777847290039
1745669385.8532777,-0.11360281705856323,-0.02130025625228882,0.3108758330345154,0.3681192994117737,0.630395770072937,-9.844964981079102
1745669385.8866045,-0.09574829041957855,-0.030472781509160995,0.31227630376815796,0.5027991533279419,0.7478755712509155,-9.899444580078125
1745669385.8888474,-0.11095702648162842,-0.014204023405909538,0.3119543194770813,0.3705199658870697,0.9341950416564941,-9.746667861938477
1745669385.8916314,-0.10594487190246582,-0.025614002719521523,0.3122529983520508,0.4614602029323578,0.6273666620254517,-9.643373489379883
1745669385.8938413,-0.09721377491950989,-0.026485633105039597,0.31422507762908936,0.3271408677101135,1.040290117263794,-9.630606651306152
1745669385.9269636,-0.10637303441762924,-0.019184060394763947,0.31185969710350037,0.5359994173049927,0.6368916630744934,-9.896258354187012
1745669385.9290485,-0.09619417786598206,-0.02039080485701561,0.3127020299434662,0.32308998703956604,1.0598366260528564,-9.78022289276123
1745669385.9297874,-0.10121367126703262,-0.02502470090985298,0.31328117847442627,0.400057315826416,0.7245807647705078,-9.691330909729004
1745669385.932189,-0.08991384506225586,-0.024619214236736298,0.31405046582221985,0.43630990386009216,0.8436884880065918,-9.632915496826172
1745669385.9352093,-0.1027505174279213,-0.015841063112020493,0.3149570822715759,0.37392956018447876,1.0223960876464844,-9.801518440246582
1745669385.9696896,-0.09322201460599899,-0.031021500006318092,0.3115275204181671,0.5264545679092407,0.688232421875,-9.765657424926758
1745669385.9716432,-0.08504371345043182,-0.02167423814535141,0.31294506788253784,0.3744649291038513,1.184075951576233,-9.643087387084961
1745669385.975465,-0.10509383678436279,-0.02293640747666359,0.3120283782482147,0.4562888741493225,0.679617702960968,-9.901900291442871
1745669385.9784667,-0.07631199061870575,-0.028329119086265564,0.3111783564090729,0.3194052577018738,1.0078436136245728,-9.66882038116455
1745669386.0112753,-0.08921509981155396,-0.020367305725812912,0.3122621774673462,0.48708096146583557,0.8273404836654663,-9.566354751586914
1745669386.0122654,-0.0825500413775444,-0.024063076823949814,0.3138344883918762,0.2873729169368744,0.8521324396133423,-9.813555717468262
1745669386.014644,-0.07514019310474396,-0.021090982481837273,0.3146025538444519,0.42089834809303284,1.037865400314331,-9.700628280639648
1745669386.0157945,-0.07994544506072998,-0.02845560386776924,0.312934547662735,0.524716854095459,0.8010817766189575,-9.710799217224121
1745669386.018333,-0.06442923098802567,-0.017541345208883286,0.311835378408432,0.33539992570877075,1.1132557392120361,-9.775335311889648
1745669386.0559614,-0.08336040377616882,-0.025606373324990273,0.3112262189388275,0.4563041627407074,0.6233674883842468,-9.788461685180664
1745669386.0579674,-0.07811617851257324,-0.03006604313850403,0.31085532903671265,0.33046141266822815,0.7956608533859253,-9.934550285339355
1745669386.0599115,-0.06805627048015594,-0.01871299557387829,0.3109126389026642,0.5416577458381653,1.0436910390853882,-9.568975448608398
1745669386.0682595,-0.0891643613576889,-0.025260290130972862,0.3112141191959381,0.38537833094596863,0.8516316413879395,-9.656907081604004
1745669386.1003556,-0.0596904382109642,-0.025304416194558144,0.31247156858444214,0.3574398458003998,1.0335404872894287,-9.756343841552734
1745669386.1026678,-0.08306291699409485,-0.024182714521884918,0.31328994035720825,0.5338865518569946,0.8018439412117004,-9.786049842834473
1745669386.1048343,-0.055144794285297394,-0.0190185084939003,0.31319934129714966,0.3364420533180237,1.09659743309021,-9.655447959899902
1745669386.1063766,-0.06997474282979965,-0.026386689394712448,0.3119664788246155,0.4448569416999817,0.9196498990058899,-9.729913711547852
1745669386.1430318,-0.05595283582806587,-0.029726099222898483,0.3121010661125183,0.3488479256629944,0.9475452303886414,-9.845233917236328
1745669386.1462677,-0.0531986840069294,-0.01576121710240841,0.312238872051239,0.47472134232521057,1.0872951745986938,-9.633410453796387
1745669386.150035,-0.06921448558568954,-0.030444467440247536,0.3098720908164978,0.29886260628700256,0.7774378657341003,-9.696332931518555
1745669386.1533084,-0.03854060545563698,-0.02291911095380783,0.3106040954589844,0.5071948766708374,0.9738627672195435,-9.66882610321045
1745669386.1832097,-0.072044238448143,-0.026419799774885178,0.31070971488952637,0.4804750382900238,0.8399049043655396,-9.843707084655762
1745669386.184966,-0.049032535403966904,-0.022543737664818764,0.31101876497268677,0.28312069177627563,0.9325974583625793,-9.836628913879395
1745669386.1891284,0.003035387024283409,-0.025402482599020004,0.3116627335548401,0.37468352913856506,1.1020995378494263,-9.666282653808594
1745669386.1911294,-0.005500510334968567,-0.021490702405571938,0.3105645179748535,0.34408846497535706,0.9048486948013306,-9.924237251281738
1745669386.2352302,0.007575380615890026,-0.029518235474824905,0.31204017996788025,0.43514442443847656,0.857891857624054,-9.674003601074219
1745669386.2353776,-0.0015010141069069505,-0.018426069989800453,0.31026315689086914,0.3387376666069031,1.0834791660308838,-9.593725204467773
1745669386.2354321,-0.009194430895149708,-0.02662554755806923,0.3131769597530365,0.49211326241493225,0.6817622780799866,-9.835458755493164
1745669386.2354798,0.006777254398912191,-0.026548540219664574,0.3120730519294739,0.39754804968833923,1.113267421722412,-9.796625137329102
1745669386.2357118,-0.005944632459431887,-0.015494992025196552,0.31088533997535706,0.485879123210907,0.8379737734794617,-9.739387512207031
1745669386.2714462,0.002970875473693013,-0.028734859079122543,0.3136886656284332,0.26467442512512207,0.9914321899414062,-9.679840087890625
1745669386.27462,0.002963996957987547,-0.020566951483488083,0.31294989585876465,0.4969175457954407,0.9485739469528198,-9.628122329711914
1745669386.2779493,0.0071143703535199165,-0.024579953402280807,0.3117470443248749,0.4305093288421631,0.9612172245979309,-9.833754539489746
1745669386.2819517,0.008736733347177505,-0.018819604068994522,0.3128421902656555,0.2745911180973053,1.066277265548706,-9.889019966125488
1745669386.3122156,0.00427491869777441,-0.027779627591371536,0.31307870149612427,0.44003015756607056,0.7074735760688782,-9.678627014160156
1745669386.314801,0.019257109612226486,-0.01901245303452015,0.3113427460193634,0.35819488763809204,1.2008243799209595,-9.506448745727539
1745669386.317612,-0.005488741211593151,-0.023570578545331955,0.31091782450675964,0.42290034890174866,0.6870924830436707,-9.916841506958008
1745669386.318237,0.01591550186276436,-0.0247330479323864,0.3099551200866699,0.30910804867744446,0.9259194135665894,-9.873501777648926
1745669386.3265707,0.0037911899853497744,-0.015212325379252434,0.3138808012008667,0.4989669919013977,0.8917635679244995,-9.551706314086914
1745669386.3564954,-0.006226458121091127,-0.02583397552371025,0.3144157826900482,0.301618754863739,0.7542556524276733,-9.709416389465332
1745669386.3598309,0.00906332116574049,-0.024234768003225327,0.31265777349472046,0.45213156938552856,0.9362290501594543,-9.778154373168945
1745669386.3639123,-0.01311572641134262,-0.018524914979934692,0.31382083892822266,0.4666566848754883,0.808489203453064,-9.8987455368042
1745669386.3650124,0.008412323892116547,-0.014430029317736626,0.3136812150478363,0.28155580163002014,1.1457475423812866,-9.667590141296387
1745669386.400713,-0.011237128637731075,-0.027833472937345505,0.3112821578979492,0.4595150947570801,0.7980278134346008,-9.640573501586914
1745669386.403512,0.011162328533828259,-0.020067770034074783,0.3133292496204376,0.326130747795105,1.0532329082489014,-9.781214714050293
1745669386.4044986,-0.0059270551428198814,-0.013426728546619415,0.31004971265792847,0.4179757237434387,0.9467455744743347,-9.858591079711914
1745669386.406355,-0.0011306286323815584,-0.027501851320266724,0.30923500657081604,0.3079702854156494,0.8565171957015991,-9.704670906066895
1745669386.4085095,0.015438845381140709,-0.016846034675836563,0.31068089604377747,0.5242181420326233,1.0747222900390625,-9.571576118469238
1745669386.442358,-0.015639644116163254,-0.020111655816435814,0.3091300129890442,0.31651872396469116,0.8281105756759644,-9.965919494628906
1745669386.4442077,0.021317023783922195,-0.018844839185476303,0.3111209273338318,0.371833860874176,1.0065268278121948,-9.783668518066406
1745669386.4460065,-0.0015853943768888712,-0.021806800737977028,0.30974018573760986,0.5207494497299194,0.8751107454299927,-9.549298286437988
1745669386.4480712,0.010227402672171593,-0.013043840415775776,0.31212061643600464,0.24717089533805847,0.9262555837631226,-9.860252380371094
1745669386.48608,0.0070293983444571495,-0.021466847509145737,0.31294918060302734,0.4970904290676117,0.8865829706192017,-9.755560874938965
1745669386.4938924,0.007237258367240429,-0.02238992601633072,0.3118407726287842,0.3551686108112335,0.939805805683136,-9.737414360046387
1745669386.4949098,0.014867911115288734,-0.015104016289114952,0.30701765418052673,0.420299768447876,0.9633787870407104,-9.813727378845215
1745669386.4949734,-0.009584696963429451,-0.023060152307152748,0.3092573285102844,0.3075629770755768,0.7969938516616821,-9.807271957397461
1745669386.5271587,0.0218597911298275,-0.01973263919353485,0.30897119641304016,0.48078975081443787,0.9402256011962891,-9.52784252166748
1745669386.5300703,-0.01845311000943184,-0.02053927816450596,0.3104372024536133,0.4011055827140808,0.8190908432006836,-9.80219841003418
1745669386.5321038,0.002351636067032814,-0.018323110416531563,0.31098318099975586,0.31033262610435486,0.8005531430244446,-10.019644737243652
1745669386.5369744,0.01689254492521286,-0.022084737196564674,0.31557899713516235,0.4904209077358246,0.7935444116592407,-9.597158432006836
1745669386.5703163,0.025107553228735924,-0.02730434574186802,0.31518781185150146,0.38927802443504333,0.9120604395866394,-9.766372680664062
1745669386.573772,0.026057034730911255,-0.021262643858790398,0.3154447078704834,0.32300087809562683,0.9790412783622742,-9.95332145690918
1745669386.5797393,0.02681044302880764,-0.02951718494296074,0.31335559487342834,0.4566463828086853,0.7435539364814758,-9.79352855682373
1745669386.582674,0.03544952720403671,-0.0171790923923254,0.31500059366226196,0.3438623547554016,1.1275413036346436,-9.456612586975098
1745669386.5848784,0.014786824584007263,-0.029785960912704468,0.31389132142066956,0.44279083609580994,0.6127620339393616,-9.779438018798828
1745669386.6151276,0.03902618959546089,-0.02713758312165737,0.31594568490982056,0.33303385972976685,0.9648577570915222,-9.89680290222168
1745669386.6184504,0.019714804366230965,-0.01865292526781559,0.31460893154144287,0.4792032241821289,0.7764261364936829,-9.756068229675293
1745669386.621388,0.024341322481632233,-0.028722938150167465,0.3150028586387634,0.27367711067199707,0.8132597804069519,-9.640748977661133
1745669386.6244373,0.031331371515989304,-0.027158912271261215,0.3152264952659607,0.46654096245765686,0.8841565847396851,-9.612834930419922
1745669386.65858,0.017504369840025902,-0.023538101464509964,0.31878378987312317,0.41275089979171753,0.6899316310882568,-9.91807746887207
1745669386.6620579,0.03127339482307434,-0.01783820427954197,0.31821709871292114,0.3100714087486267,1.0300430059432983,-9.760656356811523
1745669386.6665103,0.017173634842038155,-0.034202829003334045,0.3163613975048065,0.4568573534488678,0.6557811498641968,-9.645326614379883
1745669386.6679194,0.04078211635351181,-0.024288659915328026,0.3181387782096863,0.35147687792778015,0.9768809080123901,-9.720975875854492
1745669386.701073,0.01254178024828434,-0.02206990495324135,0.3166998028755188,0.39610639214515686,0.7602474689483643,-9.908162117004395
1745669386.7047248,0.03191297501325607,-0.029428010806441307,0.3177877962589264,0.28048181533813477,0.792357325553894,-9.703454971313477
1745669386.708639,0.029779890552163124,-0.01933526247739792,0.3161286413669586,0.5030634999275208,0.9112920761108398,-9.502586364746094
1745669386.7098446,0.0070323823019862175,-0.02868754230439663,0.3179146647453308,0.3203079104423523,0.6897075772285461,-9.960118293762207
1745669386.7427728,0.04287975654006004,-0.026601482182741165,0.31772738695144653,0.4151061177253723,0.9792320132255554,-9.820810317993164
1745669386.7472847,0.01432922761887312,-0.023342398926615715,0.3170717656612396,0.43301886320114136,0.7515732645988464,-9.638580322265625
1745669386.7485154,0.03352661058306694,-0.020289702340960503,0.32023707032203674,0.2294861525297165,0.8371901512145996,-9.697853088378906
1745669386.7519114,0.02068777196109295,-0.030191713944077492,0.3186168074607849,0.5044479966163635,0.7791353464126587,-9.65455436706543
1745669386.753471,0.03178773447871208,-0.02504691481590271,0.31782886385917664,0.3398067057132721,0.8850691914558411,-9.844195365905762
1745669386.7923229,0.043454237282276154,-0.02111494168639183,0.3170415163040161,0.48025351762771606,0.8940247297286987,-9.421995162963867
1745669386.7975416,0.0045373146422207355,-0.02409842237830162,0.31863129138946533,0.3291548490524292,0.6982768177986145,-9.890043258666992
1745669386.8036745,0.03342161327600479,-0.02587268315255642,0.3167015612125397,0.3193114995956421,0.7601255774497986,-9.983739852905273
1745669386.807757,0.021941589191555977,-0.02236144244670868,0.3185907304286957,0.5466862916946411,0.8284177780151367,-9.559395790100098
1745669386.8297856,0.01681927964091301,-0.01993684098124504,0.31942737102508545,0.22979030013084412,0.8253952860832214,-9.644680976867676
1745669386.8319383,0.030459308996796608,-0.03002830781042576,0.32169944047927856,0.447793573141098,0.7487889528274536,-9.783648490905762
1745669386.835081,0.015246597118675709,-0.021672707051038742,0.3197059631347656,0.3422195315361023,0.846783459186554,-9.841705322265625
1745669386.8396041,0.037624020129442215,-0.013259971514344215,0.3204411268234253,0.41757410764694214,0.8769004940986633,-9.69163990020752
1745669386.8417082,0.012101629748940468,-0.03141390532255173,0.3175523281097412,0.29727238416671753,0.8281105160713196,-9.717519760131836
1745669386.8734689,0.041016485542058945,-0.022603513672947884,0.3200817108154297,0.4171608090400696,0.7862867116928101,-9.805198669433594
1745669386.875947,0.01799219287931919,-0.01717720553278923,0.3180631101131439,0.44296377897262573,0.8817976117134094,-9.728142738342285
1745669386.8773158,0.023385748267173767,-0.02222798950970173,0.31839045882225037,0.2180057317018509,0.6803841590881348,-9.762556076049805
1745669386.8788443,0.03545044735074043,-0.02769816853106022,0.3195651173591614,0.5746756792068481,0.762220561504364,-9.564366340637207
1745669386.9157495,0.00746248010545969,-0.014931315556168556,0.32985371351242065,0.47645577788352966,0.6920902729034424,-9.469118118286133
1745669386.9172804,-0.00012979182065464556,-0.017978113144636154,0.3302198648452759,0.34096312522888184,0.6846844553947449,-10.00413990020752
1745669386.9196215,0.015673842281103134,-0.011761072091758251,0.3310520052909851,0.33943501114845276,0.9282153844833374,-9.945576667785645
1745669386.9213443,0.0074104564264416695,-0.02000908926129341,0.3282238841056824,0.4313102662563324,0.6377027034759521,-9.633030891418457
1745669386.9241958,0.01963629387319088,-0.009963862597942352,0.33205682039260864,0.28450050950050354,0.9165166020393372,-9.58797836303711
1745669386.9614363,-0.0036994304973632097,-0.018989330157637596,0.32798880338668823,0.41702237725257874,0.5256529450416565,-9.83556842803955
1745669386.9633634,0.0175219364464283,-0.01750129833817482,0.3304968774318695,0.34521764516830444,0.7925783395767212,-9.778493881225586
1745669386.964086,-0.0035403170622885227,-0.010654005222022533,0.3294939696788788,0.48160848021507263,0.6847938895225525,-9.768142700195312
1745669386.9658844,-0.00418984517455101,-0.018652888014912605,0.33100149035453796,0.3492545187473297,0.6479370594024658,-9.850924491882324
1745669387.0038524,0.013209514319896698,-0.015161877498030663,0.3308714032173157,0.4690000116825104,0.8499501943588257,-9.641501426696777
1745669387.0071824,-0.010749288834631443,-0.01578238606452942,0.33162248134613037,0.34931179881095886,0.6725913286209106,-9.78317928314209
1745669387.0115156,0.014163367450237274,-0.014367727562785149,0.33289122581481934,0.21964344382286072,0.8017255663871765,-9.764772415161133
1745669387.0144854,-0.007922104559838772,-0.017512673512101173,0.3307439684867859,0.48125728964805603,0.6640790104866028,-9.60426139831543
1745669387.0439835,0.016691498458385468,-0.016073796898126602,0.3321995139122009,0.3439894914627075,0.8871265649795532,-9.773430824279785
1745669387.045769,0.0034834095276892185,-0.015497426502406597,0.33290520310401917,0.4196712374687195,0.784479022026062,-9.980659484863281
1745669387.0473194,0.006906195543706417,-0.016395768150687218,0.33080604672431946,0.2673366665840149,0.6893228888511658,-9.811802864074707
1745669387.0501053,0.020068319514393806,-0.011943675577640533,0.3312261402606964,0.5301053524017334,0.8390594720840454,-9.370513916015625
1745669387.0574179,-0.012213284149765968,-0.021764535456895828,0.33096960186958313,0.3497295379638672,0.5903428196907043,-9.844518661499023
1745669387.089559,0.01938014104962349,-0.017707085236907005,0.3295486867427826,0.4115910530090332,0.7201811075210571,-10.027155876159668
1745669387.093302,-0.012071443721652031,-0.013331951573491096,0.33017945289611816,0.451662540435791,0.7219263315200806,-9.699923515319824
1745669387.0990114,0.003047276521101594,-0.013831278309226036,0.33427438139915466,0.2578933835029602,0.7457205653190613,-9.557934761047363
1745669387.103631,-0.0015737188514322042,-0.025334557518363,0.3318086266517639,0.5216538310050964,0.7332713007926941,-9.648073196411133
1745669387.1305618,-0.005097752902656794,-0.013411670923233032,0.33240777254104614,0.3021732568740845,0.7851367592811584,-10.046407699584961
1745669387.136189,0.0231553316116333,-0.016119590029120445,0.33258378505706787,0.44621363282203674,0.693774938583374,-9.69981575012207
1745669387.137432,-0.010468581691384315,-0.014744743704795837,0.3323625922203064,0.3917715847492218,0.7362351417541504,-9.854121208190918
1745669387.1593764,0.00982334278523922,-0.01732870563864708,0.3318824768066406,0.32928887009620667,0.6252806186676025,-9.786757469177246
1745669387.1732726,-0.0003427594783715904,-0.019926410168409348,0.33246874809265137,0.5333058834075928,0.7367870807647705,-9.605642318725586
1745669387.176681,-0.014100847765803337,-0.01503028441220522,0.3316083550453186,0.2736368179321289,0.7108667492866516,-9.90227222442627
1745669387.1811028,0.007501097861677408,-0.022240011021494865,0.3321872055530548,0.5244156122207642,0.6470588445663452,-9.766291618347168
1745669387.1850243,-0.0144382668659091,-0.01660282537341118,0.3330281376838684,0.32456570863723755,0.8181215524673462,-9.667699813842773
1745669387.188356,0.0025656570214778185,-0.013665439561009407,0.3341052234172821,0.35735172033309937,0.5864385366439819,-9.827275276184082
1745669387.2251842,-0.007182316388934851,-0.023437658324837685,0.3332435190677643,0.39110055565834045,0.9028135538101196,-9.674825668334961
1745669387.2252946,0.007652787957340479,-0.016759337857365608,0.334158718585968,0.4186624586582184,0.7389674782752991,-9.787477493286133
1745669387.2253544,0.004801487550139427,-0.017463404685258865,0.33506783843040466,0.41664037108421326,0.8451709747314453,-9.867544174194336
