timestamp,angular_vel_x,angular_vel_y,angular_vel_z,linear_acc_x,linear_acc_y,linear_acc_z
1745735510.2552989,-0.00752133596688509,-0.002065284177660942,-0.04048771411180496,0.36631447076797485,-0.30641642212867737,-9.821876525878906
1745735510.2578053,-0.011522260494530201,-0.006994599010795355,-0.041067518293857574,0.3382294774055481,0.023501742631196976,-9.740923881530762
1745735510.2706058,-0.00019258186512161046,-0.003133091377094388,-0.040593456476926804,0.2921324074268341,-0.25680533051490784,-9.803692817687988
1745735510.2706785,-0.014432363212108612,-0.005472355987876654,-0.04222725331783295,0.39675283432006836,-0.08364494144916534,-9.743677139282227
1745735510.2707112,0.0025650756433606148,-0.0023835902102291584,-0.04124851152300835,0.23455965518951416,-0.07294957339763641,-9.820930480957031
1745735510.2707422,-0.015725791454315186,-0.0048802802339196205,-0.041181378066539764,0.40809494256973267,-0.24833270907402039,-9.77797794342041
1745735510.2707713,-0.00032744798227213323,-0.004354207776486874,-0.041833627969026566,0.24522456526756287,0.054113440215587616,-9.748815536499023
1745735510.2708004,-0.011534525081515312,-0.0011850426672026515,-0.0405278280377388,0.3839429020881653,-0.3167875409126282,-9.802907943725586
1745735510.271244,-0.006386704742908478,-0.006413097493350506,-0.040248408913612366,0.3059375584125519,0.060580410063266754,-9.736371994018555
1745735510.2712698,-0.004180069547146559,-0.0012615389423444867,-0.04120046645402908,0.32897070050239563,-0.25935691595077515,-9.801444053649902
1745735510.2712917,-0.013675348833203316,-0.006881047040224075,-0.039191726595163345,0.36886295676231384,-0.05073488876223564,-9.739312171936035
1745735510.285826,0.0018902253359556198,-0.003723851637914777,-0.04077952355146408,0.2431398183107376,-0.00465567409992218,-9.761695861816406
1745735510.285872,-0.010423360392451286,-0.0026235654950141907,-0.04088599607348442,0.42006778717041016,-0.24546441435813904,-9.79725170135498
1745735510.286189,-0.002277257852256298,-0.00477411737665534,-0.04067138582468033,0.2817198634147644,0.05872998759150505,-9.741910934448242
1745735510.286373,-0.005228130612522364,0.0010916932951658964,-0.04014867916703224,0.35296693444252014,-0.2941206991672516,-9.789104461669922
1745735510.3140194,-0.008406860753893852,-0.004921212326735258,-0.03914371132850647,0.3482343554496765,0.053122084587812424,-9.732015609741211
1745735510.3420918,0.0016176633071154356,0.002901244442909956,-0.039400435984134674,0.2901841402053833,-0.19359460473060608,-9.830881118774414
1745735510.3437028,-0.013516786508262157,-0.005002979189157486,-0.03878490626811981,0.3982693552970886,-0.07300888746976852,-9.749114036560059
1745735510.3437319,0.003113964106887579,0.00014051576727069914,-0.03848063200712204,0.2513611614704132,-0.04253436252474785,-9.764284133911133
1745735510.3480105,-0.012546509504318237,-0.0017836535116657615,-0.04115563631057739,0.4156314432621002,-0.20603635907173157,-9.786174774169922
1745735510.3676882,0.0023846447002142668,-0.0034657411742955446,-0.03915057331323624,0.24317340552806854,0.07222549617290497,-9.768758773803711
1745735510.405892,-0.005776440259069204,0.0015532926190644503,-0.041232287883758545,0.3748285174369812,-0.28895753622055054,-9.79821491241455
1745735510.426217,-0.004498658701777458,-0.004145801067352295,-0.03908861428499222,0.2922605276107788,0.09162136912345886,-9.747355461120605
1745735510.435015,0.0011789517011493444,-0.000674859038554132,-0.03888101875782013,0.29403796792030334,-0.23038092255592346,-9.826558113098145
1745735510.4777775,-0.012333464808762074,-0.003689610166475177,-0.04044341295957565,0.3883053660392761,-0.026222387328743935,-9.742616653442383
1745735510.4917226,0.005621272139251232,0.001063284114934504,-0.04078642278909683,0.2509886622428894,-0.09318011999130249,-9.787297248840332
1745735510.4939625,-0.011735554784536362,-0.0027405493892729282,-0.039309222251176834,0.4126443862915039,-0.15365974605083466,-9.750174522399902
1745735510.4951468,0.003909079823642969,-0.002057403326034546,-0.04121137782931328,0.23622465133666992,0.02538612112402916,-9.793519020080566
1745735510.4983842,-0.008226053789258003,0.0012930158991366625,-0.039375536143779755,0.39973729848861694,-0.259948194026947,-9.811079025268555
1745735510.5094726,0.00456494465470314,0.00158528215251863,-0.039944615215063095,0.31803202629089355,-0.25307658314704895,-9.817170143127441
1745735510.5095227,-0.0050004273653030396,-0.0008167808991856873,-0.038041453808546066,0.3666302561759949,0.007558363489806652,-9.770526885986328
1745735510.5095737,0.009321434423327446,0.0022427074145525694,-0.039767634123563766,0.2621704936027527,-0.12152097374200821,-9.810876846313477
1745735510.5311573,-0.004745516926050186,-0.0012481135781854391,-0.04062401503324509,0.4120320677757263,-0.1304931342601776,-9.759119033813477
1745735510.5320916,0.009418542496860027,-0.00045649762614630163,-0.038770563900470734,0.23563607037067413,0.0021018863189965487,-9.785135269165039
1745735510.5328481,-0.0052523864433169365,0.0008953021024353802,-0.03928052634000778,0.4038648009300232,-0.2402048408985138,-9.810686111450195
1745735510.534756,0.007580993231385946,-0.0003438994172029197,-0.039125822484493256,0.2747557461261749,0.08134526759386063,-9.745817184448242
1745735510.53765,0.002592548029497266,0.003349561942741275,-0.04014943167567253,0.3396091163158417,-0.25914764404296875,-9.800732612609863
1745735510.5385711,-0.0007753653335385025,-0.0031245506834238768,-0.03964225947856903,0.33451515436172485,0.044873837381601334,-9.787886619567871
1745735510.6565032,0.01124109048396349,0.0033900432754307985,-0.03933345526456833,0.2844662368297577,-0.17390894889831543,-9.829549789428711
1745735510.6565726,-0.004637830890715122,-0.0008199227158911526,-0.04066242277622223,0.40188664197921753,-0.09023857116699219,-9.738178253173828
1745735510.790271,0.011654719710350037,0.0021678053308278322,-0.03738970682024956,0.24243764579296112,-0.032876502722501755,-9.790431022644043
1745735510.7920413,-0.0028565856628119946,0.0004967426648363471,-0.04041355475783348,0.4154227375984192,-0.20224682986736298,-9.806979179382324
1745735510.79475,0.009263789281249046,0.00015336684009525925,-0.040762875229120255,0.24609620869159698,0.048310793936252594,-9.779590606689453
1745735510.7952082,0.0013940011849626899,0.0029138284735381603,-0.03909650817513466,0.3714112639427185,-0.26539942622184753,-9.809972763061523
1745735510.8195467,0.0032491169404238462,-0.002773676300421357,-0.040964994579553604,0.33292409777641296,0.060101382434368134,-9.731158256530762
1745735510.8210971,0.00829568225890398,0.004029734525829554,-0.03957458585500717,0.30355173349380493,-0.2128901481628418,-9.843229293823242
1745735510.8221362,0.0057247476652264595,-0.0029964414425194263,-0.03953900560736656,0.33575448393821716,0.031047260388731956,-9.764394760131836
1745735510.8234282,0.01385197602212429,0.00433205533772707,-0.03897488862276077,0.2885514199733734,-0.18804612755775452,-9.814824104309082
1745735510.8248029,0.0019400306046009064,0.00023626470647286624,-0.038246601819992065,0.40767747163772583,-0.055182479321956635,-9.755579948425293
1745735510.8486156,0.018234718590974808,0.0032093734480440617,-0.04048847407102585,0.26155155897140503,-0.06841405481100082,-9.793475151062012
1745735510.854165,0.0026758068706840277,0.0007021765341050923,-0.038597144186496735,0.4317866265773773,-0.19419094920158386,-9.781208038330078
1745735510.864273,0.014607204124331474,0.0006348289316520095,-0.03925018012523651,0.24573251605033875,0.050494235008955,-9.789055824279785
1745735510.8771281,0.0063608139753341675,0.00407614279538393,-0.03916314244270325,0.3783164620399475,-0.2500908374786377,-9.793798446655273
1745735510.8785362,0.010459776036441326,-0.0031093149445950985,-0.039199233055114746,0.32142648100852966,0.05454583093523979,-9.751235961914062
1745735510.8795578,0.012958896346390247,0.004014821257442236,-0.03971690684556961,0.323447585105896,-0.20775064826011658,-9.815624237060547
1745735510.8812675,0.004830007441341877,-0.0012369010364636779,-0.03963793069124222,0.37966927886009216,-0.022122764959931374,-9.751896858215332
1745735510.882849,0.01768343523144722,0.0035042916424572468,-0.03802890703082085,0.24392223358154297,-0.10310935974121094,-9.789623260498047
1745735510.8844705,0.0022258381359279156,-0.00017719910829328,-0.03953561931848526,0.4298211932182312,-0.16295520961284637,-9.76494312286377
1745735510.9077327,0.016571346670389175,0.0006801337003707886,-0.03922078758478165,0.26417282223701477,0.025235187262296677,-9.797403335571289
1745735510.9078765,0.005045301280915737,0.004366210661828518,-0.03840940073132515,0.3944026827812195,-0.2595131993293762,-9.826723098754883
1745735510.9079456,0.012910254299640656,-0.002651012036949396,-0.039995722472667694,0.29760652780532837,0.0459003783762455,-9.733014106750488
1745735510.914123,0.010675845667719841,0.004246565513312817,-0.03752589970827103,0.3354826271533966,-0.2432643175125122,-9.79815673828125
1745735510.914801,0.007753209676593542,-0.003210291266441345,-0.039229243993759155,0.3826901912689209,-0.0032392889261245728,-9.754236221313477
1745735510.9172373,0.018308356404304504,0.0024704288225620985,-0.040408339351415634,0.2589799761772156,-0.12788380682468414,-9.824392318725586
1745735510.9310958,0.0034836740233004093,0.001024007797241211,-0.038509808480739594,0.4176543354988098,-0.1395990252494812,-9.746940612792969
1745735510.9397123,0.021016789600253105,-0.0014464848209172487,-0.03793774172663689,0.24299654364585876,-0.08694478124380112,-9.785521507263184
1745735510.9424145,0.005076446104794741,-0.0019824556075036526,-0.03788795322179794,0.42938232421875,-0.2158551663160324,-9.778196334838867
1745735510.9456172,0.01754908636212349,-0.0039277272298932076,-0.03876916691660881,0.2734827399253845,0.018774662166833878,-9.768243789672852
1745735510.9456792,0.009030010551214218,0.0005951900384388864,-0.03897669538855553,0.39963412284851074,-0.26160481572151184,-9.798832893371582
1745735510.9466598,0.013373340480029583,-0.00603151461109519,-0.038999032229185104,0.3107594847679138,0.026655644178390503,-9.71674919128418
1745735510.9482028,0.014373913407325745,0.00015540439926553518,-0.038456305861473083,0.32621830701828003,-0.24587707221508026,-9.799355506896973
1745735510.9498804,0.005914586596190929,-0.005057659465819597,-0.038208261132240295,0.3793075680732727,-0.046448372304439545,-9.761777877807617
1745735510.9503555,0.018786320462822914,-0.0006577007588930428,-0.0388936884701252,0.2637430429458618,-0.12321207672357559,-9.801180839538574
1745735510.9719894,0.005801219027489424,-0.004366644658148289,-0.037998296320438385,0.4376351237297058,-0.1793021857738495,-9.73720645904541
1745735510.9772303,0.018250174820423126,-0.006406905595213175,-0.039121899753808975,0.2518962621688843,0.0010484993690624833,-9.7909517288208
1745735510.9802713,0.007584709674119949,-0.001335540204308927,-0.038538649678230286,0.39542174339294434,-0.264701783657074,-9.824216842651367
1745735510.9822295,0.013625526800751686,-0.006189190316945314,-0.037208475172519684,0.3135925531387329,0.04311201721429825,-9.742778778076172
1745735510.9850838,0.014684505760669708,-0.0017288438975811005,-0.038378193974494934,0.3271595537662506,-0.24425430595874786,-9.794682502746582
1745735510.9867697,0.00750491488724947,-0.0047842287458479404,-0.039269447326660156,0.38424763083457947,-0.03192492201924324,-9.723502159118652
1745735510.9881043,0.019025323912501335,-0.0020205124747008085,-0.036525603383779526,0.25926175713539124,-0.15133535861968994,-9.829267501831055
1745735510.9904473,0.0038329511880874634,-0.004180810414254665,-0.038570862263441086,0.41239601373672485,-0.1708187311887741,-9.769207954406738
1745735510.9920783,0.019063901156187057,-0.005181081593036652,-0.0374973900616169,0.25619301199913025,-0.025495562702417374,-9.758012771606445
1745735510.9953659,0.006623204797506332,0.004669642075896263,-0.056192196905612946,0.3746264576911926,-1.166833519935608,-12.52054500579834
1745735510.9997907,-0.03076583705842495,0.06400586664676666,-0.04688067361712456,0.12317590415477753,-0.08238868415355682,-9.441805839538574
1745735510.9998348,-0.01767396554350853,-0.003939752466976643,-0.049403734505176544,0.6461350917816162,0.054349254816770554,-6.908865451812744
1745735511.001329,0.01795114018023014,-0.0077783577144145966,-0.06217588111758232,0.5032526254653931,1.353253960609436,-9.910577774047852
1745735511.0162647,0.02619963511824608,0.009432378225028515,-0.08415650576353073,0.38233527541160583,0.49514204263687134,-13.054929733276367
1745735511.0186799,0.11484203487634659,0.03354518860578537,-0.0916595458984375,-0.006328579969704151,0.4601079821586609,-9.815719604492188
1745735511.0215073,0.03125740587711334,0.008598068729043007,-0.08831994235515594,0.1686950922012329,-0.805169939994812,-6.959262847900391
1745735511.0228107,0.04732178896665573,-0.008204462006688118,-0.07803923636674881,0.6607754826545715,-0.49315014481544495,-9.430054664611816
1745735511.070193,0.022514507174491882,0.0259840227663517,-0.07787860929965973,1.0496820211410522,-0.39927414059638977,-12.39729118347168
1745735511.0702376,0.047732215374708176,0.028515618294477463,-0.0830836370587349,0.9537925720214844,-0.026837926357984543,-10.196203231811523
1745735511.070326,0.050581447780132294,0.026323506608605385,-0.09069894254207611,0.9861408472061157,0.09370100498199463,-7.419262886047363
1745735511.0703588,0.004420500714331865,-0.018205633386969566,-0.09784771502017975,1.022290825843811,0.07057752460241318,-9.63675594329834
1745735511.0703907,0.07221727818250656,0.01756432093679905,-0.1088336855173111,0.6534385085105896,0.003906738944351673,-12.253450393676758
1745735511.105484,0.04201061651110649,0.04526063799858093,-0.11535152047872543,0.4001859128475189,-0.1808733493089676,-10.128935813903809
1745735511.1072607,0.08052520453929901,0.030917853116989136,-0.11787960678339005,0.42559170722961426,0.08018548786640167,-7.034432888031006
1745735511.112256,0.05007968470454216,0.0238201804459095,-0.1255478411912918,0.8728322982788086,-0.04556702822446823,-8.775259017944336
1745735511.1132863,0.08296196162700653,0.03180250898003578,-0.13270680606365204,1.0027873516082764,-0.04549166560173035,-12.163804054260254
1745735511.1482604,0.11695293337106705,0.06599780172109604,-0.13604311645030975,1.0396392345428467,-0.2330983579158783,-10.820979118347168
1745735511.1497617,0.0683603435754776,0.03508267551660538,-0.14007441699504852,0.8736225962638855,-0.5876078605651855,-7.996199607849121
1745735511.1552813,0.1489969789981842,0.06472815573215485,-0.2241595983505249,0.7760658860206604,-0.29236140847206116,-10.131192207336426
1745735511.1615336,0.14914028346538544,0.08104105293750763,-0.22922834753990173,0.9645470380783081,-0.5825358629226685,-10.050724983215332
1745735511.188741,0.10031545162200928,0.07010243088006973,-0.2344827651977539,1.0008790493011475,-0.6193991899490356,-9.43167781829834
1745735511.191149,0.12996476888656616,0.07265471667051315,-0.23437348008155823,0.7244213223457336,-0.41430941224098206,-9.30615520477295
1745735511.1940854,0.09211300313472748,0.08246195316314697,-0.23644161224365234,0.8618019223213196,-0.3201397955417633,-9.85814094543457
1745735511.1981654,0.1355745494365692,0.07553540170192719,-0.2404693365097046,0.8985700607299805,-0.09063442051410675,-10.122517585754395
1745735511.2307081,0.14536401629447937,0.08036801964044571,-0.24572384357452393,0.857438862323761,0.09399296343326569,-9.780749320983887
1745735511.2331412,0.15009930729866028,0.07277117669582367,-0.25388917326927185,0.7237263321876526,0.0821920856833458,-9.519332885742188
1745735511.2348518,0.19366660714149475,0.07973980158567429,-0.25853684544563293,0.71917724609375,-0.03716038912534714,-9.497735977172852
1745735511.236988,0.15439923107624054,0.07067757099866867,-0.2626083493232727,1.0802868604660034,-0.3456515967845917,-9.819465637207031
1745735511.2394989,0.1914142370223999,0.07235043495893478,-0.26637977361679077,1.009202480316162,-0.36124032735824585,-10.111870765686035
1745735511.2761347,0.15224984288215637,0.07011973857879639,-0.27286797761917114,1.0571792125701904,-0.5110890865325928,-9.854192733764648
1745735511.278524,0.16565272212028503,0.06430898606777191,-0.2749650180339813,1.013364315032959,-0.4487338960170746,-9.50505542755127
1745735511.2820318,0.13490058481693268,0.06646725535392761,-0.2792201638221741,1.1321537494659424,-0.4499208927154541,-9.675060272216797
1745735511.283211,0.13677939772605896,0.049479223787784576,-0.2863188087940216,1.0310285091400146,-0.4750968813896179,-10.145291328430176
1745735511.3207712,0.15144596993923187,0.06686275452375412,-0.290290504693985,0.7623550295829773,-0.2540212571620941,-9.781560897827148
1745735511.3327038,0.12003624439239502,0.059817440807819366,-0.29444217681884766,0.8201282620429993,-0.4376732409000397,-9.331474304199219
1745735511.3327737,0.10821499675512314,-0.011369516141712666,-0.37515005469322205,0.9810684323310852,-0.5890291929244995,-9.327604293823242
1745735511.3328123,0.14570170640945435,-0.018480591475963593,-0.3730624318122864,0.923509955406189,-0.34534752368927,-9.815845489501953
1745735511.3595595,0.13289295136928558,-0.012175383977591991,-0.37512272596359253,0.9885240793228149,-0.7002501487731934,-10.194439888000488
1745735511.3617697,0.13147619366645813,-0.022574514150619507,-0.37798136472702026,1.0097341537475586,-0.6190639734268188,-9.723363876342773
1745735511.3647327,0.12721911072731018,-0.019928405061364174,-0.3795165419578552,0.9053214192390442,-0.6590840220451355,-9.376660346984863
1745735511.3658144,0.09734918922185898,-0.03530262038111687,-0.3839115500450134,1.0956941843032837,-0.9016958475112915,-9.781774520874023
1745735511.3674915,0.12223045527935028,-0.029858756810426712,-0.3864386975765228,0.9519492387771606,-0.4639821946620941,-9.977334976196289
1745735511.4054322,0.07362768054008484,-0.03328091278672218,-0.38971227407455444,1.1164443492889404,-0.9119075536727905,-9.870865821838379
1745735511.4081228,0.11124523729085922,-0.04093804210424423,-0.3913267254829407,0.8684527277946472,-0.5044716000556946,-9.496452331542969
1745735511.4097376,0.08082364499568939,-0.040142469108104706,-0.39303427934646606,0.9057828783988953,-0.7528164982795715,-9.67535400390625
1745735511.412003,0.10027886927127838,-0.04748091101646423,-0.3928382098674774,0.9150020480155945,-0.5692272186279297,-9.944612503051758
1745735511.446284,0.10818680375814438,-0.03941652923822403,-0.3944113552570343,0.835797905921936,-0.5802825689315796,-9.83764934539795
1745735511.450845,0.09470171481370926,-0.05648066848516464,-0.39461269974708557,0.9994508624076843,-0.6258747577667236,-9.547805786132812
1745735511.4539802,0.1162290945649147,-0.05159563571214676,-0.3965379297733307,0.7990331649780273,-0.5448492765426636,-9.664093017578125
1745735511.4556313,0.09000632166862488,-0.054815828800201416,-0.39966660737991333,1.0244419574737549,-0.8805329203605652,-9.901369094848633
1745735511.4562042,0.11212027072906494,-0.05909566208720207,-0.40071019530296326,0.9042275547981262,-0.5114452242851257,-9.70124340057373
1745735511.4974003,0.07063958793878555,-0.053685564547777176,-0.40350764989852905,0.9496038556098938,-1.00285005569458,-9.734940528869629
1745735511.49761,0.08822356164455414,-0.06586088985204697,-0.40642446279525757,0.9346640706062317,-0.6157361268997192,-9.636434555053711
1745735511.4976969,0.07465125620365143,-0.05915733426809311,-0.4062812924385071,0.889574408531189,-0.6694218516349792,-9.770320892333984
1745735511.4977517,0.06540210545063019,-0.06884078681468964,-0.4083760380744934,0.9510294198989868,-0.7591394186019897,-9.8504056930542
1745735511.5324328,0.07478346675634384,-0.08638651669025421,-0.41888681054115295,0.7894411087036133,-0.45714807510375977,-9.67006778717041
1745735511.5341349,0.06261824071407318,-0.08057508617639542,-0.41955190896987915,0.7406750917434692,-0.714426577091217,-9.964360237121582
1745735511.5379515,0.07334842532873154,-0.08407456427812576,-0.4218829572200775,0.8329564929008484,-0.528411865234375,-9.696415901184082
1745735511.540826,0.08785732090473175,-0.0788993239402771,-0.4212013781070709,0.6508479714393616,-0.6354483366012573,-9.574902534484863
1745735511.5766082,0.06963177025318146,-0.08573178946971893,-0.421627938747406,0.8394179344177246,-0.8338993787765503,-9.715100288391113
1745735511.579891,0.09446758031845093,-0.08106313645839691,-0.4225863516330719,0.727750301361084,-0.47298464179039,-9.860758781433105
1745735511.5904016,0.06228949502110481,-0.07832284271717072,-0.42471805214881897,0.8367826342582703,-1.069509506225586,-9.873605728149414
1745735511.5904598,0.0924290269613266,-0.08619029819965363,-0.4237481653690338,0.7737935185432434,-0.5521892309188843,-9.515295028686523
1745735511.5922282,0.05586401745676994,-0.08048741519451141,-0.42665714025497437,0.860590934753418,-0.9261396527290344,-9.787527084350586
1745735511.620281,0.07120732963085175,-0.08539333194494247,-0.4269939064979553,0.8375252485275269,-0.7485234141349792,-9.906582832336426
1745735511.6217847,0.06455515325069427,-0.07698877900838852,-0.4303115904331207,0.6696680784225464,-0.7880392074584961,-9.78425407409668
1745735511.6303687,0.05009234696626663,-0.08483436703681946,-0.4265664219856262,0.8772565126419067,-0.9225393533706665,-9.646249771118164
1745735511.6308258,0.07073228061199188,-0.08075647801160812,-0.4288073480129242,0.5933833122253418,-0.6287425756454468,-9.739818572998047
1745735511.6629446,0.046965837478637695,-0.08237598091363907,-0.42671436071395874,0.7710627317428589,-0.9748075604438782,-9.936040878295898
1745735511.6645727,0.06943245232105255,-0.08339615911245346,-0.42879462242126465,0.6765660047531128,-0.5577534437179565,-9.757908821105957
1745735511.6674926,0.048889435827732086,-0.07737003266811371,-0.4297481179237366,0.6976839303970337,-0.9607830047607422,-9.692414283752441
1745735511.6717718,0.05717520788311958,-0.05024706572294235,-0.4365447461605072,0.7064406871795654,-0.7752708196640015,-9.712839126586914
1745735511.6729307,0.046744365245103836,-0.04456472024321556,-0.4339735507965088,0.5495551824569702,-0.776715874671936,-9.817729949951172
1745735511.7097814,0.037452198565006256,-0.04660031199455261,-0.4357510209083557,0.6963403224945068,-1.0034178495407104,-9.807461738586426
1745735511.7123659,0.05924292653799057,-0.04106349125504494,-0.4360007345676422,0.5125011205673218,-0.5621927976608276,-9.593143463134766
1745735511.714236,0.026807907968759537,-0.04057052731513977,-0.4366113543510437,0.78388512134552,-1.1121926307678223,-9.750051498413086
1745735511.7169764,0.05271049588918686,-0.0403500497341156,-0.4351542890071869,0.5658321380615234,-0.6834743022918701,-9.787269592285156
1745735511.763311,0.02728160098195076,-0.03713468834757805,-0.43577688932418823,0.6378553509712219,-1.0881168842315674,-9.953036308288574
1745735511.763362,0.031344689428806305,-0.043069712817668915,-0.4344235956668854,0.6095992922782898,-0.7435223460197449,-9.771081924438477
1745735511.7634134,0.027760615572333336,-0.034663837403059006,-0.4345239996910095,0.5501418709754944,-0.9097093343734741,-9.666238784790039
1745735511.7634737,0.02751654013991356,-0.04135191813111305,-0.43536844849586487,0.7591841220855713,-0.837518572807312,-9.709037780761719
1745735511.79935,0.03550080209970474,-0.032339565455913544,-0.43546062707901,0.5627061128616333,-0.6150985360145569,-9.806585311889648
1745735511.7994545,0.021318893879652023,-0.03150411695241928,-0.4347556531429291,0.7449392080307007,-1.0217533111572266,-9.864008903503418
1745735511.799503,0.05089498311281204,-0.03316698223352432,-0.433267205953598,0.5086590647697449,-0.42882245779037476,-9.555256843566895
1745735511.7995458,0.02354518696665764,-0.0288205798715353,-0.4354109764099121,0.6158455610275269,-1.0816901922225952,-9.71619987487793
1745735511.8029842,0.049826424568891525,-0.03227381035685539,-0.4336674213409424,0.6175020337104797,-0.5744869709014893,-9.813274383544922
1745735511.833575,0.03755888342857361,-0.024623161181807518,-0.43641552329063416,0.5571919083595276,-0.9692342877388,-9.879781723022461
1745735511.8368056,0.03311372175812721,-0.02888406813144684,-0.4325866103172302,0.7158631682395935,-0.8786069750785828,-9.576199531555176
1745735511.839596,0.03805570676922798,-0.022598307579755783,-0.4339974522590637,0.5197043418884277,-0.8508800268173218,-9.662470817565918
1745735511.8412004,0.019295018166303635,-0.024470295757055283,-0.434725821018219,0.7058760523796082,-1.121401071548462,-9.848063468933105
1745735511.877592,0.030568405985832214,-0.019717233255505562,-0.4326879382133484,0.6100775599479675,-0.6209872364997864,-9.765667915344238
1745735511.8825188,0.010480750352144241,-0.009181560948491096,-0.43072906136512756,0.5467915534973145,-0.827801525592804,-9.825189590454102
1745735511.8825526,0.006184645928442478,-0.016252951696515083,-0.4301331639289856,0.7156851291656494,-0.9353381395339966,-9.782876968383789
1745735511.8888314,0.027410665526986122,-0.014170701615512371,-0.4306822717189789,0.4893569052219391,-0.5442471504211426,-9.615354537963867
1745735511.9231439,0.0047776056453585625,-0.01184419821947813,-0.42961129546165466,0.6757093071937561,-1.1123117208480835,-9.756491661071777
1745735511.9265118,0.0354592427611351,-0.013631272129714489,-0.42885622382164,0.5342727899551392,-0.5159913897514343,-9.731306076049805
1745735511.9294164,0.014706877060234547,-0.009256393648684025,-0.4281454086303711,0.6399334669113159,-1.121456265449524,-9.779844284057617
1745735511.933063,0.021578822284936905,-0.011498628184199333,-0.4268210530281067,0.644410252571106,-0.7053989171981812,-9.52757740020752
1745735511.9385223,0.01930692233145237,-0.007279790937900543,-0.4277200698852539,0.6123058795928955,-0.9603919982910156,-9.734576225280762
1745735511.9626966,0.008754566311836243,-0.013379519805312157,-0.4277641177177429,0.7509947419166565,-0.8736318349838257,-9.846150398254395
1745735511.964508,0.017102379351854324,-0.008170313201844692,-0.42662787437438965,0.5501717925071716,-0.7545056343078613,-9.86998176574707
1745735511.9672105,-0.00232355366460979,-0.011775752529501915,-0.4265241026878357,0.6529704332351685,-1.1277377605438232,-9.70536994934082
1745735511.9683344,0.024275321513414383,-0.010580270551145077,-0.4258326590061188,0.5174094438552856,-0.5343986749649048,-9.498441696166992
1745735512.0083349,-0.0034132052678614855,-0.007440988905727863,-0.42388850450515747,0.7370392680168152,-1.016251802444458,-9.80308723449707
1745735512.0104012,0.025845622643828392,-0.01158984750509262,-0.4266853928565979,0.664272665977478,-0.5024790167808533,-9.783350944519043
1745735512.0137315,0.021737832576036453,-0.006099704187363386,-0.4242740571498871,0.5670410394668579,-0.8055183291435242,-9.719847679138184
1745735512.0174456,0.025329455733299255,-0.012829067185521126,-0.42520418763160706,0.707241415977478,-0.8370233774185181,-9.656915664672852
1745735512.0492167,-0.007992129772901535,-0.013344441540539265,-0.4101813733577728,0.7190696001052856,-1.1106317043304443,-9.99372386932373
1745735512.0512094,0.018695879727602005,-0.020475605502724648,-0.4070705473423004,0.628944456577301,-0.6627124547958374,-9.726846694946289
1745735512.053939,0.007839714176952839,-0.017694275826215744,-0.40777578949928284,0.5935796499252319,-0.8384507298469543,-9.595968246459961
1745735512.0561962,0.008097190409898758,-0.023243799805641174,-0.4064956307411194,0.6280799508094788,-0.739364504814148,-9.669912338256836
1745735512.0579722,0.03409760072827339,-0.015025469474494457,-0.4076476991176605,0.5113571882247925,-0.589756429195404,-9.810776710510254
1745735512.0938735,0.00822142232209444,-0.020497864112257957,-0.4070724546909332,0.7676165103912354,-0.9490224719047546,-9.741460800170898
1745735512.0984855,0.036109764128923416,-0.020631873980164528,-0.4044230878353119,0.5356942415237427,-0.662354588508606,-9.595542907714844
1745735512.1024568,0.011169714853167534,-0.020875701680779457,-0.40675169229507446,0.6787182092666626,-1.1364119052886963,-9.851104736328125
1745735512.1066015,0.021869484335184097,-0.02283840999007225,-0.3993733525276184,0.5704274773597717,-0.7438514828681946,-9.870416641235352
1745735512.1379626,0.007700461894273758,-0.016487250104546547,-0.40069350600242615,0.6314123272895813,-1.0867925882339478,-9.716012954711914
1745735512.141168,0.007418513298034668,-0.030596941709518433,-0.4020954966545105,0.7097054719924927,-0.8560478091239929,-9.567571640014648
1745735512.14519,0.01913827285170555,-0.020950810983777046,-0.3969331383705139,0.5692950487136841,-0.7690146565437317,-9.75167179107666
1745735512.1493907,-0.008023573085665703,-0.023725807666778564,-0.40247660875320435,0.7166424989700317,-0.9034630656242371,-9.839198112487793
1745735512.1868615,0.03045519068837166,-0.018865209072828293,-0.39731884002685547,0.4848296046257019,-0.632483959197998,-9.636682510375977
1745735512.1869516,-0.004785505123436451,-0.021195147186517715,-0.3984571397304535,0.6177890300750732,-0.9469326138496399,-9.634788513183594
1745735512.1869993,0.028286894783377647,-0.028045911341905594,-0.39603331685066223,0.5276733636856079,-0.6435953378677368,-9.825113296508789
1745735512.1873467,0.013621488586068153,-0.019912678748369217,-0.3941226005554199,0.6340187788009644,-0.9743026494979858,-9.934663772583008
1745735512.1899402,0.018367361277341843,-0.028691867366433144,-0.3933557868003845,0.6579204201698303,-0.7000745534896851,-9.63162899017334
1745735512.2214477,0.025404805317521095,-0.022555360570549965,-0.39142435789108276,0.5819607973098755,-0.9146924018859863,-9.59707260131836
1745735512.2232373,0.007922055199742317,-0.02519240416586399,-0.38992738723754883,0.6945215463638306,-0.8353264927864075,-9.724530220031738
1745735512.226614,0.03563340753316879,-0.02322433330118656,-0.3900030553340912,0.5649915933609009,-0.6630237102508545,-9.774474143981934
1745735512.2308097,0.0014581072609871626,-0.026989301666617393,-0.380476176738739,0.6596149802207947,-0.9347146153450012,-9.79942798614502
1745735512.2645662,0.02167489007115364,-0.0341319665312767,-0.38402143120765686,0.5670585632324219,-0.6932066082954407,-9.720071792602539
1745735512.2677147,0.017853129655122757,-0.024364303797483444,-0.38274046778678894,0.5837812423706055,-0.8274294137954712,-9.608363151550293
1745735512.271544,0.00119119044393301,-0.03362136706709862,-0.3833618760108948,0.70868319272995,-0.8048737645149231,-9.672731399536133
1745735512.2743402,0.031785205006599426,-0.025112267583608627,-0.38152581453323364,0.5434912443161011,-0.8025182485580444,-9.863396644592285
1745735512.2767835,-0.0021662074141204357,-0.029385024681687355,-0.38145574927330017,0.6494468450546265,-0.8503988981246948,-9.818296432495117
1745735512.3107326,0.03159339725971222,-0.028508523479104042,-0.377505898475647,0.48679423332214355,-0.8107951283454895,-9.753674507141113
1745735512.3143313,0.006336438003927469,-0.030023256316781044,-0.37864387035369873,0.6428720355033875,-0.9309179186820984,-9.709912300109863
1745735512.3188837,0.021178239956498146,-0.03504640981554985,-0.3783887028694153,0.5817971229553223,-0.6356834769248962,-9.702165603637695
1745735512.3223493,0.014522967860102654,-0.02921021543443203,-0.37803730368614197,0.6438596248626709,-0.9768236875534058,-9.802190780639648
1745735512.3504853,0.007174952421337366,-0.03407832607626915,-0.38025373220443726,0.6240056753158569,-0.7429564595222473,-9.697549819946289
1745735512.353969,0.020428547635674477,-0.028978008776903152,-0.3783533275127411,0.5641301870346069,-0.8851710557937622,-9.664591789245605
1745735512.3582933,-0.012667618691921234,-0.031875643879175186,-0.3783538341522217,0.6298785209655762,-0.9118115305900574,-9.83827018737793
1745735512.3617547,0.02534443698823452,-0.029188716784119606,-0.37767529487609863,0.5296221971511841,-0.7947109937667847,-9.806532859802246
1745735512.3644035,-0.009520752355456352,-0.03250507265329361,-0.37848690152168274,0.6839099526405334,-0.8781877756118774,-9.6987943649292
1745735512.3965135,0.010198566131293774,-0.03268636390566826,-0.3698410987854004,0.5848133563995361,-0.9881049394607544,-9.904470443725586
1745735512.3982053,-0.012000803835690022,-0.037304021418094635,-0.3730164170265198,0.623531699180603,-0.7268360257148743,-9.781169891357422
1745735512.400856,0.016903106123209,-0.03433011472225189,-0.37219691276550293,0.4809161126613617,-0.8902801275253296,-9.721458435058594
1745735512.4377384,-0.010015827603638172,-0.03473017364740372,-0.3716065287590027,0.5826022624969482,-0.7620676755905151,-9.568319320678711
1745735512.455447,0.0018300898373126984,-0.03408406674861908,-0.37423819303512573,0.513931930065155,-0.756628155708313,-9.794260025024414
1745735512.4555411,0.004469503182917833,-0.02937362715601921,-0.3709130883216858,0.5702059864997864,-0.8232852816581726,-9.808260917663574
1745735512.4556146,-0.0024830326437950134,-0.03477821871638298,-0.3719749450683594,0.4770874083042145,-0.5813881158828735,-9.633315086364746
1745735512.4556868,0.01809902861714363,-0.028162041679024696,-0.37206754088401794,0.6018804907798767,-0.925074577331543,-9.707316398620605
1745735512.486242,-0.0022189239971339703,-0.03632314130663872,-0.3703833222389221,0.616952121257782,-0.7103003263473511,-9.834611892700195
1745735512.4920971,0.020047353580594063,-0.03166057914495468,-0.3714911937713623,0.5640614032745361,-0.9008327722549438,-9.913961410522461
1745735512.4951406,-0.007903600111603737,-0.03246334195137024,-0.3691806495189667,0.6031285524368286,-0.9289401769638062,-9.667215347290039
1745735512.5005496,0.011830935254693031,-0.02927202545106411,-0.3662951588630676,0.4372738003730774,-0.8198316693305969,-9.545684814453125
1745735512.524003,-0.006698037497699261,-0.030425449833273888,-0.36887115240097046,0.6349248886108398,-0.8495088815689087,-9.637868881225586
1745735512.5292413,-0.007201540283858776,-0.03229105845093727,-0.3704172372817993,0.4611364006996155,-0.6384388208389282,-9.985283851623535
1745735512.534224,0.009507372044026852,-0.027366286143660545,-0.3703029453754425,0.5821107625961304,-0.9307171702384949,-9.879955291748047
1745735512.5367115,-0.011378945782780647,-0.03545896336436272,-0.37091538310050964,0.5157124400138855,-0.609747052192688,-9.549210548400879
1745735512.566532,0.011209435760974884,-0.026529604569077492,-0.368330180644989,0.4682270884513855,-1.0339972972869873,-9.728652954101562
1745735512.5704181,-0.008486807346343994,-0.030351828783750534,-0.3687818944454193,0.5760918855667114,-0.6803106665611267,-9.77286434173584
1745735512.5738811,0.008172464556992054,-0.027915066108107567,-0.3664575219154358,0.50812828540802,-0.8816292881965637,-9.76938247680664
1745735512.5771794,-0.007475037127733231,-0.026280701160430908,-0.3658572733402252,0.6320098638534546,-0.8421733975410461,-9.567947387695312
1745735512.580955,0.0028431154787540436,-0.02528044953942299,-0.3602260947227478,0.5174940228462219,-1.0294350385665894,-9.794652938842773
1745735512.609528,-0.020268205553293228,-0.02708367072045803,-0.3604736328125,0.5303508043289185,-0.7514159679412842,-9.519563674926758
1745735512.614822,-0.0030424739234149456,-0.023691363632678986,-0.358451783657074,0.45869502425193787,-0.9035282135009766,-9.652777671813965
1745735512.616222,-0.019275324419140816,-0.025505732744932175,-0.36162567138671875,0.6805192828178406,-0.7162888646125793,-9.73423957824707
1745735512.6198237,-0.01644383743405342,-0.023383360356092453,-0.36000511050224304,0.46950799226760864,-0.7331340909004211,-9.98039722442627
1745735512.6564233,-0.011739256791770458,-0.023682471364736557,-0.35933127999305725,0.6200712323188782,-0.9447698593139648,-9.753458023071289
1745735512.6605175,-0.01596367172896862,-0.02871008589863777,-0.35969799757003784,0.41347068548202515,-0.5418141484260559,-9.5936861038208
1745735512.6638606,-0.009148739278316498,-0.02080320194363594,-0.3589029312133789,0.48096856474876404,-1.092622995376587,-9.759943008422852
1745735512.6673172,-0.012945612892508507,-0.026203930377960205,-0.35635170340538025,0.5325859189033508,-0.48341530561447144,-9.680105209350586
1745735512.6965003,-0.006147580221295357,-0.022352134808897972,-0.35471558570861816,0.5038536190986633,-0.9435867071151733,-9.812667846679688
1745735512.7139313,-0.015613513998687267,-0.025255098938941956,-0.35570359230041504,0.5626644492149353,-0.6880739331245422,-9.650251388549805
1745735512.7140193,-0.0050848135724663734,-0.023581046611070633,-0.3558901846408844,0.42004045844078064,-0.7358516454696655,-9.814553260803223
1745735512.714065,-0.018096836283802986,-0.02340954914689064,-0.35337144136428833,0.6326643228530884,-0.9489908218383789,-9.829099655151367
1745735512.714106,-0.014470092952251434,-0.02729884348809719,-0.3547515273094177,0.42421621084213257,-0.601577877998352,-9.751354217529297
1745735512.738594,-0.015526359900832176,-0.024036291986703873,-0.35265040397644043,0.5386308431625366,-1.0807539224624634,-9.75722885131836
1745735512.7398713,-0.016392776742577553,-0.02461865171790123,-0.35138171911239624,0.44619622826576233,-0.4536808431148529,-9.504179000854492
1745735512.7404828,-0.014293499290943146,-0.020801300182938576,-0.3418891429901123,0.5275760889053345,-0.6476308703422546,-9.551470756530762
1745735512.7418876,-0.01121657807379961,-0.018573960289359093,-0.3417131006717682,0.3985415995121002,-0.6683220863342285,-9.776256561279297
1745735512.7830276,-0.016455667093396187,-0.02211192436516285,-0.3400574326515198,0.6513046026229858,-0.7543362379074097,-9.907960891723633
1745735512.783845,-0.004617109429091215,-0.017930956557393074,-0.34275972843170166,0.4494458734989166,-0.46274739503860474,-9.743513107299805
1745735512.786312,-0.01261043269187212,-0.01711213029921055,-0.3421197533607483,0.5926138162612915,-0.9761255979537964,-9.621562004089355
1745735512.7876875,-0.007757348008453846,-0.02287479303777218,-0.34388038516044617,0.5300194025039673,-0.4427913725376129,-9.61126708984375
1745735512.7908487,-0.021281955763697624,-0.01543966680765152,-0.3428419232368469,0.529175341129303,-1.0065802335739136,-10.076675415039062
1745735512.8243692,-0.011523117311298847,-0.019671069458127022,-0.3411588668823242,0.5761417150497437,-0.6325668692588806,-9.797033309936523
1745735512.8291786,-0.011477016843855381,-0.017365634441375732,-0.34154725074768066,0.3986998200416565,-0.6916639804840088,-9.587614059448242
1745735512.8320396,-0.018368389457464218,-0.019773822277784348,-0.34008580446243286,0.5898400545120239,-0.8115103840827942,-9.574639320373535
1745735512.8356876,0.0010095493635162711,-0.01819315180182457,-0.3416748642921448,0.42032867670059204,-0.4036348760128021,-9.857141494750977
1745735512.872497,-0.010982051491737366,-0.016120053827762604,-0.3395389914512634,0.6285348534584045,-0.9464727640151978,-9.974067687988281
1745735512.8725626,0.003737525548785925,-0.01590922847390175,-0.34232938289642334,0.3654811680316925,-0.4325428903102875,-9.547986030578613
1745735512.8726237,-0.005308530293405056,-0.016098875552415848,-0.33847862482070923,0.5111937522888184,-0.9872983694076538,-9.666910171508789
1745735512.8753335,-0.005410703364759684,-0.02235051617026329,-0.3390789031982422,0.5546018481254578,-0.5298207998275757,-9.79051399230957
1745735512.8797677,-0.005725782364606857,-0.013039665296673775,-0.3389723300933838,0.4684678018093109,-0.7692347764968872,-9.970977783203125
1745735512.9192884,-0.008409284055233002,-0.020214352756738663,-0.33973821997642517,0.640670657157898,-0.7784693837165833,-9.67959976196289
1745735512.9193692,0.004361783154308796,-0.016434073448181152,-0.33827000856399536,0.4074443280696869,-0.5305026769638062,-9.528383255004883
1745735512.9194248,-0.021892886608839035,-0.017400573939085007,-0.33941835165023804,0.6767791509628296,-0.9894453287124634,-9.865256309509277
1745735512.9211752,0.008370526134967804,-0.016928907483816147,-0.33778613805770874,0.4126083254814148,-0.41796883940696716,-9.889492988586426
1745735512.9544458,0.021438464522361755,-0.015357193537056446,-0.32964766025543213,0.3991803526878357,-0.5217930674552917,-9.916269302368164
1745735512.9565518,-0.0007276664255186915,-0.0217665396630764,-0.3300425708293915,0.5490010976791382,-0.7969655990600586,-9.725976943969727
1745735512.9576707,0.02751842513680458,-0.016534484922885895,-0.3292240500450134,0.3377090096473694,-0.49133992195129395,-9.493213653564453
1745735512.9602103,0.004264566116034985,-0.01838892325758934,-0.3301796317100525,0.5597177743911743,-0.9382488131523132,-9.760278701782227
1745735513.0009258,0.017243847250938416,-0.021758217364549637,-0.32824185490608215,0.5281861424446106,-0.5237654447555542,-9.925162315368652
1745735513.0052602,0.003043229691684246,-0.017759671434760094,-0.3279549479484558,0.5550814867019653,-0.936863899230957,-9.937095642089844
1745735513.010275,0.006172478664666414,-0.02707536891102791,-0.3281393349170685,0.5441612005233765,-0.7309808731079102,-9.647709846496582
1745735513.0151296,0.01497561763972044,-0.01750682294368744,-0.3239143490791321,0.36496660113334656,-0.6529403924942017,-9.581135749816895
1745735513.0391295,-0.012109057046473026,-0.022220006212592125,-0.32639965415000916,0.6331559419631958,-0.8266024589538574,-9.787858963012695
1745735513.043396,0.028870459645986557,-0.01707332767546177,-0.32485073804855347,0.40217113494873047,-0.4610735774040222,-9.820436477661133
1745735513.0469933,-0.007806203328073025,-0.02230769582092762,-0.32715266942977905,0.5495690703392029,-0.7482731342315674,-9.74223518371582
1745735513.0505188,0.031595855951309204,-0.02606942132115364,-0.3270391821861267,0.4253820776939392,-0.4532962739467621,-9.716463088989258
1745735513.053389,0.011041050776839256,-0.020520592108368874,-0.32629358768463135,0.4573398232460022,-0.8683419227600098,-9.890528678894043
1745735513.090149,0.018344711512327194,-0.028127556666731834,-0.32566508650779724,0.5555710792541504,-0.6062621474266052,-9.755834579467773
1745735513.09427,0.020353704690933228,-0.021016867831349373,-0.32486018538475037,0.466801255941391,-0.8624116778373718,-9.75175952911377
1745735513.0967445,0.003446678863838315,-0.02374895289540291,-0.323455810546875,0.5586341023445129,-0.7414391040802002,-9.65621566772461
1745735513.1000404,-0.003137269988656044,-0.023344924673438072,-0.3208065629005432,0.552165687084198,-0.7950986623764038,-9.59940242767334
1745735513.1258745,0.01783130131661892,-0.025688478723168373,-0.31871312856674194,0.36423683166503906,-0.6030365824699402,-9.697502136230469
1745735513.1304238,0.014146251603960991,-0.016182444989681244,-0.3199542462825775,0.5146713256835938,-0.7178163528442383,-9.915544509887695
1745735513.133906,0.012996206991374493,-0.023451555520296097,-0.31770554184913635,0.4243142008781433,-0.5289686918258667,-9.726926803588867
1745735513.1369784,0.02931242622435093,-0.015236496925354004,-0.316739946603775,0.44932350516319275,-0.7209290266036987,-9.595722198486328
1745735513.1382577,0.012781037017703056,-0.02515197917819023,-0.31627824902534485,0.5377498865127563,-0.6520052552223206,-9.80229663848877
1745735513.1731982,0.032769136130809784,-0.021756384521722794,-0.3169040381908417,0.3832782804965973,-0.6930457353591919,-10.045825958251953
1745735513.1732442,0.00493399566039443,-0.020120466127991676,-0.3161991238594055,0.526211142539978,-0.7440471053123474,-9.780552864074707
1745735513.1759303,0.02670469507575035,-0.02310291677713394,-0.3154904246330261,0.33622655272483826,-0.7217410206794739,-9.54981803894043
1745735513.179147,0.014250260777771473,-0.01862257346510887,-0.3163772225379944,0.49809664487838745,-0.7225087881088257,-9.585360527038574
1745735513.2104158,0.007898261770606041,-0.022388402372598648,-0.31658002734184265,0.5259219408035278,-0.6088733077049255,-9.945240020751953
1745735513.2136688,0.02493029087781906,-0.014530887827277184,-0.3160113990306854,0.43939095735549927,-0.7685906291007996,-9.919942855834961
1745735513.2174096,-0.0005019158124923706,-0.022247280925512314,-0.31694096326828003,0.40650492906570435,-0.45319002866744995,-9.535916328430176
1745735513.217464,0.030198950320482254,-0.01776297017931938,-0.316975861787796,0.3965051472187042,-0.8029500842094421,-9.720352172851562
1745735513.221,0.0017218897119164467,-0.02045043371617794,-0.3157261610031128,0.5301172733306885,-0.6975635290145874,-9.913050651550293
1745735513.254372,0.029546398669481277,-0.019305679947137833,-0.31297600269317627,0.39718446135520935,-0.6491695642471313,-9.892298698425293
1745735513.2572231,0.006687587592750788,-0.014575300738215446,-0.3136504590511322,0.48347774147987366,-0.8572613000869751,-9.65075397491455
1745735513.2592714,0.019896209239959717,-0.020858488976955414,-0.3148808479309082,0.35548660159111023,-0.5312269330024719,-9.513062477111816
1745735513.260803,0.022568844258785248,-0.01270315982401371,-0.31411877274513245,0.569598376750946,-0.7351705431938171,-9.80400562286377
1745735513.2984047,0.0034902796614915133,-0.019505206495523453,-0.3149365782737732,0.4697597622871399,-0.5026638507843018,-9.97628116607666
1745735513.301215,0.02214425429701805,-0.015762191265821457,-0.31313589215278625,0.45590877532958984,-0.6049704551696777,-9.955588340759277
1745735513.304074,0.030126744881272316,-0.006268446333706379,-0.3103151321411133,0.5675134658813477,-0.7910804152488708,-9.90414810180664
1745735513.310792,0.020485710352659225,-0.015183111652731895,-0.3113086521625519,0.37588271498680115,-0.46597424149513245,-9.537355422973633
1745735513.3424213,0.03421086445450783,-0.009817684069275856,-0.3107016384601593,0.4650070071220398,-0.9637380838394165,-9.667800903320312
1745735513.3459609,0.015660256147384644,-0.016811758279800415,-0.30743488669395447,0.4550932049751282,-0.5620194673538208,-9.888923645019531
1745735513.3549087,0.03415297716856003,-0.009731054306030273,-0.30886632204055786,0.37972691655158997,-0.8325906991958618,-9.961572647094727
1745735513.3549666,0.014457742683589458,-0.012041041627526283,-0.30902934074401855,0.5067608952522278,-0.664770781993866,-9.561994552612305
1745735513.384747,0.032922305166721344,-0.01296300906687975,-0.30831384658813477,0.33036062121391296,-0.581240177154541,-9.567686080932617
1745735513.3870766,0.03017438016831875,-0.012445518746972084,-0.30919748544692993,0.6058743596076965,-0.7176581621170044,-9.755738258361816
1745735513.3873308,0.0242818184196949,-0.012025242671370506,-0.3113184869289398,0.4229220747947693,-0.5013461709022522,-9.86712646484375
1745735513.3894308,0.0360536053776741,-0.008803014643490314,-0.3082609176635742,0.5122765898704529,-1.0062406063079834,-9.811660766601562
1745735513.3909183,0.026737909764051437,-0.016015728935599327,-0.3095853924751282,0.4007311761379242,-0.4720366597175598,-9.573163032531738
1745735513.427167,0.03259999677538872,-0.011639097705483437,-0.3065353035926819,0.3854908049106598,-0.9731539487838745,-9.830656051635742
1745735513.4311888,0.02972695603966713,-0.011536292731761932,-0.30746060609817505,0.5155020952224731,-0.5992433428764343,-9.78207778930664
1745735513.4325054,0.030015766620635986,-0.011369377374649048,-0.3070881962776184,0.33924761414527893,-0.7582024335861206,-9.720182418823242
1745735513.4364579,0.020778030157089233,-0.012601700611412525,-0.3079696595668793,0.5600490570068359,-0.8086946606636047,-9.57401180267334
1745735513.4715426,0.005205630324780941,-0.01826966181397438,-0.3031972348690033,0.46428972482681274,-1.0069674253463745,-9.830155372619629
1745735513.47517,0.017845170572400093,-0.02130865678191185,-0.30395105481147766,0.40867120027542114,-0.4179837703704834,-9.569551467895508
1745735513.4798512,0.010527582839131355,-0.02186862751841545,-0.3065541088581085,0.4382428526878357,-0.7988131642341614,-9.821565628051758
1745735513.4823463,0.013688619248569012,-0.018892429769039154,-0.3035005033016205,0.5259938836097717,-0.7480359077453613,-9.78411865234375
1745735513.5134296,0.022789811715483665,-0.018043864518404007,-0.3029438257217407,0.31845805048942566,-0.6207598447799683,-9.719415664672852
1745735513.5153127,0.007768344134092331,-0.02024342119693756,-0.3017807900905609,0.5935051441192627,-0.9488250017166138,-9.700292587280273
1745735513.5179079,0.027098968625068665,-0.019605252891778946,-0.301383912563324,0.3097892105579376,-0.4905923902988434,-9.706034660339355
1745735513.5190072,0.013408074155449867,-0.019150510430336,-0.2985692322254181,0.5076434016227722,-0.970488429069519,-9.898390769958496
1745735513.5347748,0.01775323413312435,-0.02348250150680542,-0.3028438687324524,0.4062267243862152,-0.4609847068786621,-9.728906631469727
1745735513.5613766,0.012546931393444538,-0.01688302680850029,-0.3017295002937317,0.3983781039714813,-0.8815318942070007,-9.743037223815918
1745735513.56146,0.017141446471214294,-0.024522563442587852,-0.3023202419281006,0.474651962518692,-0.5863308906555176,-9.588567733764648
1745735513.5615184,0.012410206720232964,-0.01650010421872139,-0.3047509789466858,0.3595042824745178,-0.7078075408935547,-9.76012897491455
1745735513.563338,-0.0007376928115263581,-0.019057348370552063,-0.3035605549812317,0.6359957456588745,-0.9181184768676758,-9.815681457519531
1745735513.6057627,0.022257279604673386,-0.01891469582915306,-0.30193400382995605,0.340157687664032,-0.47213858366012573,-9.765005111694336
1745735513.6058316,-0.00934066902846098,-0.019746223464608192,-0.30157530307769775,0.5379682779312134,-1.0708568096160889,-9.829912185668945
1745735513.6086588,0.024937540292739868,-0.020883992314338684,-0.2988494634628296,0.40394410490989685,-0.413536936044693,-9.70730972290039
1745735513.6127155,0.006821434013545513,-0.019076870754361153,-0.2997843623161316,0.41940754652023315,-0.9053691625595093,-9.849871635437012
1745735513.617845,0.017914285883307457,-0.023042898625135422,-0.2977437973022461,0.46471676230430603,-0.47905540466308594,-9.620744705200195
1745735513.642404,0.01885397359728813,-0.01707877591252327,-0.29904982447624207,0.3401518762111664,-0.7713249921798706,-9.738595962524414
1745735513.6459174,0.012147425673902035,-0.022341322153806686,-0.29905468225479126,0.5005877614021301,-0.7443106770515442,-9.75328254699707
1745735513.6500797,0.02696961723268032,-0.021356409415602684,-0.2963215708732605,0.45406365394592285,-0.527696430683136,-9.603796005249023
1745735513.6538882,0.020964298397302628,-0.012078022584319115,-0.29809147119522095,0.44448813796043396,-0.8217399716377258,-9.68980598449707
1745735513.684053,0.008776752278208733,-0.02245035208761692,-0.2964784801006317,0.6111443638801575,-0.7242006063461304,-9.81282901763916
1745735513.6946957,0.027180075645446777,-0.016513731330633163,-0.2968328297138214,0.3488626778125763,-0.6295716762542725,-9.88218879699707
1745735513.6973996,0.0008472932386212051,-0.02101925015449524,-0.29568415880203247,0.5056884288787842,-0.8355622291564941,-9.765398025512695
1745735513.6974745,0.03046676144003868,-0.01759561523795128,-0.2964981496334076,0.31896960735321045,-0.5189546346664429,-9.69288444519043
1745735513.6975267,0.003393340390175581,-0.020078042522072792,-0.29703858494758606,0.5052438378334045,-0.9201096296310425,-9.805584907531738
1745735513.7294579,0.028499776497483253,-0.02122117206454277,-0.295732319355011,0.4272727370262146,-0.46069401502609253,-9.726486206054688
1745735513.7321064,0.01586092822253704,-0.014246304519474506,-0.29656729102134705,0.4292312562465668,-0.9090021252632141,-9.827799797058105
1745735513.7394388,0.021758124232292175,-0.020344864577054977,-0.29546648263931274,0.4479835629463196,-0.6214177012443542,-9.643522262573242
1745735513.7394967,0.029181446880102158,-0.014967855997383595,-0.2951633930206299,0.3897250294685364,-0.6753357648849487,-9.704641342163086
1745735513.7708597,0.0019130430882796645,-0.018519926816225052,-0.2952533960342407,0.5173751711845398,-0.8226950764656067,-9.939901351928711
1745735513.7761388,0.04265414923429489,-0.01454731822013855,-0.2962561249732971,0.3783884644508362,-0.4858230650424957,-9.769203186035156
1745735513.7802975,0.005690030287951231,-0.01884344220161438,-0.2970091700553894,0.5441769361495972,-0.8150212168693542,-9.686653137207031
1745735513.784883,0.035349875688552856,-0.020257053896784782,-0.2972634434700012,0.3897140622138977,-0.5760983824729919,-9.6705961227417
1745735513.8143232,0.018720470368862152,-0.01288374699652195,-0.29708579182624817,0.4683927595615387,-0.7855040431022644,-9.793285369873047
1745735513.8173435,0.020415956154465675,-0.01940099149942398,-0.29255324602127075,0.45707374811172485,-0.6884115934371948,-9.954731941223145
1745735513.8204858,0.02925083041191101,-0.012859095819294453,-0.2919800877571106,0.3608643710613251,-0.8723099827766418,-9.833170890808105
1745735513.8242996,0.005740056280046701,-0.019297966733574867,-0.290280282497406,0.45619577169418335,-0.6633816957473755,-9.547469139099121
1745735513.8589332,0.03573375195264816,-0.017584240064024925,-0.29395267367362976,0.3479642868041992,-0.7797483205795288,-9.749311447143555
1745735513.8634675,0.018678337335586548,-0.014179423451423645,-0.2931033968925476,0.4963557720184326,-0.657791018486023,-9.774381637573242
1745735513.863604,0.02520810440182686,-0.016383454203605652,-0.2942914366722107,0.4427201747894287,-0.6666483879089355,-9.797948837280273
1745735513.863709,0.031827569007873535,-0.014023609459400177,-0.29332977533340454,0.4672269821166992,-0.8398035168647766,-9.665043830871582
1745735513.8655264,0.017901325598359108,-0.020197445526719093,-0.29394811391830444,0.3946533799171448,-0.5448852777481079,-9.70749282836914
1745735513.9100835,0.03800409659743309,-0.011641890741884708,-0.29483237862586975,0.43455663323402405,-0.9413422346115112,-9.927141189575195
1745735513.910204,0.011722113005816936,-0.018574552610516548,-0.29206833243370056,0.4988228380680084,-0.6750127077102661,-9.773969650268555
1745735513.910298,0.03604418411850929,-0.019023101776838303,-0.2917764484882355,0.41286978125572205,-0.8247905969619751,-9.69630241394043
1745735513.9103475,0.004101025406271219,-0.019967569038271904,-0.2925454080104828,0.5364704132080078,-0.8588238954544067,-9.699562072753906
1745735513.9459507,0.025295892730355263,-0.016634929925203323,-0.29041868448257446,0.3269624412059784,-0.7175180315971375,-9.780768394470215
1745735513.9493642,0.01683160662651062,-0.01454374473541975,-0.29400748014450073,0.5429097414016724,-0.8240379095077515,-9.662040710449219
1745735513.9507039,0.00799617450684309,-0.020698435604572296,-0.29214969277381897,0.387504905462265,-0.6017586588859558,-9.714853286743164
1745735513.9532104,0.027246898040175438,-0.011416719295084476,-0.2917577028274536,0.40392550826072693,-0.8938568830490112,-9.885565757751465
1745735513.9543316,0.00914216972887516,-0.02096843719482422,-0.2922201454639435,0.4363793432712555,-0.5300806164741516,-9.709942817687988
1745735513.9921885,0.02975829318165779,-0.013290787115693092,-0.29364949464797974,0.38028761744499207,-0.8768075704574585,-9.743526458740234
1745735514.0044506,0.014725999906659126,-0.017371701076626778,-0.2937643229961395,0.5496637225151062,-0.5866292715072632,-9.667397499084473
1745735514.0045526,0.00508924201130867,-0.021789025515317917,-0.2918975055217743,0.4796140193939209,-0.7124435305595398,-9.663411140441895
1745735514.0291796,0.02097843959927559,-0.015502601861953735,-0.2932094931602478,0.323212593793869,-0.862500786781311,-9.681236267089844
1745735514.0333233,0.0037207803688943386,-0.016838548704981804,-0.29453232884407043,0.5832027196884155,-0.7749649286270142,-9.647668838500977
1745735514.0376506,0.008790979161858559,-0.016749020665884018,-0.2919429838657379,0.3697386384010315,-0.6437009572982788,-9.78088092803955
1745735514.0421176,0.01022876612842083,-0.012808525934815407,-0.29287904500961304,0.5504658818244934,-0.9107974767684937,-9.844541549682617
1745735514.0421708,0.016004744917154312,-0.02103090099990368,-0.2912307679653168,0.35678452253341675,-0.3968318700790405,-9.776742935180664
1745735514.0742366,0.02019769512116909,-0.016108877956867218,-0.29005226492881775,0.4150840640068054,-0.9154877662658691,-9.855475425720215
1745735514.0765119,0.028297066688537598,-0.016246264800429344,-0.2899557650089264,0.42148441076278687,-0.4370524287223816,-9.657903671264648
1745735514.0816517,0.03398822993040085,-0.017199242487549782,-0.29050326347351074,0.3238427937030792,-0.8184299468994141,-9.75869083404541
1745735514.0861335,0.022216688841581345,-0.01565120741724968,-0.2902408242225647,0.5282607674598694,-0.6920204162597656,-9.641911506652832
1745735514.115772,0.03241293504834175,-0.016598328948020935,-0.2912651598453522,0.36745378375053406,-0.659544050693512,-9.806967735290527
1745735514.1196454,0.021205075085163116,-0.015689024701714516,-0.2945791780948639,0.5599202513694763,-0.9745985865592957,-9.79763412475586
1745735514.1235068,0.015550529584288597,-0.02184676006436348,-0.29209351539611816,0.4497990608215332,-0.600532591342926,-9.793294906616211
1745735514.125776,0.012708324007689953,-0.01646369695663452,-0.2911396622657776,0.4775179326534271,-1.1492908000946045,-9.955198287963867
1745735514.1296263,0.012874839827418327,-0.020951932296156883,-0.2900278866291046,0.4445381164550781,-0.5475145578384399,-9.649826049804688
1745735514.1666274,0.013562044128775597,-0.01793121173977852,-0.2888484597206116,0.36412084102630615,-0.7908063530921936,-9.662142753601074
1745735514.1668181,0.024467673152685165,-0.019608238711953163,-0.28814879059791565,0.5842528343200684,-0.8398348093032837,-9.729767799377441
1745735514.1672485,0.04347815364599228,-0.01585375890135765,-0.28643906116485596,0.2879946827888489,-0.6429084539413452,-9.711660385131836
1745735514.1999652,0.025027140974998474,-0.018142754212021828,-0.28640633821487427,0.4961305558681488,-1.0487865209579468,-9.833581924438477
1745735514.2022471,0.03782861307263374,-0.020178545266389847,-0.2829059362411499,0.3045392632484436,-0.5402528047561646,-9.781225204467773
1745735514.205719,0.01850157417356968,-0.012665743939578533,-0.28833383321762085,0.43290287256240845,-0.9684082269668579,-9.739737510681152
1745735514.2083685,0.026866376399993896,-0.02533690258860588,-0.2877076268196106,0.4683149456977844,-0.6526486277580261,-9.602017402648926
1745735514.2088695,0.022599617019295692,-0.014886116608977318,-0.2895962595939636,0.3699047565460205,-0.8594793081283569,-9.792989730834961
1745735514.2453501,0.00021676784672308713,-0.020862162113189697,-0.28982609510421753,0.5511367917060852,-0.8862355351448059,-9.811674118041992
1745735514.2478497,0.026745831593871117,-0.011587369255721569,-0.2891359329223633,0.32946982979774475,-0.7065359950065613,-9.708333969116211
1745735514.2490478,-0.005144509021192789,-0.02109811082482338,-0.2871403098106384,0.5490318536758423,-0.9517021179199219,-9.692801475524902
1745735514.2523766,0.02916008234024048,-0.018822062760591507,-0.2837260663509369,0.3630305230617523,-0.5320013761520386,-9.847197532653809
1745735514.2891378,0.011005242355167866,-0.015800153836607933,-0.28689447045326233,0.4499911367893219,-0.9398822784423828,-9.934185028076172
1745735514.2911801,0.027749991044402122,-0.021443327888846397,-0.28594526648521423,0.391995370388031,-0.509913444519043,-9.569803237915039
1745735514.293013,0.022122126072645187,-0.01674972102046013,-0.28631719946861267,0.36773285269737244,-0.8694953918457031,-9.603703498840332
1745735514.2944436,0.018412934616208076,-0.022248422726988792,-0.2859465181827545,0.48967233300209045,-0.7127463817596436,-9.752248764038086
1745735514.2955596,0.03177226334810257,-0.015769753605127335,-0.28868967294692993,0.34680527448654175,-0.696397066116333,-9.860613822937012
1745735514.3318276,0.00024380572722293437,-0.01937534101307392,-0.2871178388595581,0.5450043678283691,-0.8923631906509399,-9.750898361206055
1745735514.3346052,0.032300420105457306,-0.02023920789361,-0.28863614797592163,0.37353649735450745,-0.6584511995315552,-9.654101371765137
1745735514.3363662,-0.0011990100611001253,-0.021133098751306534,-0.28900015354156494,0.5119902491569519,-0.9978000521659851,-9.808623313903809
1745735514.3389573,-0.0009268280118703842,-0.01912827417254448,-0.2845313847064972,0.46143755316734314,-0.8599368333816528,-9.825239181518555
1745735514.3742537,0.023138364776968956,-0.026658231392502785,-0.2863696217536926,0.3748601973056793,-0.5145941972732544,-9.74962329864502
1745735514.3766983,0.008247916586697102,-0.0174514502286911,-0.28474047780036926,0.4435248374938965,-0.9735519289970398,-9.748939514160156
1745735514.3781118,0.01571611873805523,-0.023620879277586937,-0.2847520709037781,0.3753620684146881,-0.6749722361564636,-9.652559280395508
1745735514.379923,0.020629428327083588,-0.017364537343382835,-0.285522997379303,0.42543333768844604,-0.8419190645217896,-9.701804161071777
1745735514.4164891,-0.004135412629693747,-0.02293762005865574,-0.28296756744384766,0.5331352949142456,-0.8344886898994446,-9.834671974182129
1745735514.4203498,0.028584450483322144,-0.0167728029191494,-0.2826852798461914,0.38065624237060547,-0.7470520734786987,-9.846319198608398
1745735514.4233525,-0.008496847003698349,-0.025011327117681503,-0.28376609086990356,0.5129956007003784,-0.8594896197319031,-9.740181922912598
1745735514.4273918,0.023062007501721382,-0.020472604781389236,-0.28448429703712463,0.33682548999786377,-0.6753009557723999,-9.693750381469727
1745735514.4584897,0.0018228146946057677,-0.018059317022562027,-0.2852078676223755,0.4542912542819977,-0.7678728103637695,-9.701578140258789
1745735514.4610548,0.008643023669719696,-0.025122100487351418,-0.2845641076564789,0.43405860662460327,-0.6410874128341675,-9.71830940246582
1745735514.4657924,0.016157813370227814,-0.015376219525933266,-0.2851414680480957,0.4148736894130707,-0.8122992515563965,-9.735468864440918
1745735514.467854,0.0002761840878520161,-0.025908896699547768,-0.2867352366447449,0.46199971437454224,-0.7490919232368469,-9.820455551147461
1745735514.4696274,0.026781048625707626,-0.020999658852815628,-0.2824361324310303,0.3478298783302307,-0.7726640105247498,-9.864518165588379
1745735514.5088503,-0.0059101516380906105,-0.023855099454522133,-0.2854015827178955,0.4754372239112854,-0.7801448106765747,-9.707696914672852
1745735514.5117924,0.02942359820008278,-0.022320367395877838,-0.2830977439880371,0.36783546209335327,-0.7466891407966614,-9.687243461608887
1745735514.5162032,0.008328194729983807,-0.020645374432206154,-0.2843000888824463,0.5001365542411804,-0.7591655254364014,-9.69721508026123
1745735514.5194528,0.013265875168144703,-0.02074292302131653,-0.28269609808921814,0.34467247128486633,-0.5828131437301636,-9.829492568969727
1745735514.547711,0.017615387216210365,-0.012820196337997913,-0.2800614535808563,0.522232174873352,-1.076171875,-9.895917892456055
1745735514.5507855,0.004491557367146015,-0.01923144981265068,-0.2799969017505646,0.41313162446022034,-0.6200034618377686,-9.65902042388916
1745735514.5564904,0.02004619874060154,-0.019760217517614365,-0.2796911299228668,0.41011983156204224,-0.9064611196517944,-9.778931617736816
1745735514.5586307,-0.0030493419617414474,-0.022083360701799393,-0.2818266451358795,0.4927450716495514,-0.7178706526756287,-9.805177688598633
1745735514.5895216,0.013886871747672558,-0.01484900712966919,-0.28013938665390015,0.31652528047561646,-0.6956526041030884,-9.760562896728516
1745735514.592067,0.007338856812566519,-0.016762392595410347,-0.28475478291511536,0.508484959602356,-0.7887213826179504,-9.563050270080566
1745735514.5933821,0.007145531475543976,-0.0180431567132473,-0.2796461880207062,0.3145347535610199,-0.5783036947250366,-9.695158004760742
1745735514.5948608,0.011777560226619244,-0.011174713261425495,-0.2832530438899994,0.5138869881629944,-0.961807906627655,-9.895843505859375
1745735514.5964901,0.011978311464190483,-0.017336349934339523,-0.2804402709007263,0.4125754237174988,-0.5105488896369934,-9.782930374145508
1745735514.633733,0.020206663757562637,-0.01473389845341444,-0.2807471454143524,0.42421776056289673,-0.9461744427680969,-9.780817985534668
1745735514.6352293,0.013207254000008106,-0.016861313953995705,-0.27957358956336975,0.46024131774902344,-0.5743136405944824,-9.659805297851562
1745735514.6375568,0.023454593494534492,-0.01367091853171587,-0.28007155656814575,0.31284981966018677,-0.8030662536621094,-9.790079116821289
1745735514.638631,0.012790095992386341,-0.013618120923638344,-0.28029903769493103,0.5315273404121399,-0.7874659299850464,-9.635475158691406
1745735514.6742342,0.01808398775756359,-0.01588425599038601,-0.2810307443141937,0.3290136456489563,-0.6589781045913696,-9.744138717651367
1745735514.6758988,0.011934229172766209,-0.011137368157505989,-0.28227996826171875,0.4867463707923889,-0.970272421836853,-9.796454429626465
1745735514.6797018,0.008760141208767891,-0.015550093725323677,-0.28183481097221375,0.3765895962715149,-0.5298035144805908,-9.6952486038208
1745735514.6798148,0.008670307695865631,-0.011620991863310337,-0.2792770266532898,0.4680630564689636,-1.0305206775665283,-9.879484176635742
1745735514.6809483,0.009759259410202503,-0.016529656946659088,-0.28084617853164673,0.5224353671073914,-0.6243302822113037,-9.752450942993164
1745735514.721386,0.016728226095438004,-0.011220691725611687,-0.2787909507751465,0.3206874430179596,-0.7245825529098511,-9.801558494567871
1745735514.7239761,0.02438572607934475,-0.016066521406173706,-0.2793676555156708,0.38076919317245483,-0.4842611849308014,-9.541501998901367
1745735514.728072,0.015027103945612907,-0.012328296899795532,-0.2812293767929077,0.3700491487979889,-0.8760507702827454,-9.770940780639648
1745735514.7317028,0.014229816384613514,-0.01859590783715248,-0.2801480293273926,0.5360475778579712,-0.6521862149238586,-9.847617149353027
1745735514.7608118,0.020027508959174156,-0.012241661548614502,-0.28256839513778687,0.3897241950035095,-0.8247537612915039,-9.87946891784668
1745735514.763512,0.0012522073229774833,-0.014556379988789558,-0.2807302176952362,0.5269986391067505,-0.9801832437515259,-9.610310554504395
1745735514.7649677,0.018047980964183807,-0.015742313116788864,-0.279446542263031,0.4035092890262604,-0.5542570352554321,-9.574812889099121
1745735514.767095,-0.014148496091365814,-0.014581275172531605,-0.28006523847579956,0.5079933404922485,-1.0148402452468872,-9.877558708190918
1745735514.7694678,0.011514632031321526,-0.014527427963912487,-0.28066784143447876,0.4103860855102539,-0.5147883296012878,-9.863825798034668
1745735514.8036737,0.00300896936096251,-0.012113570235669613,-0.2821197509765625,0.3910278379917145,-0.831141471862793,-9.733983993530273
1745735514.8145204,0.0020478088408708572,-0.02278575673699379,-0.28229835629463196,0.42435604333877563,-0.6632674336433411,-9.62756633758545
1745735514.8147438,0.01939413882791996,-0.011395411565899849,-0.28357043862342834,0.323000431060791,-0.6059523820877075,-9.833050727844238
1745735514.814832,0.0009836999233812094,-0.01761629618704319,-0.28310340642929077,0.5029894113540649,-0.9011012315750122,-9.81430435180664
1745735514.8480523,0.022715819999575615,-0.013071170076727867,-0.2831107974052429,0.39389970898628235,-0.6431413888931274,-9.543855667114258
1745735514.8658757,-0.005390418227761984,-0.017304886132478714,-0.28138309717178345,0.5180136561393738,-1.0507134199142456,-9.751965522766113
1745735514.865961,0.014430860057473183,-0.019347243010997772,-0.28192004561424255,0.3459542691707611,-0.5619162321090698,-9.853903770446777
1745735514.8660398,-0.004768038634210825,-0.012659790925681591,-0.28101733326911926,0.4801700711250305,-0.9270150065422058,-9.891572952270508
1745735514.8911695,0.015451624989509583,-0.012719215825200081,-0.2784540057182312,0.4975350499153137,-0.8976566195487976,-9.641647338867188
1745735514.8916843,-0.00508968997746706,-0.024528099223971367,-0.27882736921310425,0.48618292808532715,-0.600421130657196,-9.76902961730957
1745735514.8936226,0.020944293588399887,-0.011104129254817963,-0.2798750698566437,0.4019168019294739,-0.8900455236434937,-9.889738082885742
1745735514.895473,-0.0026057069189846516,-0.017742905765771866,-0.27829113602638245,0.40943771600723267,-0.6011878252029419,-9.641706466674805
1745735514.9322538,0.025209462270140648,-0.015288345515727997,-0.27886149287223816,0.34935325384140015,-0.776114284992218,-9.632758140563965
1745735514.9354386,0.0018175151199102402,-0.016724348068237305,-0.27559465169906616,0.45180028676986694,-0.7999836206436157,-9.74757194519043
1745735514.937851,0.019870711490511894,-0.01918894797563553,-0.27651238441467285,0.3170629143714905,-0.6347750425338745,-9.93428897857666
1745735514.939253,0.008194146677851677,-0.012825650162994862,-0.27780407667160034,0.4463580250740051,-0.8962023854255676,-9.798501968383789
1745735514.9491713,0.005629760213196278,-0.019771050661802292,-0.2774864137172699,0.3747096061706543,-0.5838009119033813,-9.535310745239258
1745735514.9790037,0.021182172000408173,-0.015395957045257092,-0.2765530049800873,0.4895845353603363,-0.8940473794937134,-9.70057201385498
1745735514.9813137,-0.0030778185464441776,-0.019176306203007698,-0.2792450189590454,0.4924612045288086,-0.6183614134788513,-9.839449882507324
1745735514.9860768,0.018552424386143684,-0.012875979766249657,-0.27804630994796753,0.40773773193359375,-0.8754019737243652,-9.843847274780273
1745735514.9893658,0.006904403679072857,-0.015157051384449005,-0.2764003276824951,0.4599178433418274,-0.703458309173584,-9.554600715637207
1745735515.02232,0.013728955760598183,-0.016777483746409416,-0.2747579514980316,0.28428205847740173,-0.6069984436035156,-9.673879623413086
1745735515.0224085,0.019144851714372635,-0.0129674281924963,-0.2772473394870758,0.4842953085899353,-0.8092435598373413,-9.943894386291504
1745735515.0234325,0.020283658057451248,-0.01904500648379326,-0.2740888297557831,0.32884857058525085,-0.5498298406600952,-9.867452621459961
1745735515.02689,0.026112670078873634,-0.012350866571068764,-0.2773871421813965,0.4539457857608795,-0.9063014984130859,-9.571916580200195
1745735515.0284212,0.011362862773239613,-0.02025349996984005,-0.2758389115333557,0.45350590348243713,-0.651921272277832,-9.581433296203613
1745735515.061833,0.02902945876121521,-0.011771210469305515,-0.273542582988739,0.33707064390182495,-0.9364731907844543,-9.939821243286133
1745735515.0657365,-2.2277235984802246e-05,-0.018548984080553055,-0.2744823694229126,0.4455324113368988,-0.547441840171814,-9.602510452270508
1745735515.0679514,0.005026155151426792,-0.016867483034729958,-0.27570098638534546,0.36732953786849976,-0.781098484992981,-9.82651138305664
1745735515.1157272,0.002922201994806528,-0.01986778900027275,-0.27410200238227844,0.5313662886619568,-0.7158777713775635,-9.937405586242676
1745735515.115814,0.0157502181828022,-0.016369333490729332,-0.2734149992465973,0.2616746127605438,-0.5804768800735474,-9.82763385772705
1745735515.1158679,0.011069798842072487,-0.018082844093441963,-0.2707456052303314,0.48345112800598145,-0.8655346035957336,-9.575844764709473
1745735515.1165254,0.015080737881362438,-0.020344149321317673,-0.2741036117076874,0.364189088344574,-0.5250166654586792,-9.581608772277832
1745735515.1209338,0.0154832499101758,-0.014350702986121178,-0.27232396602630615,0.4430759847164154,-0.983454704284668,-9.880926132202148
1745735515.149862,0.010675271973013878,-0.017905328422784805,-0.2735888659954071,0.5136368274688721,-0.512404203414917,-9.735297203063965
1745735515.1532042,0.007556314114481211,-0.012005435302853584,-0.2738369107246399,0.38895586133003235,-0.9191938638687134,-9.80202579498291
1745735515.1565747,0.002626442816108465,-0.02003910019993782,-0.2723381519317627,0.5205128788948059,-0.82715904712677,-9.732358932495117
1745735515.1589673,0.010495461523532867,-0.018350068479776382,-0.2751850187778473,0.31550031900405884,-0.6631682515144348,-9.799036979675293
1745735515.1918514,-0.0036825346760451794,-0.015038440935313702,-0.2705533504486084,0.48334217071533203,-1.0013617277145386,-9.778569221496582
1745735515.1939676,0.014636141248047352,-0.015878640115261078,-0.2736230492591858,0.32064157724380493,-0.4188869595527649,-9.597003936767578
1745735515.1952322,0.0020508798770606518,-0.015442892909049988,-0.2716892957687378,0.4721624255180359,-0.9805219769477844,-9.719120979309082
1745735515.196615,0.00844368152320385,-0.018637897446751595,-0.2714082598686218,0.41811227798461914,-0.5012595057487488,-9.752280235290527
1745735515.1984036,0.013887919485569,-0.014434310607612133,-0.2709222435951233,0.39546599984169006,-0.9474916458129883,-9.96760082244873
1745735515.2366154,0.001828107750043273,-0.028555098921060562,-0.23622164130210876,0.34117525815963745,-1.030592441558838,-9.469038009643555
1745735515.2440443,-0.031692374497652054,-0.03474583104252815,-0.23535719513893127,0.4559634327888489,-0.7266145944595337,-9.812045097351074
1745735515.2465582,-0.006290840916335583,-0.031181346625089645,-0.2357342541217804,0.29065948724746704,-0.7606514692306519,-10.144549369812012
1745735515.2784991,-0.021697359159588814,-0.028498074039816856,-0.23455710709095,0.3396695554256439,-0.6170316934585571,-9.699647903442383
1745735515.2786033,-0.017613541334867477,-0.03379179909825325,-0.2357248067855835,0.19617526233196259,-0.5711865425109863,-9.515837669372559
1745735515.2810843,-0.011506462469696999,-0.033381614834070206,-0.23433566093444824,0.3397079408168793,-0.8776766657829285,-9.789573669433594
1745735515.281879,-0.018005145713686943,-0.03449096903204918,-0.2332375943660736,0.11186376959085464,-0.36641359329223633,-9.908751487731934
1745735515.2831235,-0.0021395504008978605,-0.023921135812997818,-0.2301933318376541,0.24776653945446014,-0.9827671051025391,-9.685643196105957
1745735515.3251014,-0.012424726970493793,-0.03243396803736687,-0.2288598269224167,0.31493106484413147,-0.4476437568664551,-9.349424362182617
1745735515.3276112,0.0028024546336382627,-0.03445727750658989,-0.2282795011997223,0.3708888590335846,-0.7285119891166687,-9.908743858337402
1745735515.331291,-0.009590080939233303,-0.03185863047838211,-0.22895368933677673,0.44814711809158325,-0.6428361535072327,-10.188560485839844
1745735515.3349018,0.007055814377963543,-0.0277582798153162,-0.22741302847862244,0.13869613409042358,-0.6838985681533813,-9.797979354858398
1745735515.3646019,-0.017951522022485733,-0.02921445667743683,-0.22730574011802673,0.3210461139678955,-0.9880069494247437,-9.326144218444824
1745735515.3764825,-0.019602147862315178,-0.03649221360683441,-0.2236461639404297,0.21846242249011993,-0.5953983068466187,-9.649398803710938
1745735515.380554,-0.01648963987827301,-0.028832565993070602,-0.22612705826759338,0.3401351571083069,-0.9083741903305054,-10.152005195617676
1745735515.3806221,-0.035078760236501694,-0.03193100914359093,-0.22592410445213318,0.2706463038921356,-0.48507803678512573,-9.799928665161133
1745735515.380687,-0.008652102202177048,-0.028625572100281715,-0.22384223341941833,0.2810536324977875,-0.8868604898452759,-9.4829740524292
1745735515.4080005,-0.037890903651714325,-0.03806411474943161,-0.22376294434070587,0.43682828545570374,-0.5521870851516724,-9.696755409240723
1745735515.4121494,-0.013750727288424969,-0.02871260978281498,-0.223331019282341,0.21374797821044922,-0.7874844670295715,-10.223134994506836
1745735515.4167008,0.008302992209792137,-0.02204926311969757,-0.22219052910804749,0.20917706191539764,-0.6404646635055542,-9.562517166137695
1745735515.4207351,-0.03899148106575012,-0.02807800844311714,-0.21759501099586487,0.43614158034324646,-0.7328740358352661,-9.543904304504395
1745735515.4533427,-0.006521617062389851,-0.02503911219537258,-0.22045567631721497,0.31930381059646606,-0.674723744392395,-10.050641059875488
1745735515.4553592,-0.0350782684981823,-0.022553782910108566,-0.2187037467956543,0.4168229103088379,-0.829677402973175,-10.020511627197266
1745735515.456525,-0.017682740464806557,-0.024346139281988144,-0.2178218811750412,0.2769198417663574,-0.449751079082489,-9.551162719726562
1745735515.4604244,-0.025370215997099876,-0.018338853493332863,-0.21732811629772186,0.34148257970809937,-0.7355127930641174,-9.578567504882812
1745735515.4937477,-0.02897488698363304,-0.028210390359163284,-0.2191811054944992,0.31780606508255005,-0.541130542755127,-9.942278861999512
1745735515.4981027,-0.0070126717910170555,-0.017539191991090775,-0.2188905030488968,0.21039780974388123,-0.5220725536346436,-10.016733169555664
1745735515.5018663,-0.03378294035792351,-0.02347934991121292,-0.2197730541229248,0.2788064479827881,-0.6590843796730042,-9.658146858215332
1745735515.5046484,0.010821019299328327,-0.018707457929849625,-0.219469353556633,0.18950538337230682,-0.3673707842826843,-9.39438247680664
1745735515.5376434,-0.037571050226688385,-0.021401192992925644,-0.22066442668437958,0.4700345993041992,-0.7867467403411865,-9.918124198913574
1745735515.5395594,0.012415293604135513,-0.022043803706765175,-0.220197394490242,0.37350526452064514,-0.5918012857437134,-10.198909759521484
1745735515.5433881,-0.015928752720355988,-0.016925031319260597,-0.21772441267967224,0.34487032890319824,-0.6921272873878479,-9.679521560668945
1745735515.5514104,-0.014914172701537609,-0.021811354905366898,-0.21490545570850372,0.28286394476890564,-0.743206799030304,-9.411252975463867
1745735515.5797,-0.011776767671108246,-0.014849705621600151,-0.21404139697551727,0.23093914985656738,-0.6726092100143433,-9.729044914245605
1745735515.5831275,-0.027252350002527237,-0.021364476531744003,-0.2159363031387329,0.42685335874557495,-0.5910739302635193,-10.078153610229492
1745735515.588587,-0.04892662167549133,-0.01581122726202011,-0.19544783234596252,0.38781148195266724,-0.815464198589325,-9.859309196472168
1745735515.5916073,-0.021495318040251732,-0.018300795927643776,-0.191732719540596,0.11074888706207275,-0.2871670126914978,-10.005753517150879
1745735515.6283727,-0.04200123995542526,-0.024265209212899208,-0.1895032823085785,0.2455805242061615,-0.8887160420417786,-9.940629005432129
1745735515.6306255,-0.019328584894537926,-0.022191058844327927,-0.18292200565338135,-0.02444760873913765,-0.32384562492370605,-9.536847114562988
1745735515.6332374,-0.04442472383379936,-0.020671118050813675,-0.17546196281909943,0.0995437502861023,-0.9871123433113098,-9.684972763061523
1745735515.6360133,-0.006689088884741068,-0.026166606694459915,-0.17057980597019196,0.15306074917316437,-0.19861045479774475,-9.753447532653809
1745735515.6384907,-0.02793988212943077,-0.022271668538451195,-0.17217977344989777,-0.08984429389238358,-0.3901042342185974,-10.005953788757324
1745735515.6664639,0.007507237605750561,-0.025428693741559982,-0.16977505385875702,0.14363864064216614,-0.44586318731307983,-9.617231369018555
1745735515.66885,-0.0075890980660915375,-0.027881572023034096,-0.17147798836231232,0.008161814883351326,-0.2111687958240509,-9.512346267700195
1745735515.6751432,-0.021504614502191544,-0.03234299272298813,-0.17194326221942902,0.21765251457691193,-1.1788867712020874,-10.128918647766113
1745735515.677166,-0.010132096707820892,-0.027584630995988846,-0.1674685776233673,0.04623677581548691,-0.374180406332016,-9.85400676727295
1745735515.7110465,-0.05134057253599167,-0.022348787635564804,-0.16503357887268066,0.21254801750183105,-1.3127973079681396,-9.6294584274292
1745735515.7132459,-0.03870871663093567,-0.03401980549097061,-0.15590624511241913,0.20183292031288147,-0.4577624797821045,-9.362424850463867
1745735515.7174582,-0.06644722819328308,-0.02915269508957863,-0.15778784453868866,0.18877729773521423,-0.8329282999038696,-10.04446792602539
1745735515.7215488,-0.050032686442136765,-0.029029469937086105,-0.1531185358762741,0.16124919056892395,-0.37492847442626953,-10.089628219604492
1745735515.7514594,-0.04840225726366043,-0.026199350133538246,-0.15565207600593567,-0.06783696264028549,-0.34778574109077454,-9.603874206542969
1745735515.7550836,-0.04010913521051407,-0.030843373388051987,-0.15530237555503845,0.1622285395860672,-0.5322791934013367,-9.371942520141602
1745735515.7574506,-0.03817871958017349,-0.035791076719760895,-0.15301528573036194,-0.058873794972896576,-0.17110484838485718,-9.868215560913086
1745735515.7629094,-0.030828535556793213,-0.026642242446541786,-0.1516067385673523,0.07473017275333405,-0.772058367729187,-10.155985832214355
1745735515.7669153,-0.03208333998918533,-0.025430474430322647,-0.14685377478599548,0.11373581737279892,-0.25248411297798157,-9.398333549499512
1745735515.7955532,-0.059640347957611084,-0.03293532878160477,-0.11558771133422852,0.41467803716659546,-0.7210046052932739,-9.180647850036621
1745735515.7991345,-0.03679577633738518,-0.022761326283216476,-0.11029446125030518,0.3276883661746979,-0.42289677262306213,-10.327744483947754
1745735515.7992184,-0.05608664080500603,-0.012821262702345848,-0.11265945434570312,0.26820579171180725,-0.45646876096725464,-10.469819068908691
1745735515.8030398,-0.05729188770055771,-0.02287980355322361,-0.11714515835046768,0.3817140758037567,-0.32179707288742065,-9.241476058959961
1745735515.8350124,-0.04597492888569832,-0.024205874651670456,-0.11581281572580338,0.33705803751945496,-0.28491073846817017,-9.229470252990723
1745735515.8367074,-0.04825977236032486,-0.01903270184993744,-0.11933183670043945,0.23559899628162384,-0.28020694851875305,-10.376594543457031
1745735515.8378832,-0.016023710370063782,-0.01212758757174015,-0.12247081845998764,0.31774458289146423,-0.21282558143138885,-10.011677742004395
1745735515.8393152,-0.027894074097275734,-0.00955947581678629,-0.119467593729496,0.48229679465293884,-0.554487407207489,-9.328432083129883
1745735515.8458805,0.009554533287882805,-0.01811337098479271,-0.11675107479095459,0.12584497034549713,-0.16728903353214264,-9.583894729614258
1745735515.8830602,-0.008781890384852886,-0.005891129374504089,-0.11662007868289948,0.1928919106721878,-0.8106454014778137,-10.180076599121094
1745735515.8862288,0.01574026793241501,-0.0035190205089747906,-0.12110531330108643,0.3183591663837433,-0.27152490615844727,-9.75635051727295
1745735515.89133,-0.018316570669412613,0.0006299421074800193,-0.1198980063199997,0.3087497651576996,-0.8370153307914734,-9.507280349731445
1745735515.891434,-0.016965996474027634,-0.015846088528633118,-0.12474684417247772,0.36225372552871704,-0.3720038831233978,-9.759393692016602
1745735515.9242666,-0.04240589961409569,-0.00042052692151628435,-0.12939409911632538,0.17246918380260468,-0.7861944437026978,-10.175068855285645
1745735515.9276557,-0.0383712537586689,0.0045266905799508095,-0.1303292214870453,0.40197664499282837,-0.743735671043396,-9.669008255004883
1745735515.930943,-0.065704844892025,-0.0042647505179047585,-0.12938189506530762,0.31730917096138,-0.3413081467151642,-9.49146842956543
1745735515.9443517,0.011698051355779171,0.01239265687763691,-0.1471410095691681,0.24761962890625,-0.36450380086898804,-9.539850234985352
1745735515.9687848,-0.009890898130834103,0.015375765971839428,-0.1498626470565796,0.3298116624355316,-0.43151527643203735,-9.681196212768555
1745735515.9691653,0.0005347385886125267,0.017176944762468338,-0.1489730030298233,0.22236008942127228,-0.20161977410316467,-9.837223052978516
1745735515.9726858,0.004177519585937262,0.017342178151011467,-0.15209846198558807,0.3155606687068939,-0.6017333269119263,-9.837305068969727
1745735515.9741356,0.006202933844178915,0.016473669558763504,-0.1510895937681198,0.3360980451107025,-0.34575900435447693,-9.62182331085205
1745735516.011999,0.01816016063094139,0.022496838122606277,-0.14917626976966858,0.19355085492134094,-0.5318669080734253,-9.778336524963379
1745735516.015512,0.007432754151523113,0.014450234360992908,-0.148699089884758,0.3804694712162018,-0.46831780672073364,-9.763941764831543
1745735516.0179098,0.023141834884881973,0.026125013828277588,-0.14927589893341064,0.3369681239128113,-0.36000359058380127,-9.697717666625977
1745735516.02087,0.0007931920699775219,0.019300566986203194,-0.15091128647327423,0.4818447232246399,-0.54855877161026,-9.759817123413086
1745735516.0232723,0.01677371934056282,0.012728119269013405,-0.1535591185092926,0.29701489210128784,-0.2637304365634918,-9.848321914672852
1745735516.0517187,-0.00143169064540416,0.024347838014364243,-0.15509893000125885,0.3916490375995636,-0.639377772808075,-9.764704704284668
1745735516.055793,-0.000323885033139959,0.016926445066928864,-0.15652219951152802,0.34527069330215454,-0.32760089635849,-9.600377082824707
1745735516.0616233,-0.0013177789514884353,0.01757844351232052,-0.15569862723350525,0.36415135860443115,-0.6163216829299927,-9.812553405761719
1745735516.066303,-0.012499378062784672,0.01385577954351902,-0.1567859649658203,0.46882620453834534,-0.37742123007774353,-9.790700912475586
1745735516.096042,0.011848061345517635,0.023484662175178528,-0.15496830642223358,0.2552133798599243,-0.3942430019378662,-9.810050964355469
1745735516.1055605,0.0002933753712568432,0.016574526205658913,-0.1557445079088211,0.35716313123703003,-0.42428427934646606,-9.615531921386719
1745735516.1056924,0.016194824129343033,0.011991345323622227,-0.15427511930465698,0.31820783019065857,-0.28079450130462646,-9.704073905944824
1745735516.105754,0.01892356015741825,0.024258721619844437,-0.15568743646144867,0.41299429535865784,-0.5549301505088806,-9.953112602233887
1745735516.1057987,0.016995493322610855,0.013277237303555012,-0.15652431547641754,0.19045917689800262,-0.27060219645500183,-9.75393009185791
1745735516.1412964,0.0011613392271101475,0.014007930643856525,-0.1613025963306427,0.5445362329483032,-0.6976204514503479,-9.849817276000977
1745735516.1447244,-0.006992334965616465,0.010164834558963776,-0.16230729222297668,0.3782528340816498,-0.3795255720615387,-9.878252029418945
1745735516.1465483,-0.004731460474431515,0.008612951263785362,-0.16292695701122284,0.3577372431755066,-0.5634740591049194,-9.719037055969238
1745735516.1477222,-0.014607340097427368,0.005797820631414652,-0.16254615783691406,0.38086655735969543,-0.45193323493003845,-9.613740921020508
1745735516.1835198,0.0004381755425129086,0.011257441714406013,-0.16283348202705383,0.2149670422077179,-0.3678484857082367,-9.742582321166992
1745735516.187475,-0.018417954444885254,0.008012112230062485,-0.16415414214134216,0.4221932291984558,-0.6036967635154724,-9.825663566589355
1745735516.1915464,0.006267116870731115,0.009382395073771477,-0.16458366811275482,0.2686348855495453,-0.2739662230014801,-9.691102981567383
1745735516.1948934,-0.009224908426404,0.008919711224734783,-0.16390693187713623,0.43570631742477417,-0.6343116164207458,-9.64118480682373
1745735516.2266264,-0.004291705787181854,0.005769791081547737,-0.16206665337085724,0.3852871060371399,-0.24497225880622864,-9.76305103302002
1745735516.2301378,0.003085234435275197,0.016223708167672157,-0.16168645024299622,0.4343263506889343,-0.6236713528633118,-9.93989372253418
1745735516.2335382,-0.010456445626914501,0.00014913096674717963,-0.16463077068328857,0.4077484607696533,-0.2703835964202881,-9.707548141479492
1745735516.236774,0.008097936399281025,0.011880377307534218,-0.16351719200611115,0.3516731858253479,-0.5244889259338379,-9.68400764465332
1745735516.2695804,-0.0105204489082098,0.0069833071902394295,-0.16161812841892242,0.2541915476322174,-0.4204224646091461,-9.723604202270508
1745735516.2713368,-0.00054252112749964,0.006558420602232218,-0.15775741636753082,0.06522582471370697,-0.5154333114624023,-9.774404525756836
1745735516.2722156,-0.025374168530106544,-0.0012640964705497026,-0.15209098160266876,0.4932025372982025,-0.904346764087677,-9.626023292541504
1745735516.274913,-0.013881293125450611,0.008339600637555122,-0.14622774720191956,-0.08740665763616562,-0.30675095319747925,-10.064069747924805
1745735516.27937,-0.03179102763533592,0.0011529516195878386,-0.14668391644954681,0.13488039374351501,-0.5322874784469604,-9.726829528808594
1745735516.313308,-0.027684286236763,-0.038553155958652496,-0.07676339894533157,0.32291531562805176,-0.31495606899261475,-9.672772407531738
1745735516.3189414,-0.0415947400033474,-0.018428456038236618,-0.07229826599359512,0.3506776690483093,-0.5746930837631226,-10.449308395385742
1745735516.3223073,-0.05567110702395439,-0.025026774033904076,-0.07199932634830475,0.2226243019104004,-0.4396212100982666,-9.9478120803833
1745735516.3259974,-0.046617697924375534,-0.02737438678741455,-0.0694572776556015,0.2145545929670334,-0.5768104195594788,-9.147964477539062
1745735516.3525035,-0.08340075612068176,-0.027976911514997482,-0.06693293154239655,0.2234352082014084,-0.4073552191257477,-9.621432304382324
1745735516.3554935,-0.06367509812116623,-0.030299395322799683,-0.06931094825267792,0.21074318885803223,-0.30454021692276,-10.356101036071777
1745735516.3591652,-0.08536072075366974,-0.01953214965760708,-0.07116984575986862,0.5662254691123962,-0.4043167233467102,-9.922319412231445
1745735516.3624709,-0.06543583422899246,-0.035691097378730774,-0.06950465589761734,0.3450521230697632,-0.0132711511105299,-9.41954231262207
1745735516.3705766,-0.061783283948898315,-0.02004896104335785,-0.07769253849983215,0.13892681896686554,-0.18187785148620605,-9.809332847595215
1745735516.39943,-0.05464145541191101,-0.03238517418503761,-0.07929614931344986,0.5344405174255371,0.008370891213417053,-9.670969009399414
1745735516.4022677,-0.017715934664011,-0.015418482013046741,-0.08100463449954987,0.4700145721435547,-0.4431835114955902,-9.996005058288574
1745735516.4027,-0.033742379397153854,-0.027477499097585678,-0.08121390640735626,0.18642346560955048,-0.04083546996116638,-9.956360816955566
1745735516.4041653,-0.012905756011605263,-0.019761022180318832,-0.08216661959886551,0.1796501725912094,-0.6406225562095642,-9.539185523986816
1745735516.441732,-0.02580069564282894,-0.007954166270792484,-0.0834583044052124,0.3048775792121887,-0.3072657287120819,-9.389863967895508
1745735516.4466221,-0.04438050836324692,-0.02765018679201603,-0.08908762782812119,0.39767131209373474,-0.6089668869972229,-10.125777244567871
1745735516.4496279,-0.030632387846708298,-0.016586968675255775,-0.09379838407039642,0.5290936231613159,-0.35228919982910156,-10.211321830749512
1745735516.4542975,-0.07699994742870331,-0.016468709334731102,-0.1002155989408493,0.18134190142154694,-0.5142687559127808,-9.775309562683105
1745735516.4609275,-0.06199607253074646,-0.018323440104722977,-0.09905222803354263,0.3822450637817383,-0.7840675115585327,-9.265138626098633
1745735516.488342,-0.10706429183483124,-0.021947983652353287,-0.09869124740362167,0.5144349336624146,-0.25833067297935486,-9.76135540008545
1745735516.4908905,-0.021046120673418045,-0.002218026202172041,-0.11836431175470352,0.1567433476448059,-0.21056599915027618,-9.013564109802246
1745735516.4931738,-0.03510819375514984,-0.016090642660856247,-0.11640624701976776,0.29752570390701294,-0.11712594330310822,-9.683343887329102
1745735516.494293,-0.004885087255388498,-0.004144041799008846,-0.11599615961313248,0.28043344616889954,-0.12656953930854797,-10.574850082397461
1745735516.5274498,-0.011640697717666626,-0.0009462822345085442,-0.12026733160018921,0.4619360864162445,-0.25878626108169556,-9.96235466003418
1745735516.5362694,0.0026179992128163576,-0.010348441079258919,-0.11719129234552383,0.19457003474235535,-0.11119683086872101,-9.213677406311035
1745735516.536312,-0.012153197079896927,-0.014511669054627419,-0.12020774185657501,0.44824475049972534,-0.4322507977485657,-9.733612060546875
1745735516.5395036,-0.0030590177047997713,-0.008526099845767021,-0.11958324909210205,0.301729679107666,0.0002902880369219929,-10.353912353515625
1745735516.5731332,-0.007090813014656305,-0.0018362614791840315,-0.12248273193836212,0.38414615392684937,-0.4384794235229492,-9.954477310180664
1745735516.5738997,-0.014063892886042595,-0.015693575143814087,-0.12440824508666992,0.33828112483024597,-0.08317795395851135,-9.198790550231934
1745735516.5770512,0.002818051492795348,-0.010336589999496937,-0.12748274207115173,0.17549224197864532,-0.3027607500553131,-9.770184516906738
1745735516.5783374,-0.012632379308342934,-0.009200076572597027,-0.12784193456172943,0.35905659198760986,-0.16104641556739807,-10.191781997680664
1745735516.613386,0.010139507241547108,0.0004812189727090299,-0.12570412456989288,0.19607073068618774,-0.31682053208351135,-9.852274894714355
1745735516.6182616,-0.001741433865390718,-0.006578853819519281,-0.12550561130046844,0.336031973361969,-0.35975968837738037,-9.306042671203613
1745735516.619689,0.0045663220807909966,-0.008046941831707954,-0.12408965826034546,0.17844034731388092,-0.19906561076641083,-9.709637641906738
1745735516.6219773,0.009152373299002647,0.0021625314839184284,-0.12323558330535889,0.27425888180732727,-0.4412112236022949,-10.153593063354492
1745735516.6244912,0.005775037221610546,-0.002176626119762659,-0.12676508724689484,0.33032718300819397,-0.022491347044706345,-9.723727226257324
1745735516.6580863,0.011572686955332756,0.0019339494174346328,-0.1251763254404068,0.2724241614341736,-0.48860353231430054,-9.519070625305176
1745735516.6627793,-0.016805093735456467,-0.027867499738931656,-0.09012077748775482,0.11492930352687836,-0.07894273102283478,-9.264130592346191
1745735516.6654272,-0.011495711281895638,-0.022615870460867882,-0.08824414014816284,0.14677324891090393,-0.32741767168045044,-9.866009712219238
1745735516.666816,-0.02699936553835869,-0.024263733997941017,-0.08408922702074051,0.20861110091209412,-0.29566359519958496,-10.237020492553711
1745735516.6992414,-0.005762028507888317,-0.017335793003439903,-0.08270873874425888,0.14392083883285522,-0.2830345630645752,-9.702919006347656
1745735516.703024,-0.038514941930770874,-0.02416246011853218,-0.08097021281719208,0.3114246726036072,-0.3282817006111145,-9.382864952087402
1745735516.709252,-0.011035194620490074,-0.032154180109500885,-0.07948312163352966,0.19181714951992035,-0.0750230923295021,-9.890996932983398
1745735516.712984,-0.02800200879573822,-0.026858413591980934,-0.07876540720462799,0.3066251575946808,-0.32193130254745483,-10.289283752441406
1745735516.7181783,-0.0031806204933673143,-0.02747446671128273,-0.08192073553800583,0.19131986796855927,0.10562445223331451,-9.773714065551758
1745735516.7467847,-0.0163387693464756,-0.03587522357702255,-0.085696741938591,-0.20681539177894592,-0.20990078151226044,-9.57948112487793
1745735516.7489536,-0.0331931971013546,-0.03471389785408974,-0.09244631230831146,-0.15631341934204102,-0.19686807692050934,-9.510725021362305
1745735516.751273,-0.004240731243044138,-0.021493911743164062,-0.09149182587862015,-0.15124383568763733,-0.4303787350654602,-9.792146682739258
1745735516.7542121,-0.05530623719096184,-0.017533741891384125,-0.08582983911037445,0.05453643202781677,-0.7214377522468567,-9.812685012817383
1745735516.785109,-0.02753347158432007,-0.022758666425943375,-0.07263348251581192,0.46426981687545776,-0.7560743093490601,-9.438824653625488
1745735516.78693,-0.06362076103687286,-0.010287942364811897,-0.06392242014408112,0.5806320905685425,-0.6444380283355713,-9.858149528503418
1745735516.789101,-0.06215130165219307,-0.01677088998258114,-0.0603296272456646,0.3766438364982605,-0.2144879847764969,-10.090187072753906
1745735516.790894,-0.06908063590526581,-0.011385555379092693,-0.059683658182621,0.7814325094223022,-0.20315714180469513,-9.6559419631958
1745735516.8001063,-0.06126483157277107,-0.02837149240076542,-0.061659835278987885,0.3983876705169678,0.35930135846138,-9.942286491394043
1745735516.8292978,-0.06184884160757065,-0.019900405779480934,-0.06752115488052368,0.017258597537875175,0.17366674542427063,-10.174493789672852
1745735516.8324475,-0.054908715188503265,-0.01168372668325901,-0.06518447399139404,0.17297515273094177,0.10802634060382843,-9.332368850708008
1745735516.8360167,-0.03847740218043327,0.014608858153223991,-0.024881361052393913,0.08847032487392426,0.26814234256744385,-10.526334762573242
1745735516.8398483,-0.024175021797418594,0.005277532618492842,-0.027238493785262108,0.2122407704591751,0.5045734643936157,-9.298730850219727
1745735516.8727949,0.025123829022049904,0.0005922859418205917,-0.032722435891628265,0.12985996901988983,0.6576811075210571,-9.142210006713867
1745735516.877813,0.019718270748853683,-3.325138095533475e-05,-0.038447313010692596,0.2101183831691742,0.22971045970916748,-10.402458190917969
1745735516.8804297,0.03421667963266373,0.0035450905561447144,-0.04199408367276192,0.2368764877319336,-0.1219235435128212,-10.389366149902344
1745735516.881563,0.02524656616151333,0.013234026730060577,-0.037657320499420166,0.41385379433631897,-0.5821081399917603,-9.271553993225098
1745735516.9186785,-0.015989748761057854,-0.005592405796051025,-0.03434096649289131,0.35307982563972473,-0.6217522621154785,-9.242696762084961
1745735516.9195359,-0.015440014190971851,0.003034787718206644,-0.02748016081750393,0.4609812796115875,-0.7990312576293945,-10.234941482543945
1745735516.921576,-0.05456153675913811,0.008076626807451248,-0.024206038564443588,0.5018762946128845,-0.45371097326278687,-10.355518341064453
1745735516.9235978,-0.033645711839199066,0.009471519850194454,-0.022825362160801888,0.17098166048526764,-0.25561290979385376,-9.511476516723633
1745735516.9560034,-0.06882190704345703,1.5056459233164787e-05,-0.024998070672154427,0.17526015639305115,-0.22106444835662842,-9.251736640930176
1745735516.9589243,-0.03892096132040024,0.0021005498711019754,-0.023517783731222153,-0.07301299273967743,0.0619390606880188,-9.977869033813477
1745735516.9634593,-0.051558833569288254,0.018705975264310837,-0.026768699288368225,0.11216612160205841,-0.16870401799678802,-10.111152648925781
1745735516.9635494,-0.04082830622792244,0.010694511234760284,-0.026039252057671547,0.05800870060920715,0.01656651683151722,-9.431745529174805
1745735516.9648573,-0.030078524723649025,0.016499832272529602,-0.023073207587003708,0.26021912693977356,-0.16603782773017883,-9.340703964233398
1745735517.0030897,-0.04658856987953186,0.01006309874355793,-0.02164837345480919,0.5071572065353394,-0.12650218605995178,-9.962182998657227
1745735517.0047226,-0.014785127714276314,0.02381310798227787,-0.020103927701711655,0.43416452407836914,-0.02885223552584648,-10.242950439453125
1745735517.0096557,0.01255410723388195,0.020316753536462784,-0.008591210469603539,0.2865082621574402,-0.06430532783269882,-9.886685371398926
1745735517.0131695,-0.006467270664870739,0.010136864148080349,-0.009903142228722572,0.2812647521495819,-0.005492216441780329,-9.810102462768555
1745735517.0428474,0.00920838676393032,0.01596701703965664,-0.010418793186545372,0.26646745204925537,-0.29727739095687866,-9.733179092407227
1745735517.0450897,-0.026131803169846535,0.012304265052080154,-0.01060465257614851,0.35869356989860535,-0.25897926092147827,-9.68847370147705
1745735517.04833,-0.025578603148460388,0.007919453084468842,-0.010454555042088032,0.27828818559646606,-0.28208380937576294,-9.884753227233887
1745735517.0602055,-0.03514441102743149,0.010717695578932762,-0.007454730570316315,0.5856590270996094,-0.4005001187324524,-9.8434476852417
1745735517.086119,-0.03957159072160721,0.012444285675883293,-0.006373089738190174,0.2779499292373657,0.02613462135195732,-9.851171493530273
1745735517.0872974,-0.033756520599126816,0.003328949213027954,-0.004432689398527145,0.3911585807800293,-0.24741335213184357,-9.761733055114746
1745735517.0898905,-0.04053337126970291,0.0031859122682362795,-0.0041973404586315155,0.32634276151657104,0.055637460201978683,-9.743942260742188
1745735517.0960655,-0.008089173585176468,0.014904098585247993,-0.004051385447382927,0.15521275997161865,0.054181057959795,-9.825685501098633
1745735517.0961258,-0.032252974808216095,0.0009827067842707038,-0.004700058605521917,0.27158400416374207,0.10144674777984619,-9.675546646118164
1745735517.132556,0.010978370904922485,0.010076114907860756,-0.005745735950767994,0.17216113209724426,0.19932731986045837,-9.643548965454102
1745735517.1386192,-0.01419801451265812,0.00934014841914177,-0.009687935933470726,0.39300140738487244,0.005132555961608887,-9.740838050842285
1745735517.1386957,0.006509041879326105,0.0045765964314341545,-0.010220210999250412,0.298883855342865,0.08522923290729523,-9.892961502075195
1745735517.1387486,-0.002572133205831051,0.010733859613537788,-0.00966569036245346,0.4677712917327881,-0.30064746737480164,-9.814753532409668
1745735517.170896,-0.004902112763375044,0.005809376481920481,-0.007365323603153229,0.3070378601551056,-0.10133286565542221,-9.598002433776855
1745735517.1730177,-0.009676164016127586,0.01364232413470745,-0.007336948998272419,0.2836213707923889,-0.277694433927536,-9.687299728393555
1745735517.177286,-0.025497686117887497,0.006574353668838739,-0.00887620821595192,0.3702990412712097,-0.20122992992401123,-9.82789421081543
1745735517.1786063,-0.007935905829071999,0.009123055264353752,-0.008191137574613094,0.18786247074604034,0.0049676718190312386,-9.851789474487305
1745735517.1808143,0.05319244787096977,0.007984471507370472,-0.03638238087296486,0.18037521839141846,-0.0623636469244957,-10.403573036193848
1745735517.2237895,0.025536224246025085,0.010093504562973976,-0.039450861513614655,0.36581674218177795,-0.6537862420082092,-9.562671661376953
1745735517.2238553,0.03432457894086838,0.01530155073851347,-0.038583170622587204,0.2946522831916809,-0.0933823511004448,-8.980705261230469
1745735517.2278113,-0.00020440053776837885,0.011104417033493519,-0.0442381389439106,0.44111889600753784,-0.4409164488315582,-9.861302375793457
1745735517.231297,-0.003089357167482376,0.004398389719426632,-0.05545599386096001,0.513041615486145,0.2078673392534256,-10.413309097290039
1745735517.2600324,-0.002092605922371149,0.02327958680689335,-0.06281198561191559,0.3904154896736145,-0.31424838304519653,-9.983098983764648
1745735517.2626178,-0.012276707217097282,0.005428848322480917,-0.06828493624925613,0.4736906886100769,-0.049378376454114914,-9.027091026306152
1745735517.2641358,-0.04081248864531517,0.003489268245175481,-0.07015537470579147,0.4987289309501648,-0.26743370294570923,-9.70168685913086
1745735517.2654357,-0.012489872984588146,0.01332865096628666,-0.0660291463136673,0.5675562620162964,-0.28657829761505127,-10.500884056091309
1745735517.3036962,-0.009116746485233307,0.014781001023948193,-0.0652390792965889,0.2974596619606018,0.48925328254699707,-9.80453872680664
1745735517.3055782,0.010614296421408653,0.008706888183951378,-0.06849044561386108,0.5799084901809692,0.00660454947501421,-9.189820289611816
1745735517.305654,0.04522952809929848,-0.002600269392132759,-0.07313598692417145,0.40491431951522827,0.8004947900772095,-9.708836555480957
1745735517.3096168,0.05967431142926216,0.009770204313099384,-0.08175991475582123,0.3003701865673065,0.23830349743366241,-10.563848495483398
1745735517.3101106,0.07978178560733795,0.008573880419135094,-0.08472725003957748,0.36676129698753357,0.2266925573348999,-9.708887100219727
1745735517.3478549,0.08650453388690948,0.013040831312537193,-0.08789420127868652,0.27076929807662964,-0.18988195061683655,-9.0602388381958
1745735517.3504066,0.057882845401763916,0.0026231275405734777,-0.08792968094348907,0.5219521522521973,-0.24763326346874237,-9.56871509552002
1745735517.3533845,0.06037762761116028,0.009244738146662712,-0.09151100367307663,0.4427918493747711,-0.31559067964553833,-10.476219177246094
1745735517.3565512,0.07029213011264801,0.014640027657151222,-0.1266869455575943,0.4352911412715912,-0.23437722027301788,-9.943685531616211
1745735517.3907638,0.04925879091024399,0.008697537705302238,-0.1314379870891571,0.5834342241287231,-0.23012833297252655,-9.586014747619629
1745735517.3909113,0.05802693963050842,0.007575273513793945,-0.13677804172039032,0.34766340255737305,0.04381402209401131,-9.66719913482666
1745735517.390982,0.045129574835300446,0.010809274390339851,-0.14057520031929016,0.5880749821662903,-0.3004622161388397,-9.963789939880371
1745735517.39305,0.05735877901315689,0.010649207048118114,-0.14410185813903809,0.48168548941612244,0.058815229684114456,-9.835185050964355
1745735517.429237,0.057477496564388275,0.011174407787621021,-0.14564085006713867,0.578321099281311,-0.234040766954422,-9.641995429992676
1745735517.4322045,0.06048791483044624,0.005292544607073069,-0.14636048674583435,0.6059637665748596,0.05905907228589058,-9.71234130859375
1745735517.4344482,0.08981956541538239,0.01412613969296217,-0.14502626657485962,0.4564526081085205,-0.08145551383495331,-9.991979598999023
1745735517.4358218,0.07691557705402374,0.0034997735638171434,-0.1481924206018448,0.6141613125801086,-0.09200288355350494,-9.844107627868652
1745735517.437512,0.10815747827291489,0.007745356764644384,-0.15099813044071198,0.42918887734413147,-0.0423622727394104,-9.741640090942383
1745735517.4761446,0.09227366745471954,0.006666460540145636,-0.15421634912490845,0.47059863805770874,-0.27211564779281616,-9.712626457214355
1745735517.4784493,0.10042022168636322,0.003937614616006613,-0.15843437612056732,0.3993612229824066,0.004918946418911219,-9.678616523742676
1745735517.4805682,0.08666052669286728,0.00828074011951685,-0.16126641631126404,0.5925338268280029,-0.661359429359436,-9.863000869750977
1745735517.4851663,0.07110515981912613,2.409997432550881e-05,-0.16196118295192719,0.5793989300727844,-0.2944043278694153,-9.83017349243164
1745735517.5162416,0.07035676389932632,0.00880938395857811,-0.1658097356557846,0.5403451323509216,-0.518059253692627,-9.835227966308594
1745735517.5188162,0.03945392742753029,0.003403174225240946,-0.16682617366313934,0.5870050191879272,-0.36326324939727783,-9.659568786621094
1745735517.5209699,0.06681661307811737,0.010021761059761047,-0.16938620805740356,0.564598560333252,-0.2111988514661789,-9.656262397766113
1745735517.5250092,0.04779377952218056,0.003987139090895653,-0.17115327715873718,0.7847821712493896,-0.20669154822826385,-9.804826736450195
1745735517.5598774,0.10081877559423447,0.004117495380342007,-0.19812874495983124,0.2889477610588074,-0.35293763875961304,-10.257101058959961
1745735517.5630243,0.11053303629159927,0.01210298202931881,-0.19285209476947784,0.15422411262989044,-0.7287589311599731,-9.74414348602295
1745735517.5639873,0.05552537366747856,-0.01805828884243965,-0.18807029724121094,0.27287808060646057,-0.7098223567008972,-9.260270118713379
1745735517.565947,0.05968114733695984,0.0034525194205343723,-0.18384316563606262,-0.21329009532928467,-0.5913516283035278,-10.055338859558105
1745735517.6057637,0.025227900594472885,-0.006136937998235226,-0.18658991158008575,0.017841501161456108,-0.21521759033203125,-9.813802719116211
1745735517.6099956,0.04090778902173042,-0.002386148553341627,-0.190242737531662,0.2033163607120514,-0.17206557095050812,-9.320623397827148
1745735517.6131024,0.021284326910972595,-0.01703014224767685,-0.19155260920524597,0.48796239495277405,-0.3543179929256439,-9.775003433227539
1745735517.616964,0.04090746119618416,-0.029859106987714767,-0.18612118065357208,0.34501737356185913,-0.3401477038860321,-10.438751220703125
1745735517.619974,0.04532835632562637,-0.006141580641269684,-0.17549359798431396,0.17533369362354279,-0.5121563673019409,-9.939298629760742
1745735517.6460304,0.03104189597070217,-0.024787843227386475,-0.16464391350746155,0.2133682519197464,-0.7782377004623413,-9.179941177368164
1745735517.6481965,0.0688997358083725,-0.024977080523967743,-0.15269272029399872,0.2636963129043579,-0.1410028636455536,-9.382667541503906
1745735517.6495628,0.03779429569840431,-0.03155151754617691,-0.1570998579263687,0.200404092669487,-0.008357393555343151,-10.514688491821289
1745735517.652561,0.11357232183218002,-0.02419593371450901,-0.15854035317897797,-0.012128809466958046,0.17715208232402802,-10.040371894836426
1745735517.6871684,0.049316927790641785,-0.026740122586488724,-0.16779465973377228,0.26885876059532166,-0.20497910678386688,-8.94043254852295
1745735517.689523,0.06627479940652847,-0.04642071574926376,-0.16660113632678986,0.1422697901725769,-0.608039915561676,-9.602747917175293
1745735517.6912742,0.039513830095529556,-0.033745668828487396,-0.16409720480442047,0.2945275902748108,-0.7811974287033081,-10.421174049377441
1745735517.6941302,0.02654571831226349,-0.027018433436751366,-0.15448687970638275,0.2288733720779419,-0.8623886108398438,-10.019317626953125
1745735517.6973934,0.02405218966305256,-0.03455571457743645,-0.14631998538970947,0.4378341734409332,-0.6739692687988281,-9.002479553222656
1745735517.7333276,0.02356083318591118,-0.02080874890089035,-0.08916079252958298,0.2529262900352478,-1.0479273796081543,-9.461775779724121
1745735517.7371986,-0.011083744466304779,-0.037301525473594666,-0.09018074721097946,0.13992823660373688,-0.4589819312095642,-8.347728729248047
1745735517.7484777,-0.05541200190782547,-0.04776621609926224,-0.08948158472776413,0.5497709512710571,-0.8976259231567383,-9.93336009979248
1745735517.748547,-0.0477992407977581,-0.03235625475645065,-0.0955166146159172,0.37088316679000854,-0.17135080695152283,-11.188060760498047
1745735517.7737534,-0.06291397660970688,-0.018956299871206284,-0.09717720001935959,0.28663185238838196,-0.5006031394004822,-9.921414375305176
1745735517.7760944,-0.07000420987606049,-0.0386727973818779,-0.0891542136669159,0.32121190428733826,-0.516809344291687,-8.520243644714355
1745735517.778957,-0.05224243551492691,-0.0348234698176384,-0.07558397203683853,0.3062956929206848,-0.3109268546104431,-9.62147331237793
1745735517.7801394,-0.046080101281404495,-0.024763314053416252,-0.06800434738397598,0.3681873083114624,-0.40216580033302307,-11.011290550231934
1745735517.8172226,-0.0028043854981660843,-0.018371770158410072,-0.06229498237371445,0.22282931208610535,0.3396218717098236,-9.858136177062988
1745735517.821058,0.0023275548592209816,-0.026594579219818115,-0.06179331615567207,0.45457059144973755,0.006541314534842968,-8.863117218017578
1745735517.824397,0.030964162200689316,-0.042676206678152084,-0.0641574114561081,0.31270259618759155,0.5132543444633484,-9.949821472167969
1745735517.8278568,0.02835964597761631,-0.02634122408926487,-0.07041126489639282,0.28775420784950256,-0.38534975051879883,-11.025565147399902
1745735517.832876,0.02338467910885811,-0.02769586443901062,-0.0696590393781662,0.3665570616722107,-0.3603822588920593,-9.672719955444336
1745735517.8629498,0.0011278443271294236,-0.02779514156281948,-0.06247975677251816,0.2511502802371979,-0.9575689435005188,-8.775547981262207
1745735517.871665,-0.036326825618743896,-0.03634032607078552,-0.056006889790296555,0.39758774638175964,-0.8010560274124146,-9.757696151733398
1745735517.8718152,-0.04129188507795334,-0.026623651385307312,-0.050450414419174194,0.3910366892814636,-0.611275315284729,-10.719422340393066
1745735517.8733768,-0.04784519225358963,-0.014578362926840782,-0.04901440814137459,0.5000118613243103,-0.5972234606742859,-9.903776168823242
1745735517.9089117,-0.048732515424489975,-0.026192566379904747,-0.04568176344037056,0.13775819540023804,-0.06264628469944,-9.058916091918945
1745735517.9140406,-0.07893729209899902,-0.0041724685579538345,-0.012654168531298637,0.37468811869621277,-0.32412290573120117,-9.638720512390137
1745735517.9188232,-0.08665935695171356,0.002114692237228155,-0.012830784544348717,0.2882556915283203,-0.45408305525779724,-9.92454719543457
1745735517.9228208,-0.09869412332773209,-4.771370367961936e-05,-0.014263436198234558,0.3335748612880707,-0.1628229022026062,-9.840219497680664
1745735517.9467256,-0.09208882600069046,0.0037461542524397373,-0.01794278249144554,0.09397510439157486,-0.09315131604671478,-9.69775104522705
1745735517.9501739,-0.0990959033370018,0.00626837182790041,-0.01630617491900921,0.3222455084323883,-0.3278455436229706,-9.638050079345703
1745735517.9528518,-0.08148275315761566,0.004165152553468943,-0.012546747922897339,0.16374436020851135,0.06395254284143448,-9.730231285095215
1745735517.9547336,-0.07470592856407166,0.013560774736106396,-0.009100453928112984,0.27624067664146423,-0.2307395190000534,-9.960977554321289
1745735517.9572208,-0.05981677770614624,0.007050177548080683,-0.005975580774247646,0.350275456905365,0.17463889718055725,-9.661811828613281
1745735517.990786,-0.042930178344249725,0.013248403556644917,-0.003751718206331134,0.29881253838539124,-0.1921232044696808,-9.713642120361328
1745735517.9946315,-0.03724130243062973,0.0034533808939158916,-0.0032829202245920897,0.40894097089767456,0.028430726379156113,-9.967512130737305
1745735517.99855,-0.034910958260297775,0.009966293349862099,-0.0016994045581668615,0.19794920086860657,-0.3002546727657318,-10.092966079711914
1745735517.9997354,-0.05122222751379013,0.008957142941653728,0.0005920001422055066,0.4739477038383484,-0.49837881326675415,-9.578022956848145
1745735518.0322464,-0.06065472960472107,0.007995279505848885,0.004350706003606319,0.2627142071723938,-0.4403975009918213,-9.60956859588623
1745735518.0364482,-0.08914639800786972,0.009001565165817738,0.008424084633588791,0.39815574884414673,-0.619010329246521,-9.900779724121094
1745735518.044443,-0.10568350553512573,0.00333948852494359,0.008444314822554588,0.6163877248764038,-0.31672993302345276,-9.86549186706543
1745735518.046444,-0.09505108743906021,0.011028566397726536,0.01265796460211277,0.47733840346336365,-0.3191680312156677,-9.950102806091309
1745735518.0477958,-0.12643155455589294,0.0028092307038605213,0.016191396862268448,0.41398364305496216,-0.07616184651851654,-9.759130477905273
1745735518.0772061,-0.08318404853343964,0.008305025286972523,0.018006978556513786,0.2793915867805481,-0.09567821770906448,-9.710841178894043
1745735518.0808787,-0.0706825852394104,0.015758970752358437,0.06281095743179321,0.39644306898117065,-0.10196052491664886,-9.733954429626465
1745735518.0827944,-0.08951591700315475,0.003291547764092684,0.06071336194872856,0.2855415344238281,-0.0039027153979986906,-9.582595825195312
1745735518.0843482,-0.07073088735342026,0.013819968327879906,0.06513257324695587,0.33621641993522644,-0.2605137228965759,-9.647109985351562
1745735518.1220286,-0.0899905413389206,0.016394849866628647,0.06931181252002716,0.3228320777416229,-0.0039171515963971615,-9.834153175354004
1745735518.1264071,-0.08445712924003601,0.011476748622953892,0.06947768479585648,0.23556318879127502,-0.03655929118394852,-9.798311233520508
1745735518.131839,-0.0778593048453331,0.013636166229844093,0.07211000472307205,0.5588570833206177,-0.18232135474681854,-9.605279922485352
1745735518.137631,-0.07532218843698502,0.017412524670362473,0.07426731288433075,0.16981938481330872,0.2675756514072418,-9.838943481445312
1745735518.1618316,-0.08583543449640274,0.009015585295855999,0.07397500425577164,0.35418158769607544,-0.3795396089553833,-9.930521011352539
1745735518.1645548,-0.06413783133029938,0.012413209304213524,0.07916035503149033,0.40072232484817505,0.1783198118209839,-9.548627853393555
1745735518.1657472,-0.08410827070474625,0.019945526495575905,0.08205993473529816,0.2822287976741791,-0.306814044713974,-9.807154655456543
1745735518.168145,-0.0873573049902916,0.0015708813443779945,0.08313699811697006,0.39505264163017273,0.006806695368140936,-9.812276840209961
1745735518.1694884,-0.08001507818698883,0.015646865591406822,0.08302555978298187,0.34865158796310425,-0.011511296033859253,-9.795219421386719
1745735518.2122588,-0.09443433582782745,0.011274832300841808,0.08260612934827805,0.4041685163974762,-0.03467391058802605,-9.755132675170898
1745735518.2127492,-0.0845751166343689,0.0029954935889691114,0.08667366206645966,0.3580792546272278,0.19128206372261047,-9.733797073364258
1745735518.2128084,-0.08706213533878326,0.002238283632323146,0.08288954943418503,0.5605451464653015,-0.06350778043270111,-9.876340866088867
1745735518.212844,-0.07035782933235168,0.0017168009653687477,0.0832771509885788,0.03391899913549423,0.4274519085884094,-9.955873489379883
1745735518.248238,-0.08241192996501923,0.0016261187847703695,0.0809771865606308,0.1269359588623047,-0.09823998063802719,-9.634698867797852
1745735518.2501965,-0.05118566006422043,-0.004737182054668665,0.08226393163204193,0.19755348563194275,0.3046404719352722,-9.434020042419434
1745735518.2539062,-0.0457436665892601,-0.017658453434705734,0.06862449645996094,0.3013139069080353,-0.13802850246429443,-9.772565841674805
1745735518.2550294,-0.054565221071243286,-0.02092863991856575,0.0669819563627243,0.055958498269319534,-0.0943862795829773,-9.59199333190918
1745735518.2938256,-0.07477220892906189,-0.017084740102291107,0.06560909748077393,0.2894916534423828,-0.31795135140419006,-9.704103469848633
1745735518.2958388,-0.09115102887153625,-0.021883737295866013,0.06469032913446426,0.16775093972682953,0.027085566893219948,-9.968507766723633
1745735518.2973168,-0.08652857691049576,-0.01486004889011383,0.06730929762125015,0.19569846987724304,-0.15395711362361908,-9.878396987915039
1745735518.2973678,-0.08581390976905823,-0.020751390606164932,0.06710019707679749,0.20214955508708954,0.2868776023387909,-9.486385345458984
1745735518.300201,-0.07259154319763184,-0.015931453555822372,0.06688818335533142,0.1212899461388588,0.10663916915655136,-9.771173477172852
1745735518.3339984,-0.06937219947576523,-0.025503313168883324,0.06665275990962982,0.319283664226532,0.29676443338394165,-9.970491409301758
1745735518.3380187,-0.045696087181568146,-0.012260721065104008,0.0664260983467102,0.14459046721458435,0.444284051656723,-9.901749610900879
1745735518.3413396,-0.05367636680603027,-0.019422587007284164,0.0610341802239418,0.3102864623069763,0.31803712248802185,-9.683100700378418
1745735518.344735,-0.02210177853703499,-0.017104187980294228,0.060147207230329514,0.1662132740020752,0.46794429421424866,-9.64912223815918
1745735518.3770044,-0.019708242267370224,-0.015529069118201733,0.05625637620687485,0.5471882224082947,0.3151220977306366,-9.795866012573242
1745735518.3781173,-0.027142848819494247,-0.02318739704787731,0.053868602961301804,0.48563361167907715,0.2667909264564514,-10.117268562316895
1745735518.3795404,0.0106403399258852,-0.017440883442759514,0.04967597499489784,0.3297439515590668,0.19409224390983582,-9.877018928527832
1745735518.3830779,-0.02065565250813961,-0.012980158440768719,0.04695320129394531,0.42030763626098633,0.18755897879600525,-9.484118461608887
1745735518.3847413,0.006239150185137987,-0.018440958112478256,0.04535149782896042,0.3048540949821472,0.11601769924163818,-9.699666976928711
1745735518.4199488,-0.020368654280900955,-0.016299819573760033,0.04281969368457794,0.5738037824630737,-0.06978824734687805,-10.012606620788574
1745735518.422123,0.007539201527833939,-0.008612977340817451,0.03926103562116623,0.1688459813594818,0.3763379454612732,-10.005955696105957
1745735518.4264023,-0.010178940370678902,0.02382885478436947,0.04517412930727005,0.23591330647468567,0.7022483348846436,-9.741129875183105
1745735518.4278808,-0.029814546927809715,0.01305275410413742,0.050947465002536774,0.3898316025733948,0.20413371920585632,-8.501540184020996
1745735518.4636316,0.03060886822640896,-0.004881915170699358,0.05826009437441826,0.42007604241371155,1.014695405960083,-9.652175903320312
1745735518.4674637,0.0325189009308815,0.01810416392982006,0.0592888779938221,0.35230061411857605,0.49617800116539,-11.279563903808594
1745735518.4718282,0.10918407142162323,0.02388971671462059,0.060088254511356354,0.22297105193138123,0.7708426713943481,-9.748735427856445
1745735518.4741173,0.08528687059879303,0.02022632583975792,0.06456784904003143,0.3123588562011719,0.31333568692207336,-8.330957412719727
1745735518.5083358,0.09112514555454254,0.002328928094357252,0.0680340975522995,0.5245792269706726,-0.2113620787858963,-9.79271125793457
1745735518.5097234,0.09047646075487137,0.023716043680906296,0.07076747715473175,0.4038600027561188,-0.08667046576738358,-11.100469589233398
1745735518.5128863,0.038811516016721725,0.0361686646938324,0.07207958400249481,0.39123597741127014,-0.789185106754303,-9.892213821411133
1745735518.5160632,0.03442421555519104,0.02103365585207939,0.07697132229804993,0.3118705153465271,-0.296386182308197,-8.323434829711914
1745735518.5584495,-0.04357417672872543,0.01621697098016739,0.08033265173435211,0.4940503239631653,-0.6948395371437073,-9.662755966186523
1745735518.5586116,-0.03227312117815018,0.025965232402086258,0.07940814644098282,0.4646499752998352,-0.07310811430215836,-11.031501770019531
1745735518.5587666,-0.04943614453077316,0.03898079693317413,0.08047983795404434,0.4292335510253906,-0.14717234671115875,-9.921643257141113
1745735518.558841,-0.062290120869874954,0.023800652474164963,0.08421517163515091,0.28111588954925537,0.09598274528980255,-8.698484420776367
1745735518.5619423,-0.03829250484704971,0.01652601733803749,0.09066314250230789,0.32497239112854004,0.28768086433410645,-9.534367561340332
1745735518.6018183,-0.02771132066845894,0.033123929053545,0.09525426477193832,0.4334526062011719,0.3197537064552307,-10.799554824829102
1745735518.603953,0.009253536351025105,0.035238079726696014,0.09618714451789856,0.2645140588283539,0.7408987283706665,-9.940679550170898
1745735518.6135583,0.016281869262456894,0.020973358303308487,0.09958691895008087,0.53466796875,0.251159131526947,-8.887273788452148
1745735518.6136632,-0.03865702450275421,0.018074695020914078,0.06924188882112503,0.4164750576019287,0.274092435836792,-10.131943702697754
