timestamp,angular_vel_x,angular_vel_y,angular_vel_z,linear_acc_x,linear_acc_y,linear_acc_z
1745734342.9368653,-0.0037642016541212797,0.019878113642334938,0.046597130596637726,0.40249642729759216,-0.4613230228424072,-10.554977416992188
1745734342.9369724,-0.017505232244729996,0.02348792552947998,0.044994790107011795,0.46302780508995056,0.11037243902683258,-9.451523780822754
1745734342.9370174,-0.024566346779465675,0.019239310175180435,0.041699983179569244,0.35785001516342163,0.1400403529405594,-9.063593864440918
1745734342.937045,-0.05364608019590378,0.012117937207221985,0.040539611130952835,0.4569306969642639,0.03482661023736,-9.989436149597168
1745734342.9681313,-0.044682059437036514,0.03419855609536171,0.04551092907786369,0.23386959731578827,-0.01831919327378273,-10.49657917022705
1745734342.9818459,-0.05374849960207939,0.0370081290602684,0.05962174013257027,0.9486293792724609,-0.36398303508758545,-9.200093269348145
1745734342.9880097,-0.05370314046740532,0.037082429975271225,0.07732231169939041,0.6829949617385864,-0.06477329134941101,-9.24618148803711
1745734342.9880435,-0.06719601899385452,0.04740885645151138,0.09326900541782379,0.9275949597358704,-0.11779995262622833,-10.040605545043945
1745734342.9997127,-0.055817343294620514,0.04199094697833061,0.10341149568557739,1.4690215587615967,0.3484906554222107,-9.924589157104492
1745734343.002846,-0.10934382677078247,0.07216847687959671,0.27212509512901306,0.7145903706550598,0.7124269604682922,-10.18390941619873
1745734343.0137477,-0.08105860650539398,0.0885792002081871,0.2770906388759613,0.7657949924468994,0.4599190354347229,-10.137019157409668
1745734343.023276,-0.0809466689825058,0.08344890177249908,0.2798842787742615,0.7537292242050171,0.6006066799163818,-9.08214282989502
1745734343.0425398,-0.060322366654872894,0.07628584653139114,0.28177890181541443,0.5852328538894653,0.5496464371681213,-9.202766418457031
1745734343.0459108,-0.06912102550268173,0.0807482972741127,0.2872818112373352,0.9370363354682922,0.285245418548584,-10.060019493103027
1745734343.0473552,-0.05135532468557358,0.08581148087978363,0.290958434343338,0.9581794738769531,0.5084927082061768,-10.063389778137207
1745734343.0496218,-0.06704294681549072,0.08673523366451263,0.293437123298645,1.0905598402023315,0.07307885587215424,-9.454324722290039
1745734343.0507603,-0.07291090488433838,0.06941588968038559,0.2992633581161499,1.014484167098999,0.4008864760398865,-9.428892135620117
1745734343.0939085,-0.07052405923604965,0.07723518460988998,0.3040878176689148,1.012158989906311,0.054466553032398224,-10.110526084899902
1745734343.1066697,-0.07746750861406326,0.07589194178581238,0.3113814890384674,0.9572850465774536,0.3425094485282898,-9.97271728515625
1745734343.108182,-0.07617907971143723,0.06954531371593475,0.3168618083000183,0.824649453163147,0.22669832408428192,-9.562089920043945
1745734343.1082234,-0.07642202824354172,0.06130819767713547,0.32125523686408997,0.9693776369094849,0.41032975912094116,-9.508615493774414
1745734343.1421962,-0.05989612266421318,0.06330908834934235,0.32372933626174927,0.7936211824417114,0.6101635694503784,-9.966569900512695
1745734343.1441386,-0.06505123525857925,0.057852573692798615,0.3256683945655823,1.0369361639022827,0.38016456365585327,-10.064594268798828
1745734343.1445026,-0.0461958572268486,0.04753560945391655,0.33055973052978516,0.952492892742157,0.43196114897727966,-9.721434593200684
1745734343.1489046,-0.05563462898135185,0.052426330745220184,0.33279430866241455,0.9537528157234192,0.17785754799842834,-9.60307502746582
1745734343.1507013,-0.07618215680122375,0.044038690626621246,0.3384562134742737,0.9800530672073364,0.20162740349769592,-9.755671501159668
1745734343.1744761,-0.05464525148272514,0.04599866643548012,0.3464195430278778,0.9859696626663208,0.1773042529821396,-9.797063827514648
1745734343.1761205,-0.09213357418775558,0.045966438949108124,0.3477591872215271,1.1204206943511963,0.3018414378166199,-9.70390510559082
1745734343.1790562,-0.06791607290506363,0.038506995886564255,0.35227733850479126,0.787134051322937,0.5248066186904907,-9.702569961547852
1745734343.1821356,-0.07580161839723587,0.040421903133392334,0.35207659006118774,0.9306065440177917,0.4385443329811096,-9.638772964477539
1745734343.215184,-0.034309662878513336,0.01903919316828251,0.37722450494766235,0.9393707513809204,0.4826056957244873,-9.746942520141602
1745734343.2239141,-0.04887087270617485,0.013121051713824272,0.38226109743118286,0.984218955039978,0.14195427298545837,-9.774141311645508
1745734343.2257361,-0.05309866741299629,-0.001452766708098352,0.38503819704055786,0.9888830184936523,0.39371436834335327,-9.82921028137207
1745734343.2295175,-0.053188394755125046,0.007349011953920126,0.3862249255180359,0.9736042022705078,0.26124876737594604,-9.87553596496582
1745734343.2595568,-0.06452910602092743,-0.0015785977011546493,0.3901025652885437,1.0094163417816162,0.4653312563896179,-9.74782657623291
1745734343.2620451,-0.04193232208490372,-0.009918426163494587,0.3922794461250305,0.8979633450508118,0.5587230920791626,-9.738280296325684
1745734343.2636256,-0.04583241418004036,-0.01302975695580244,0.3957458436489105,1.1129728555679321,0.44854527711868286,-9.874320983886719
1745734343.2669916,-0.02847456932067871,-0.010634737089276314,0.39879482984542847,0.8052141070365906,0.733628511428833,-9.901215553283691
1745734343.3016124,-0.03173571079969406,-0.01632002741098404,0.400954008102417,0.8759786486625671,0.21560820937156677,-9.668294906616211
1745734343.3045423,-0.017834782600402832,-0.019858047366142273,0.4058557450771332,0.8786650896072388,0.660028338432312,-9.407873153686523
1745734343.307776,-0.02744000032544136,-0.01369380671530962,0.4069580137729645,0.8927286267280579,0.33391547203063965,-9.879865646362305
1745734343.3109047,-0.025040965527296066,-0.026752028614282608,0.40909647941589355,0.9739616513252258,0.5248703956604004,-9.927796363830566
1745734343.3180854,-0.01792839542031288,-0.019021011888980865,0.41140055656433105,0.8836892247200012,0.4199996590614319,-9.671920776367188
1745734343.3457468,-0.039069730788469315,-0.023211952298879623,0.4115923345088959,1.0214377641677856,0.24067938327789307,-9.54815673828125
1745734343.3491578,-0.025697529315948486,-0.027476191520690918,0.4155746400356293,0.8497368693351746,0.46172896027565,-9.793384552001953
1745734343.3529265,-0.05589660257101059,-0.06770232319831848,0.4749961495399475,0.7074388265609741,0.49744147062301636,-9.624160766601562
1745734343.356527,-0.06460686773061752,-0.07062474638223648,0.48066312074661255,0.7936825752258301,0.3737761378288269,-9.664514541625977
1745734343.3865864,-0.04802791029214859,-0.0792052373290062,0.48107752203941345,0.703811526298523,0.6698235869407654,-9.893072128295898
1745734343.3887475,-0.058728765696287155,-0.06947946548461914,0.4829724431037903,0.7970625758171082,0.35358816385269165,-9.941099166870117
1745734343.391797,-0.03920905664563179,-0.07181398570537567,0.481685072183609,0.680692732334137,0.7203267812728882,-9.561223983764648
1745734343.394188,-0.06516651064157486,-0.07015068829059601,0.4834424555301666,0.7097122073173523,0.293337345123291,-9.737210273742676
1745734343.3965466,-0.05626638978719711,-0.07683484256267548,0.4820924699306488,0.7679880857467651,0.4675559103488922,-9.879026412963867
1745734343.4321911,-0.05993930622935295,-0.06283076852560043,0.48387813568115234,0.6443431377410889,0.4247948229312897,-9.801677703857422
1745734343.4350584,-0.08778975903987885,-0.06748823821544647,0.48468342423439026,0.7346943020820618,0.2165534943342209,-9.659017562866211
1745734343.437956,-0.06474604457616806,-0.07054639607667923,0.48606181144714355,0.6988919377326965,0.5603632926940918,-9.618456840515137
1745734343.440649,-0.09126399457454681,-0.06489279866218567,0.4883181154727936,0.8301474452018738,0.29435381293296814,-9.908544540405273
1745734343.477549,-0.07230783998966217,-0.06480284035205841,0.4902926981449127,0.6503404974937439,0.6556746363639832,-9.908265113830566
1745734343.4814167,-0.07656320184469223,-0.0627674013376236,0.4918366074562073,0.6960894465446472,0.3858194351196289,-9.741268157958984
1745734343.4827645,-0.07876873016357422,-0.07094541192054749,0.49297675490379333,0.740466833114624,0.6638907790184021,-9.600773811340332
1745734343.4837606,-0.06250492483377457,-0.06253709644079208,0.49368348717689514,0.6766141653060913,0.4996832311153412,-9.922957420349121
1745734343.5182743,-0.08642212301492691,-0.0660657286643982,0.4912208616733551,0.6964049339294434,0.5055557489395142,-9.942339897155762
1745734343.5224159,-0.05933089181780815,-0.06536899507045746,0.49476346373558044,0.679266095161438,0.549793004989624,-9.626504898071289
1745734343.5269938,-0.0874619260430336,-0.06496787816286087,0.49579158425331116,0.8197908401489258,0.41535839438438416,-9.624844551086426
1745734343.5329063,-0.0797262191772461,-0.06856326758861542,0.49920397996902466,0.6233325004577637,0.5643543004989624,-9.99610710144043
1745734343.5592237,-0.08012250065803528,-0.06474383920431137,0.49515628814697266,0.8333282470703125,0.3817761540412903,-9.925321578979492
1745734343.5624084,-0.08938761800527573,-0.056169938296079636,0.5034390687942505,0.7885522842407227,0.632491946220398,-9.625697135925293
1745734343.5640142,-0.08294466882944107,-0.048356570303440094,0.5034242272377014,0.6532963514328003,0.5205096006393433,-9.922609329223633
1745734343.5653796,-0.0908927470445633,-0.04896773770451546,0.5054857134819031,0.753844141960144,0.4926368296146393,-9.861326217651367
1745734343.6029656,-0.0776255875825882,-0.05229392647743225,0.5082536935806274,0.5425938367843628,0.7473007440567017,-9.656346321105957
1745734343.6042078,-0.09218309074640274,-0.04803239181637764,0.5044483542442322,0.7259925603866577,0.5385881066322327,-9.690458297729492
1745734343.6083632,-0.07209261506795883,-0.04864543676376343,0.5064182281494141,0.625311017036438,0.898160457611084,-9.791144371032715
1745734343.6095665,-0.08622037619352341,-0.04565712809562683,0.5025721192359924,0.6371926069259644,0.44649261236190796,-9.955425262451172
1745734343.6125126,-0.07169598340988159,-0.05053544044494629,0.504447877407074,0.7138193845748901,0.7886111736297607,-9.68806266784668
1745734343.6465137,-0.07653520256280899,-0.04274270683526993,0.503756046295166,0.5860835909843445,0.6139286756515503,-9.642215728759766
1745734343.6495626,-0.08710621297359467,-0.049841418862342834,0.5044220089912415,0.668938934803009,0.42774850130081177,-9.8207426071167
1745734343.6509106,-0.06979283690452576,-0.04529103264212608,0.5058101415634155,0.7025591135025024,0.7469467520713806,-9.816298484802246
1745734343.651338,-0.08594254404306412,-0.04149426892399788,0.5045480728149414,0.7667268514633179,0.41979798674583435,-9.819584846496582
1745734343.6902401,-0.07318027317523956,-0.041912954300642014,0.5076370239257812,0.5100501179695129,0.8130859136581421,-9.677694320678711
1745734343.6940548,-0.07694055885076523,-0.041003018617630005,0.5073016285896301,0.6813532114028931,0.4548693597316742,-9.727657318115234
1745734343.6971946,-0.0821538120508194,-0.04167994484305382,0.5070030093193054,0.6411111950874329,0.7945149540901184,-9.718591690063477
1745734343.7010808,-0.09951414167881012,-0.01387720089405775,0.4991493225097656,0.6417921185493469,0.5871018171310425,-9.7042236328125
1745734343.7314112,-0.08172857016324997,-0.020220622420310974,0.49861687421798706,0.4981195032596588,0.9507088661193848,-9.510676383972168
1745734343.7345002,-0.08552680909633636,-0.020671166479587555,0.5017907023429871,0.6948861479759216,0.6555503010749817,-9.766010284423828
1745734343.7377772,-0.08534625917673111,-0.0202342439442873,0.5006958246231079,0.6458698511123657,0.8883325457572937,-9.935707092285156
1745734343.7394516,-0.06734474003314972,-0.012921556830406189,0.501264214515686,0.556719958782196,0.768393337726593,-9.77134895324707
1745734343.7728605,-0.08493568003177643,-0.02378106862306595,0.4992242455482483,0.6262396574020386,0.7927049994468689,-9.576995849609375
1745734343.7787015,-0.05714951083064079,-0.01984713040292263,0.5002902150154114,0.5888991355895996,0.8544891476631165,-9.76115608215332
1745734343.7818904,-0.08492178469896317,-0.016894126310944557,0.49754685163497925,0.7069182991981506,0.7687915563583374,-9.857779502868652
1745734343.7819579,-0.06830427050590515,-0.02200908400118351,0.49618610739707947,0.5090324282646179,0.834119439125061,-9.756587028503418
1745734343.7820165,-0.0757184848189354,-0.019411779940128326,0.49474185705184937,0.717545211315155,0.6654534339904785,-9.564065933227539
1745734343.8235507,-0.08001425117254257,-0.019421305507421494,0.4952235817909241,0.5694997906684875,0.8666590452194214,-9.748703002929688
1745734343.824881,-0.07093294709920883,-0.015549692325294018,0.4956184923648834,0.5267072916030884,0.6280345916748047,-9.885047912597656
1745734343.8262784,-0.079727403819561,-0.02237003669142723,0.49498629570007324,0.7187063097953796,0.8376990556716919,-9.60747241973877
1745734343.827585,-0.06671112775802612,-0.015404647216200829,0.49774137139320374,0.5615938901901245,0.8394306898117065,-9.659170150756836
1745734343.8602173,-0.07266181707382202,-0.020700188353657722,0.4933589994907379,0.6889452338218689,0.825262725353241,-9.776924133300781
1745734343.8623514,-0.06054830551147461,-0.02126127853989601,0.4954376220703125,0.4810620844364166,0.9396513104438782,-9.877890586853027
1745734343.8658113,-0.058140479028224945,-0.01542604435235262,0.4923807978630066,0.667267918586731,0.7351729273796082,-9.69083309173584
1745734343.8688118,-0.06751096993684769,-0.018817132338881493,0.49074500799179077,0.5149375200271606,1.0086222887039185,-9.528111457824707
1745734343.871063,-0.05960351973772049,-0.02055179886519909,0.4910629391670227,0.5962034463882446,0.5887092351913452,-9.811270713806152
1745734343.9039092,-0.06980585306882858,-0.022147461771965027,0.4860392212867737,0.7068319320678711,0.962578296661377,-9.837736129760742
1745734343.9065595,-0.06517092883586884,-0.016053833067417145,0.4882165789604187,0.5200183987617493,0.6637406349182129,-9.808850288391113
1745734343.9084046,-0.07183508574962616,-0.0225526113063097,0.4780955910682678,0.6754344701766968,0.5475947260856628,-9.788904190063477
1745734343.9168174,-0.053788769990205765,-0.025830870494246483,0.4788312315940857,0.5157848596572876,0.9841615557670593,-9.747187614440918
1745734343.9468513,-0.06471283733844757,-0.021287400275468826,0.4790191650390625,0.675364077091217,0.6744962930679321,-9.688307762145996
1745734343.949258,-0.06131596490740776,-0.02301212213933468,0.4788242280483246,0.5454493761062622,0.9902065396308899,-9.668550491333008
1745734343.9508157,-0.049280114471912384,-0.018761130049824715,0.47743526101112366,0.475656121969223,0.8907748460769653,-9.752103805541992
1745734343.9536777,-0.05841955542564392,-0.028835123404860497,0.47603732347488403,0.6240590810775757,0.8752390146255493,-9.720515251159668
1745734343.9547458,-0.03696049004793167,-0.02155998907983303,0.4746934771537781,0.5003239512443542,1.011566400527954,-9.766327857971191
1745734343.9948978,-0.06332185119390488,-0.021284887567162514,0.47302183508872986,0.6142365336418152,0.7195706963539124,-9.776269912719727
1745734343.9957054,-0.034506361931562424,-0.028823334723711014,0.46998149156570435,0.5386970639228821,0.9146205186843872,-9.634363174438477
1745734343.9983974,-0.05975211784243584,-0.021239424124360085,0.4708216190338135,0.7463387250900269,0.6857165694236755,-9.742685317993164
1745734344.0033064,-0.05141487717628479,-0.02790868654847145,0.47175392508506775,0.5392248630523682,0.8935288190841675,-9.889294624328613
1745734344.0343308,-0.04469869285821915,-0.02366356924176216,0.47155675292015076,0.5386224389076233,0.7397275567054749,-9.746957778930664
1745734344.0364232,-0.05977736786007881,-0.02699819765985012,0.472881019115448,0.6560431718826294,0.8775657415390015,-9.534686088562012
1745734344.0380204,-0.03945998102426529,-0.024612944573163986,0.47251424193382263,0.5401238799095154,0.8399046659469604,-9.756492614746094
1745734344.0390122,-0.05088827759027481,-0.02564500831067562,0.47195950150489807,0.6449939012527466,0.951063334941864,-9.857308387756348
1745734344.0753767,-0.014224840328097343,-0.02298351563513279,0.44942814111709595,0.5026401281356812,0.8315443992614746,-9.854799270629883
1745734344.0781493,-0.0240518506616354,-0.029476206749677658,0.44693464040756226,0.5957667827606201,1.0201728343963623,-9.72099494934082
1745734344.079252,-0.004275836981832981,-0.02883513830602169,0.4487220346927643,0.48976054787635803,0.9084671139717102,-9.718360900878906
1745734344.0824952,-0.012924900278449059,-0.025176579132676125,0.44720587134361267,0.6020668745040894,0.8953716158866882,-9.718027114868164
1745734344.1193233,-0.009356565773487091,-0.02883937582373619,0.4465111792087555,0.3992288112640381,1.0000150203704834,-9.801841735839844
1745734344.1237583,-0.00016464068903587759,-0.028562083840370178,0.44384151697158813,0.6022013425827026,0.6906730532646179,-9.719745635986328
1745734344.1258638,-0.011512679979205132,-0.029525483027100563,0.4437336325645447,0.5815373659133911,1.0552198886871338,-9.687658309936523
1745734344.1281054,-0.003492253366857767,-0.026744743809103966,0.44288191199302673,0.46141576766967773,0.7173739671707153,-9.859270095825195
1745734344.1296673,-0.012958538718521595,-0.031868211925029755,0.44299477338790894,0.5495107769966125,0.8778883814811707,-9.661674499511719
1745734344.1622968,-0.003951341845095158,-0.025474485009908676,0.4429105818271637,0.4943421483039856,0.8177399635314941,-9.621946334838867
1745734344.162357,-0.0223306342959404,-0.026722963899374008,0.44366455078125,0.6250505447387695,0.6854161024093628,-9.797175407409668
1745734344.1633606,-0.005240972153842449,-0.029569003731012344,0.44294148683547974,0.4778171479701996,1.0994651317596436,-9.78182601928711
1745734344.164428,-0.015897464007139206,-0.028292417526245117,0.4424512982368469,0.6269148588180542,0.6569076776504517,-9.81511116027832
1745734344.2109897,-0.005096089094877243,-0.027552688494324684,0.44241270422935486,0.49928173422813416,1.1961606740951538,-9.653525352478027
1745734344.211127,-0.012619231827557087,-0.02660176530480385,0.4401581883430481,0.48356693983078003,0.7796780467033386,-9.778182983398438
1745734344.2111762,-0.0017934829229488969,-0.03374859318137169,0.4369262754917145,0.5673229694366455,1.0183122158050537,-9.690824508666992
1745734344.2135334,0.0030016216915100813,-0.024709904566407204,0.4363619387149811,0.5212673544883728,0.9789384603500366,-9.761529922485352
1745734344.2153687,-0.01128613855689764,-0.029211634770035744,0.43522876501083374,0.496192991733551,0.8212765455245972,-9.815661430358887
1745734344.248752,0.012154923751950264,-0.028307711705565453,0.4356813430786133,0.3815252482891083,0.9684993028640747,-9.653878211975098
1745734344.250862,-0.005508283618837595,-0.023837709799408913,0.4370060861110687,0.7154076099395752,0.7235704064369202,-9.58398151397705
1745734344.2533596,0.0023840568028390408,-0.02847948670387268,0.4379808008670807,0.5095402002334595,0.9692261815071106,-9.858206748962402
1745734344.2910783,-0.0053217168897390366,-0.025399059057235718,0.4288810193538666,0.5587912797927856,0.7191829681396484,-9.743537902832031
1745734344.2936957,-0.004812813829630613,-0.029987771064043045,0.42948874831199646,0.5688048601150513,0.9859603643417358,-9.639261245727539
1745734344.29609,0.0013572096358984709,-0.022449087351560593,0.42956942319869995,0.4941420555114746,0.7248237133026123,-9.830748558044434
1745734344.2971687,-0.005429184529930353,-0.030928844586014748,0.43072766065597534,0.5219315886497498,1.0147958993911743,-9.724580764770508
1745734344.301764,0.008791070431470871,-0.02611229382455349,0.42814213037490845,0.43225574493408203,0.8267306089401245,-9.735151290893555
1745734344.33516,-0.0011565468739718199,-0.027819115668535233,0.4276878237724304,0.5731147527694702,0.8964844942092896,-9.699254989624023
1745734344.3360808,0.0019751950167119503,-0.02685372158885002,0.4250677227973938,0.4123381972312927,1.0114109516143799,-9.747791290283203
1745734344.3381171,0.0021101192105561495,-0.02908387780189514,0.42430123686790466,0.6047302484512329,0.6334262490272522,-9.77043342590332
1745734344.341953,-0.0016192797338590026,-0.028503715991973877,0.4226851463317871,0.5334557294845581,1.0552608966827393,-9.717058181762695
1745734344.3769493,-0.0033579051960259676,-0.024045895785093307,0.4228231906890869,0.46987080574035645,0.6191943883895874,-9.83064079284668
1745734344.3796322,-0.006421603262424469,-0.03252333030104637,0.42359060049057007,0.5205093026161194,0.8559557199478149,-9.635452270507812
1745734344.3808525,0.0016229000175371766,-0.024538157507777214,0.425182044506073,0.5394750833511353,0.8272408246994019,-9.657781600952148
1745734344.3823254,-0.011794108897447586,-0.024792904034256935,0.425708532333374,0.5885465741157532,0.8197925686836243,-9.823602676391602
1745734344.3844144,0.012919853441417217,-0.02772596850991249,0.4237447679042816,0.4244064390659332,1.1098668575286865,-9.768943786621094
1745734344.4250307,-0.0005722718196921051,-0.027858030050992966,0.4211438298225403,0.620064377784729,0.7315463423728943,-9.736024856567383
1745734344.4284256,0.00888856127858162,-0.031211525201797485,0.4105753004550934,0.5755013823509216,0.6484243273735046,-9.772004127502441
1745734344.4324203,0.032295260578393936,-0.02925683557987213,0.4113849103450775,0.3957788050174713,1.0010912418365479,-9.639833450317383
1745734344.4340918,0.007845154963433743,-0.02858826518058777,0.40954798460006714,0.5442683696746826,0.6002823710441589,-9.786478042602539
1745734344.4626186,0.026451027020812035,-0.03417994827032089,0.4076766073703766,0.49253392219543457,0.9144152402877808,-9.76498794555664
1745734344.4648716,0.0200605820864439,-0.025166284292936325,0.4087180495262146,0.5697733163833618,0.7169806361198425,-9.766170501708984
1745734344.4692318,0.010752083733677864,-0.035028211772441864,0.40887895226478577,0.5266197323799133,0.8653773069381714,-9.727425575256348
1745734344.4733646,0.03169330954551697,-0.03295707330107689,0.4104182720184326,0.3968814015388489,0.7812424898147583,-9.787942886352539
1745734344.5081697,0.013268979266285896,-0.027690449729561806,0.40779536962509155,0.5770090222358704,0.7802159190177917,-9.654951095581055
1745734344.51018,0.030328208580613136,-0.02646612748503685,0.41034454107284546,0.34791553020477295,0.8883770108222961,-9.717217445373535
1745734344.513848,0.022642036899924278,-0.03196318447589874,0.40656718611717224,0.5678023099899292,0.7580548524856567,-9.689245223999023
1745734344.517861,0.030931824818253517,-0.03393278270959854,0.408944308757782,0.4774095118045807,0.9209669232368469,-9.842731475830078
1745734344.5488386,0.03134586662054062,-0.02298879064619541,0.4059634208679199,0.49945735931396484,0.7203666567802429,-9.87116813659668
1745734344.5521557,0.01620647683739662,-0.031435731798410416,0.4059855341911316,0.45140719413757324,0.7915712594985962,-9.650442123413086
1745734344.5539129,0.03989794850349426,-0.03292342275381088,0.40651455521583557,0.512382447719574,0.6633232831954956,-9.592792510986328
1745734344.5576599,0.004564548842608929,-0.030352700501680374,0.40645208954811096,0.6116949915885925,0.7297897338867188,-9.889764785766602
1745734344.5600202,0.03024398162961006,-0.027753004804253578,0.4038925766944885,0.3368362784385681,0.7800493240356445,-9.920561790466309
1745734344.593676,0.012949742376804352,-0.03160443529486656,0.40708956122398376,0.5230918526649475,0.6387168765068054,-9.527813911437988
1745734344.5953314,0.017841780558228493,-0.029390405863523483,0.4081640839576721,0.4364748001098633,0.9155845642089844,-9.5451078414917
1745734344.5976043,0.018519418314099312,-0.027435820549726486,0.4074155390262604,0.553848922252655,0.5852652788162231,-9.972617149353027
1745734344.5988812,0.024876568466424942,-0.03175697475671768,0.4062519967556,0.5024219155311584,1.056441068649292,-9.8515043258667
1745734344.6363878,0.029395967721939087,-0.02948647364974022,0.40442124009132385,0.47784891724586487,0.6069390773773193,-9.732851028442383
1745734344.6408343,0.010919335298240185,-0.02895689383149147,0.4058357775211334,0.4981801509857178,0.7699685096740723,-9.85772705078125
1745734344.6419206,0.02846350148320198,-0.024495426565408707,0.40369337797164917,0.3878909945487976,0.7634167671203613,-9.76620864868164
1745734344.6442895,0.0076213739812374115,-0.030175644904375076,0.40520787239074707,0.5372732281684875,0.6235707402229309,-9.639764785766602
1745734344.6811528,0.02944302186369896,-0.025472890585660934,0.40456390380859375,0.39103174209594727,0.9072800874710083,-9.705480575561523
1745734344.6832461,-0.0005707512027584016,-0.023984607309103012,0.40416795015335083,0.5342968702316284,0.5325741767883301,-9.899206161499023
1745734344.6861348,0.024768365547060966,-0.03088303841650486,0.4032896161079407,0.4546460509300232,0.8837922215461731,-9.724197387695312
1745734344.6900833,0.004349322523921728,-0.023154979571700096,0.402025043964386,0.6054064631462097,0.6162501573562622,-9.697479248046875
1745734344.7212143,0.003564591286703944,-0.030061587691307068,0.4028462767601013,0.4199438691139221,0.7945281863212585,-9.801355361938477
1745734344.722608,0.017033424228429794,-0.02889709174633026,0.4026157259941101,0.4407094419002533,0.6709603667259216,-9.815790176391602
1745734344.7243307,-0.007602374069392681,-0.02441086247563362,0.40326565504074097,0.5828968286514282,0.7378109097480774,-9.642242431640625
1745734344.7339036,0.018632404506206512,-0.022910866886377335,0.40394511818885803,0.3730754554271698,0.8273528218269348,-9.744588851928711
1745734344.734001,0.005355834495276213,-0.029137488454580307,0.40256476402282715,0.5566306114196777,0.8305439949035645,-9.751001358032227
1745734344.7644262,0.024474740028381348,-0.028189754113554955,0.402374267578125,0.406821072101593,0.9078806638717651,-9.825181007385254
1745734344.7648778,0.02006755769252777,-0.020972592756152153,0.39982888102531433,0.49677371978759766,0.6669360399246216,-9.802732467651367
1745734344.7663822,0.009543363004922867,-0.016794735565781593,0.3979308307170868,0.5231321454048157,0.6283453106880188,-9.715805053710938
1745734344.7680192,-0.00022511035786010325,-0.01896601915359497,0.3973099887371063,0.35612207651138306,0.8135173916816711,-9.625882148742676
1745734344.8103764,0.007861402817070484,-0.02358384057879448,0.3992616534233093,0.5540873408317566,0.4228164255619049,-9.80344295501709
1745734344.813562,-0.002643294632434845,-0.021439433097839355,0.3978303074836731,0.5505772829055786,0.8735686540603638,-9.851941108703613
1745734344.8228192,0.0020092055201530457,-0.01454232633113861,0.3979264199733734,0.3468589782714844,0.5610889196395874,-9.930737495422363
1745734344.826407,-0.0035059116780757904,-0.02406316250562668,0.39770206809043884,0.44923239946365356,0.6991565823554993,-9.55097770690918
1745734344.8498676,0.00671372190117836,-0.02097330614924431,0.3982829749584198,0.4040207266807556,0.7420631647109985,-9.564367294311523
1745734344.8517559,-0.016472551971673965,-0.01663404330611229,0.39860865473747253,0.5206722021102905,0.48674458265304565,-9.943487167358398
1745734344.8539495,0.009517636150121689,-0.01910105161368847,0.3985413610935211,0.3446900248527527,0.9246162176132202,-9.82518196105957
1745734344.8553927,-0.009977256879210472,-0.018949266523122787,0.397529661655426,0.5146781802177429,0.4490427076816559,-9.642389297485352
1745734344.858543,0.0023195422254502773,-0.019933193922042847,0.3976859450340271,0.4334973692893982,0.9416446685791016,-9.634078979492188
1745734344.900463,-0.0072249011136591434,-0.014613049104809761,0.3980780243873596,0.4575173854827881,0.5950445532798767,-9.916971206665039
1745734344.9006102,-0.005257714539766312,-0.02364340052008629,0.3961494565010071,0.5301798582077026,0.7093304991722107,-9.805790901184082
1745734344.9007452,0.0006768763996660709,-0.015261201187968254,0.39675694704055786,0.4497602581977844,0.7477840185165405,-9.673723220825195
1745734344.9015107,-0.019739855080842972,-0.01980898715555668,0.3956988453865051,0.4506140649318695,0.580847978591919,-9.745107650756836
1745734344.9425297,0.004897556267678738,-0.019721578806638718,0.39481285214424133,0.3223356604576111,0.7993305921554565,-9.748697280883789
1745734344.9426036,-0.013597557321190834,-0.013740579597651958,0.3979714512825012,0.6130269169807434,0.5628861784934998,-9.73712158203125
1745734344.9426625,-0.0034747410099953413,-0.018102070316672325,0.39755913615226746,0.42333778738975525,0.900623619556427,-9.804978370666504
1745734344.9427073,0.006204667035490274,-0.015351948328316212,0.39473286271095276,0.46410316228866577,0.6362236142158508,-9.78229808807373
1745734344.9436576,-0.0038598119281232357,-0.023693740367889404,0.3962821662425995,0.48979154229164124,0.7661417126655579,-9.739455223083496
1745734344.9818957,0.013462880626320839,-0.016313232481479645,0.3965141475200653,0.4298667311668396,0.6772905588150024,-9.841313362121582
1745734344.981942,-0.012747524306178093,-0.019735662266612053,0.39572086930274963,0.49028268456459045,0.5946336984634399,-9.758793830871582
1745734344.9851182,-0.0065363249741494656,-0.019739734008908272,0.3962850570678711,0.4974457621574402,0.8265816569328308,-9.743298530578613
1745734344.987039,0.0034361393190920353,-0.019544964656233788,0.3968938887119293,0.36300596594810486,0.651395320892334,-9.867274284362793
1745734345.0244026,0.002098382916301489,-0.015799066051840782,0.3973332643508911,0.5254510641098022,0.6992781758308411,-9.723433494567871
1745734345.025696,-0.001843606703914702,-0.01403139065951109,0.39638611674308777,0.319663941860199,0.8533945083618164,-9.664321899414062
1745734345.0282183,-0.00357017177157104,-0.021257057785987854,0.3940626382827759,0.5379437804222107,0.3918769955635071,-9.765430450439453
1745734345.0360637,-0.006176573224365711,-0.01924436166882515,0.3952580392360687,0.5201641321182251,0.8749594688415527,-9.798897743225098
1745734345.0361273,-0.011526362970471382,-0.014785143546760082,0.39558422565460205,0.4706882834434509,0.39920908212661743,-9.942667961120605
1745734345.066388,-0.01494759600609541,-0.02014324627816677,0.39522188901901245,0.4249652922153473,0.7511977553367615,-9.621160507202148
1745734345.0697975,-0.0034122623037546873,-0.019955351948738098,0.39652901887893677,0.45243626832962036,0.6747558116912842,-9.574151992797852
1745734345.0732543,-0.024221638217568398,-0.017801500856876373,0.3972182273864746,0.5289802551269531,0.6530905961990356,-9.882688522338867
1745734345.0751069,0.004783863201737404,-0.015599757432937622,0.39635390043258667,0.3629487156867981,0.8678808212280273,-9.860081672668457
1745734345.1112747,-0.013040182180702686,-0.020975612103939056,0.3950193524360657,0.4962477684020996,0.5901567935943604,-9.700662612915039
1745734345.1153915,0.008098175749182701,-0.02049701102077961,0.3940071761608124,0.3589310050010681,0.8878382444381714,-9.665672302246094
1745734345.1166675,-0.010080159641802311,-0.012783071026206017,0.395328164100647,0.46708935499191284,0.5291934013366699,-9.82798957824707
1745734345.1214364,-0.007631228771060705,-0.016426363959908485,0.3911075294017792,0.35092973709106445,0.8351585268974304,-9.722784042358398
1745734345.1549752,-0.026013463735580444,-0.012562692165374756,0.3887433409690857,0.532585620880127,0.6225406527519226,-9.701986312866211
1745734345.15513,-0.022480841726064682,-0.022797489538788795,0.38846880197525024,0.36957797408103943,0.7963860630989075,-9.804937362670898
1745734345.1579738,-0.01813538372516632,-0.018416661769151688,0.3880317211151123,0.5360954999923706,0.5708662867546082,-9.846293449401855
1745734345.1612267,-0.03258156776428223,-0.017065247520804405,0.3880018889904022,0.4750452935695648,0.7652668952941895,-9.73923110961914
1745734345.2030144,-0.017737040296196938,-0.015127167105674744,0.3895666003227234,0.3373172879219055,0.6325842142105103,-9.708024978637695
1745734345.2031038,-0.03150200843811035,-0.024242987856268883,0.38816967606544495,0.5432409644126892,0.6936322450637817,-9.702718734741211
1745734345.2031524,-0.020688120275735855,-0.01397281140089035,0.3911663889884949,0.4088296890258789,0.7888244390487671,-9.833632469177246
1745734345.20537,-0.025035956874489784,-0.016192693263292313,0.3898094594478607,0.5398699641227722,0.6523442268371582,-9.780987739562988
1745734345.2092586,-0.02310814894735813,-0.02132844366133213,0.38934022188186646,0.36255335807800293,0.9011675119400024,-9.7410249710083
1745734345.2385054,-0.014092937111854553,-0.017508406192064285,0.38993343710899353,0.5057420134544373,0.5648466944694519,-9.822494506835938
1745734345.2406871,-0.025473710149526596,-0.016994813457131386,0.3881433606147766,0.4458678364753723,0.9348676800727844,-9.640710830688477
1745734345.243115,-0.014488202519714832,-0.018342575058341026,0.3874671757221222,0.3719842731952667,0.5298894643783569,-9.7991943359375
1745734345.2478116,-0.026651520282030106,-0.024353250861167908,0.3852819800376892,0.5430477261543274,0.7957589626312256,-9.769121170043945
1745734345.281739,-0.014014664106070995,-0.013268639333546162,0.38737064599990845,0.38005775213241577,0.6879603266716003,-9.844025611877441
1745734345.2828178,-0.02896243892610073,-0.015540671534836292,0.38752010464668274,0.4989916682243347,0.6265548467636108,-9.663007736206055
1745734345.287978,-0.01267946232110262,-0.02525964379310608,0.3872918486595154,0.3701905608177185,0.8161243200302124,-9.732632637023926
1745734345.2895384,-0.02652239240705967,-0.019352728500962257,0.3877495229244232,0.5544630289077759,0.5359164476394653,-9.883362770080566
1745734345.324849,-0.013215984217822552,-0.018559427931904793,0.38799235224723816,0.390974223613739,0.9130491018295288,-9.764267921447754
1745734345.326284,-0.022995447739958763,-0.02120675891637802,0.384650319814682,0.41279512643814087,0.5936398506164551,-9.770903587341309
1745734345.3286135,-0.019614748656749725,-0.02646147646009922,0.3866589069366455,0.4878365993499756,0.7699217796325684,-9.706254959106445
1745734345.335563,-0.028152143582701683,-0.027613157406449318,0.3836551308631897,0.4578060507774353,0.799193263053894,-9.802963256835938
1745734345.3652618,-0.0013029832625761628,-0.02167346701025963,0.38139429688453674,0.35570842027664185,0.6914635896682739,-9.805803298950195
1745734345.3686314,-0.020733986049890518,-0.020088311284780502,0.3816864788532257,0.5426154136657715,0.6621428728103638,-9.571642875671387
1745734345.3704264,-0.021458014845848083,-0.027772847563028336,0.38001054525375366,0.3383353352546692,0.736211359500885,-9.763154983520508
1745734345.3721938,-0.019875451922416687,-0.025761082768440247,0.3831099569797516,0.5974929928779602,0.5168517827987671,-9.921649932861328
1745734345.373262,-0.02741176262497902,-0.02386341243982315,0.3804892897605896,0.431797593832016,0.8982611894607544,-9.759477615356445
1745734345.4109087,-0.018684040755033493,-0.022237852215766907,0.38098883628845215,0.36245933175086975,0.536635160446167,-9.685661315917969
1745734345.4143293,-0.024952128529548645,-0.029644396156072617,0.38269156217575073,0.458714097738266,0.7959316372871399,-9.659395217895508
1745734345.420744,-0.017712470144033432,-0.022265255451202393,0.381999671459198,0.4077976644039154,0.706922173500061,-9.863669395446777
1745734345.4207969,-0.023059632629156113,-0.025633445009589195,0.38101792335510254,0.5171152353286743,0.6633306741714478,-9.800027847290039
1745734345.4515588,-0.018833598122000694,-0.024211382493376732,0.38042157888412476,0.2834904193878174,0.8976203799247742,-9.673299789428711
1745734345.4557905,-0.026552880182862282,-0.02477550320327282,0.3798333406448364,0.49263763427734375,0.5053234100341797,-9.729841232299805
1745734345.4650202,-0.017069146037101746,-0.02667778730392456,0.38055938482284546,0.4174993932247162,1.0004360675811768,-9.699002265930176
1745734345.465066,-0.027469009160995483,-0.022631924599409103,0.3780341148376465,0.42054682970046997,0.4826372265815735,-9.941507339477539
1745734345.4651003,-0.025571584701538086,-0.029898619279265404,0.37663620710372925,0.48901423811912537,0.825910210609436,-9.684600830078125
1745734345.499126,0.0002612178213894367,-0.022645175457000732,0.37665534019470215,0.3619142174720764,0.8427462577819824,-9.524515151977539
1745734345.5013502,-0.028007924556732178,-0.018257390707731247,0.37666937708854675,0.5131758451461792,0.5471721887588501,-9.675817489624023
1745734345.5057735,-0.016195148229599,-0.02859318256378174,0.380010187625885,0.34069007635116577,0.8614434003829956,-9.922310829162598
1745734345.5109382,-0.008991546928882599,-0.018136054277420044,0.37620338797569275,0.4309842586517334,0.6542782783508301,-9.859267234802246
1745734345.5415118,-0.022943507879972458,-0.01969476044178009,0.37750691175460815,0.45213156938552856,0.8169978857040405,-9.52669620513916
1745734345.544779,-0.00029813722358085215,-0.018525024875998497,0.37899288535118103,0.3147791922092438,0.6469595432281494,-9.715479850769043
1745734345.5484436,-0.019408954307436943,-0.02357938513159752,0.3786344528198242,0.4873484671115875,0.7810031771659851,-9.845309257507324
1745734345.556229,-0.0008544811862520874,-0.020098736509680748,0.37775102257728577,0.35509663820266724,0.7592673301696777,-9.844059944152832
1745734345.580537,-0.01755950041115284,-0.016591684892773628,0.3772057592868805,0.4661751389503479,0.6412505507469177,-9.674473762512207
1745734345.5841293,-0.016931802034378052,-0.025937283411622047,0.376947820186615,0.29766911268234253,0.7848626971244812,-9.686558723449707
1745734345.5841768,-0.007270426489412785,-0.019776050001382828,0.3753432035446167,0.47846803069114685,0.5192421078681946,-9.78454303741455
1745734345.5864573,-0.025446981191635132,-0.017482366412878036,0.37791016697883606,0.47696956992149353,0.833210825920105,-9.770547866821289
1745734345.5876222,-0.01321199256926775,-0.019535645842552185,0.37774425745010376,0.3308166563510895,0.5819676518440247,-9.84858512878418
1745734345.6299958,-0.022467004135251045,-0.02569722570478916,0.37658604979515076,0.47029250860214233,0.7490122318267822,-9.628618240356445
1745734345.630352,-0.01284313015639782,-0.014066299423575401,0.37925055623054504,0.34270045161247253,0.7943487763404846,-9.69422435760498
1745734345.6362774,-0.024752290919423103,-0.017179477959871292,0.37865152955055237,0.46193116903305054,0.571374237537384,-9.850117683410645
1745734345.638946,-0.0043077627196908,-0.022012826055288315,0.37764930725097656,0.3636387884616852,1.0487812757492065,-9.726222038269043
1745734345.6691222,-0.01685665175318718,-0.019780466333031654,0.3748812675476074,0.4777381420135498,0.5377044677734375,-9.848301887512207
1745734345.673151,-0.009681169874966145,-0.022922860458493233,0.37584033608436584,0.3520016372203827,0.9851759076118469,-9.748052597045898
1745734345.6768045,-0.012489556334912777,-0.015328234061598778,0.3755027949810028,0.34371331334114075,0.5260365605354309,-9.738597869873047
1745734345.6803858,-0.015512575395405293,-0.024948492646217346,0.37556177377700806,0.47239986062049866,0.7171744108200073,-9.629120826721191
1745734345.7120357,-0.03377322107553482,-0.01929936185479164,0.3754923343658447,0.4224824011325836,0.6450333595275879,-9.756247520446777
1745734345.7140703,0.0016537964111194015,-0.02215307205915451,0.37527430057525635,0.38837379217147827,0.794365406036377,-9.695745468139648
1745734345.7156568,-0.03146373853087425,-0.0171151515096426,0.3755955100059509,0.5699857473373413,0.6212851405143738,-9.83205795288086
1745734345.7233021,-0.0138887669891119,-0.020393211394548416,0.37519028782844543,0.24223825335502625,0.8349321484565735,-9.886273384094238
1745734345.7233603,-0.016921114176511765,-0.018982723355293274,0.3772842288017273,0.4009609818458557,0.5531388521194458,-9.64054012298584
1745734345.7545636,-0.024027813225984573,-0.02020111121237278,0.37790003418922424,0.49425482749938965,0.8718886375427246,-9.514164924621582
1745734345.756489,-0.015019327402114868,-0.01561586745083332,0.37619107961654663,0.4188198447227478,0.6225928068161011,-9.993876457214355
1745734345.7596183,-0.01916385069489479,-0.023512134328484535,0.37555575370788574,0.4523394703865051,0.9176395535469055,-9.900031089782715
1745734345.7645235,-0.003143566194921732,-0.019068721681833267,0.3751731812953949,0.34527572989463806,0.7375986576080322,-9.678913116455078
1745734345.8024523,-0.016269449144601822,-0.020835261791944504,0.37612152099609375,0.5063039064407349,0.7698936462402344,-9.57972240447998
1745734345.807616,-0.011333943344652653,-0.023079317063093185,0.37475648522377014,0.30182474851608276,0.8272857666015625,-9.883109092712402
1745734345.8124537,-0.009872828610241413,-0.020761851221323013,0.3747166693210602,0.4824279248714447,0.5239275097846985,-9.870723724365234
1745734345.8139253,-0.014746101573109627,-0.016931913793087006,0.37582850456237793,0.41672483086586,0.9551551938056946,-9.595226287841797
1745734345.8182614,-0.01064966432750225,-0.020062517374753952,0.3744809329509735,0.38024479150772095,0.5284014940261841,-9.715388298034668
1745734345.8411589,-0.0141697246581316,-0.026131927967071533,0.37485599517822266,0.4110206961631775,0.8073596954345703,-9.813705444335938
1745734345.844331,-0.012539384886622429,-0.024767301976680756,0.37402111291885376,0.4406108260154724,0.929282546043396,-9.811924934387207
1745734345.8459733,-0.02180429920554161,-0.01697723940014839,0.37355589866638184,0.4501771032810211,0.5029324889183044,-9.990384101867676
1745734345.8470612,-0.018101390451192856,-0.02296665869653225,0.3758666515350342,0.3291643261909485,0.855238139629364,-9.626617431640625
1745734345.8919175,-0.011276733130216599,-0.02206370234489441,0.3784477114677429,0.4213813841342926,0.6147081255912781,-9.51679801940918
1745734345.8919609,-0.02729211188852787,-0.021728355437517166,0.376619815826416,0.46123331785202026,0.7752301692962646,-9.803071975708008
1745734345.892,-0.003901708172634244,-0.019853277131915092,0.37713971734046936,0.3006228804588318,0.8220666646957397,-9.959722518920898
1745734345.8920348,-0.024554645642638206,-0.024425264447927475,0.3761868476867676,0.4539567828178406,0.6307783722877502,-9.749353408813477
1745734345.9323857,-0.0008160680299624801,-0.022030223160982132,0.3749157786369324,0.2658610939979553,0.9279704093933105,-9.608657836914062
1745734345.9324305,-0.028373846784234047,-0.017269760370254517,0.3744064271450043,0.42007312178611755,0.5726194977760315,-9.728930473327637
1745734345.9340153,-0.019762437790632248,-0.027049383148550987,0.37225767970085144,0.3949010372161865,0.7161761522293091,-9.827398300170898
1745734345.9365716,-0.022587643936276436,-0.01910189352929592,0.37522560358047485,0.5224716067314148,0.6354631781578064,-9.799107551574707
1745734345.9400954,-0.04106292128562927,-0.019324293360114098,0.37580546736717224,0.41721194982528687,0.7284544110298157,-9.767043113708496
1745734345.9692307,-0.013800482265651226,-0.0197382103651762,0.37456804513931274,0.30308598279953003,0.7192579507827759,-9.691247940063477
1745734345.9721274,-0.03295236453413963,-0.024358857423067093,0.37590503692626953,0.5351353883743286,0.7940943837165833,-9.67638874053955
1745734345.9739609,-0.01776968315243721,-0.01980774663388729,0.3774871528148651,0.321230947971344,0.866463840007782,-9.88274097442627
1745734345.9782171,-0.01870487630367279,-0.01702204719185829,0.3758310377597809,0.43282777070999146,0.7438668608665466,-9.76490306854248
1745734346.0131166,-0.013744218274950981,-0.02567189559340477,0.3753920793533325,0.2949734926223755,0.9808217287063599,-9.627500534057617
1745734346.0155435,-0.004159212578088045,-0.020187603309750557,0.3752254843711853,0.43440598249435425,0.6370642185211182,-9.776907920837402
1745734346.0255601,-0.019276119768619537,-0.01834336295723915,0.37374624609947205,0.39230915904045105,0.9391414523124695,-9.786012649536133
1745734346.0256946,-0.007518881466239691,-0.020798156037926674,0.3736433684825897,0.36285537481307983,0.5197917222976685,-9.808716773986816
1745734346.028288,-0.02491743303835392,-0.02314612828195095,0.37382110953330994,0.5659210085868835,0.7790971994400024,-9.599151611328125
1745734346.0607755,-0.024643247947096825,-0.028164615854620934,0.3724789023399353,0.48915785551071167,0.5527673959732056,-9.804375648498535
1745734346.0661016,-0.0033189188688993454,-0.024921953678131104,0.37491244077682495,0.3952452540397644,0.9087523221969604,-9.997735977172852
1745734346.0678823,-0.023583149537444115,-0.012172805145382881,0.37271249294281006,0.4589480459690094,0.5208584070205688,-9.823094367980957
1745734346.0704854,-0.012251722626388073,-0.021184708923101425,0.37540435791015625,0.27667832374572754,0.9033888578414917,-9.403696060180664
1745734346.10378,-0.013300113379955292,-0.025075316429138184,0.37535762786865234,0.47331786155700684,0.6063112020492554,-9.692489624023438
1745734346.1090636,-0.02256878837943077,-0.020575743168592453,0.3747248947620392,0.44853001832962036,0.8633819818496704,-10.085927963256836
1745734346.1091528,0.002818430308252573,-0.013755741529166698,0.37442106008529663,0.2997610569000244,0.7717198133468628,-9.856406211853027
1745734346.1092048,-0.025796687230467796,-0.02564399316906929,0.373719185590744,0.4237588942050934,0.7654477953910828,-9.453006744384766
1745734346.1420434,0.005855376832187176,-0.023752156645059586,0.37355837225914,0.35416707396507263,0.831976592540741,-9.709773063659668
1745734346.144814,-0.0191420279443264,-0.015992024913430214,0.37348154187202454,0.47670406103134155,0.7096876502037048,-9.981073379516602
1745734346.150513,-0.004423969890922308,-0.022261260077357292,0.37198010087013245,0.26240843534469604,0.7852452993392944,-9.812633514404297
1745734346.1544201,-0.004821121692657471,-0.02088860236108303,0.37396037578582764,0.5164614915847778,0.6551436185836792,-9.521873474121094
1745734346.1574297,-0.016396472230553627,-0.022476939484477043,0.3754109740257263,0.40383824706077576,0.8371235132217407,-9.748666763305664
1745734346.1867492,0.0017734963912516832,-0.018513398244976997,0.37452369928359985,0.3378285765647888,0.5683146715164185,-9.98902416229248
1745734346.1878893,-0.011671672575175762,-0.024778638035058975,0.37547823786735535,0.4561888575553894,0.7846657037734985,-9.68490982055664
1745734346.1897418,-0.02197418548166752,-0.024075523018836975,0.37009432911872864,0.5847706198692322,0.5301452279090881,-9.886578559875488
1745734346.1915584,-0.02536187134683132,-0.019835829734802246,0.372243732213974,0.38681185245513916,0.8715860247612,-9.754594802856445
1745734346.2331576,-0.021778568625450134,-0.014443566091358662,0.3716898560523987,0.3179090619087219,0.5774838328361511,-9.696081161499023
1745734346.2371674,-0.0244663767516613,-0.02766101062297821,0.3721622824668884,0.42475706338882446,0.9008826017379761,-9.605015754699707
1745734346.2428114,-0.01602109894156456,-0.017385689541697502,0.37428712844848633,0.38689902424812317,0.7364762425422668,-9.857307434082031
1745734346.2444336,-0.01921030879020691,-0.02266678959131241,0.3712117373943329,0.49339351058006287,0.7431364059448242,-9.847195625305176
1745734346.2483692,-0.013899946585297585,-0.020668555051088333,0.3722577691078186,0.24816302955150604,0.8668503761291504,-9.759363174438477
1745734346.2703316,-0.020612120628356934,-0.02236146852374077,0.3708288073539734,0.4702915549278259,0.5026763677597046,-9.68172550201416
1745734346.27314,-0.013121305033564568,-0.02315208688378334,0.3718106746673584,0.44381117820739746,0.9562586545944214,-9.647924423217773
1745734346.2755177,-0.029926186427474022,-0.02160467766225338,0.36829596757888794,0.4609411656856537,0.5091680288314819,-9.988751411437988
1745734346.27712,-0.02266724966466427,-0.026842638850212097,0.3682199716567993,0.4632965624332428,0.8885853886604309,-9.818754196166992
1745734346.31471,-0.018757790327072144,-0.01963554508984089,0.3710234761238098,0.39952054619789124,0.6838980913162231,-9.625639915466309
1745734346.3178506,-0.030584391206502914,-0.02415459044277668,0.36994653940200806,0.39907947182655334,0.7671521902084351,-9.647119522094727
1745734346.3206203,-0.0074204346165061,-0.025252044200897217,0.3724744915962219,0.3254832327365875,0.7785487174987793,-9.887594223022461
1745734346.3237479,-0.028057586401700974,-0.02197485789656639,0.37074723839759827,0.5380843877792358,0.7105315923690796,-9.780942916870117
1745734346.358593,-0.0022667909506708384,-0.024249551817774773,0.37200838327407837,0.34738925099372864,0.9680861234664917,-9.65032958984375
1745734346.3618655,-0.021299276500940323,-0.023999622091650963,0.3699997067451477,0.39452964067459106,0.6332703828811646,-9.817590713500977
1745734346.3653412,-0.012872169725596905,-0.02543208934366703,0.37047073245048523,0.35890236496925354,0.8582080602645874,-9.79981517791748
1745734346.3683896,-0.007934672757983208,-0.018799949437379837,0.3683645725250244,0.44298654794692993,0.6545373201370239,-9.627878189086914
1745734346.3699865,-0.031151091679930687,-0.02506529726088047,0.36848896741867065,0.3926638066768646,0.730316162109375,-9.73938274383545
1745734346.4021316,-0.010596539825201035,-0.026139911264181137,0.3709180951118469,0.38414978981018066,0.6973792314529419,-9.895984649658203
1745734346.4088147,-0.011636033654212952,-0.01985611952841282,0.3661707043647766,0.2539815306663513,0.8177509307861328,-9.909339904785156
1745734346.4125934,-0.015942873433232307,-0.028735702857375145,0.36726099252700806,0.5032292604446411,0.6267987489700317,-9.678669929504395
1745734346.4178243,-0.009008410386741161,-0.02681785263121128,0.36465921998023987,0.29253441095352173,0.9617716073989868,-9.605842590332031
1745734346.4433875,-0.01696593128144741,-0.018749233335256577,0.36539512872695923,0.37107935547828674,0.4544268548488617,-9.88451862335205
1745734346.447176,-0.011467164382338524,-0.025685813277959824,0.36613696813583374,0.30777961015701294,0.8220836520195007,-9.761962890625
1745734346.4499192,-0.015407346189022064,-0.019034234806895256,0.3673628568649292,0.3702144920825958,0.6366461515426636,-9.621500968933105
1745734346.4538434,-0.018914638087153435,-0.029737209901213646,0.36779171228408813,0.45948266983032227,0.7461754083633423,-9.68507194519043
1745734346.4861891,-0.010608788579702377,-0.020454848185181618,0.3664078116416931,0.2637503743171692,0.8584136962890625,-9.976263046264648
1745734346.4915664,-0.028954679146409035,-0.023473970592021942,0.36401721835136414,0.3980230689048767,0.5370806455612183,-9.8095121383667
1745734346.4941933,-0.006645870860666037,-0.02456834353506565,0.36398354172706604,0.33733147382736206,0.9613940119743347,-9.398723602294922
1745734346.4983072,-0.040878139436244965,-0.02118702605366707,0.36042362451553345,0.4168512225151062,0.49128931760787964,-9.80556583404541
1745734346.5015626,-0.018368959426879883,-0.030133694410324097,0.3629271388053894,0.37647876143455505,0.9268488883972168,-9.992380142211914
1745734346.5309262,-0.022320475429296494,-0.015759296715259552,0.3601114749908447,0.431264728307724,0.6902126669883728,-9.728525161743164
1745734346.5370786,-0.027669643983244896,-0.02441750094294548,0.36122384667396545,0.3471958041191101,0.9081052541732788,-9.472273826599121
1745734346.5394986,-0.007107451558113098,-0.02612324431538582,0.36119815707206726,0.3245546817779541,0.7751200199127197,-9.791769027709961
1745734346.5429635,-0.006508049555122852,-0.01934211328625679,0.3436857759952545,0.0953216701745987,0.763353705406189,-9.860944747924805
1745734346.5727448,0.003867580322548747,-0.03288143128156662,0.33958566188812256,0.10880092531442642,1.0770033597946167,-9.654576301574707
1745734346.5772889,0.01834789849817753,-0.025965074077248573,0.3316519856452942,-0.006820230279117823,0.794764518737793,-9.695161819458008
1745734346.5814373,0.01513676904141903,-0.026100987568497658,0.3288211524486542,0.15405121445655823,0.8702012896537781,-9.741232872009277
1745734346.5828865,0.010359136387705803,-0.02656586840748787,0.3264954686164856,-0.13815271854400635,0.6423802971839905,-9.859495162963867
1745734346.616888,0.03172342851758003,-0.02412210963666439,0.33005523681640625,0.22684764862060547,0.2304418385028839,-9.584413528442383
1745734346.619765,-0.00651509827002883,-0.02061336301267147,0.3273157477378845,0.27349504828453064,0.8574636578559875,-9.590561866760254
1745734346.6234212,-0.012030540034174919,-0.03134091943502426,0.3271147906780243,0.3234702944755554,-0.11872828006744385,-10.23131275177002
1745734346.6279974,-0.013550562784075737,-0.03131140023469925,0.3236057758331299,0.38987261056900024,0.8045845031738281,-9.693346977233887
1745734346.6313133,-0.0501854307949543,-0.02105664275586605,0.3223361372947693,0.0926528126001358,0.3556479513645172,-9.65771770477295
1745734346.6596742,-0.0536508671939373,-0.03708796575665474,0.31913694739341736,0.3083168864250183,0.6881628632545471,-9.576518058776855
1745734346.6618397,-0.04219832271337509,-0.033663757145404816,0.31528526544570923,0.22848494350910187,0.9283338785171509,-9.89921760559082
1745734346.66561,-0.053131479769945145,-0.028055626899003983,0.31406331062316895,0.2575654685497284,0.8583957552909851,-10.010149002075195
1745734346.6697397,-0.02583456039428711,-0.03627936169505119,0.3097064793109894,0.04924288019537926,1.2543365955352783,-9.566455841064453
1745734346.7034311,-0.0029995113145560026,-0.033939458429813385,0.3089507520198822,0.39436855912208557,0.9288802146911621,-9.511373519897461
1745734346.7074966,0.015618301928043365,-0.037984006106853485,0.30906742811203003,0.3822409510612488,1.4430934190750122,-9.961835861206055
1745734346.7103515,0.035652704536914825,-0.03690468147397041,0.30693358182907104,0.12473708391189575,0.7199570536613464,-10.287066459655762
1745734346.713448,0.060021765530109406,-0.03944211080670357,0.3062978684902191,0.2716672420501709,0.9994029998779297,-9.417317390441895
1745734346.749454,0.04779006168246269,-0.028547236695885658,0.3046203851699829,0.10117659717798233,0.7969053983688354,-9.328439712524414
1745734346.7494884,0.043816857039928436,-0.0454954132437706,0.3027075529098511,0.3343101143836975,0.4802781939506531,-9.934822082519531
1745734346.7511764,0.04545492306351662,-0.03849911689758301,0.29888445138931274,0.16426026821136475,0.8346697092056274,-10.165765762329102
1745734346.7524135,0.021117232739925385,-0.03143329173326492,0.29173174500465393,0.24852490425109863,0.27787965536117554,-9.717910766601562
1745734346.7544634,0.021962063387036324,-0.032484155148267746,0.28977036476135254,0.31028446555137634,0.9612805247306824,-10.346868515014648
1745734346.79031,0.023137662559747696,-0.03625212237238884,0.2840474247932434,0.06804782152175903,1.0858352184295654,-9.85595989227295
1745734346.792848,0.05032077431678772,-0.03746144473552704,0.2828233540058136,0.22911123931407928,0.7126474380493164,-9.259286880493164
1745734346.7938442,0.020409664139151573,-0.0376560278236866,0.2796284258365631,0.29274559020996094,0.8876422643661499,-9.593173027038574
1745734346.7979178,0.041753850877285004,-0.03751583769917488,0.2790941298007965,0.2650390863418579,0.5311082601547241,-10.318221092224121
1745734346.8312638,0.026968294754624367,-0.03885272145271301,0.27950340509414673,0.4425734877586365,0.6681035161018372,-9.920309066772461
1745734346.8373682,0.0414007194340229,-0.03253962844610214,0.2779826521873474,0.18231336772441864,0.7150145769119263,-9.41431713104248
1745734346.84059,0.01701522246003151,-0.04281225427985191,0.2800331711769104,0.30565395951271057,0.5251178741455078,-9.627857208251953
1745734346.8407109,0.04499826952815056,-0.042163144797086716,0.27592533826828003,0.21434810757637024,0.8278519511222839,-10.101640701293945
1745734346.8407662,0.02939247526228428,-0.029996629804372787,0.2768421173095703,0.19364818930625916,0.5852826237678528,-10.009206771850586
1745734346.8718433,0.03437452390789986,-0.03717794269323349,0.2747323513031006,-0.03404748812317848,0.681908905506134,-9.45006275177002
1745734346.8728857,0.04239040985703468,-0.032355714589357376,0.2749135196208954,0.1082223430275917,0.4749324917793274,-9.378897666931152
1745734346.873967,0.0169820673763752,-0.027998726814985275,0.27996140718460083,0.44095373153686523,0.48190420866012573,-9.852692604064941
1745734346.8854797,0.0322897769510746,-0.026077423244714737,0.28246989846229553,0.3556654751300812,0.5853286385536194,-10.191349029541016
1745734346.9175792,-0.00797777809202671,-0.006173336412757635,0.26455020904541016,0.11797609180212021,0.5144159197807312,-9.955609321594238
1745734346.919049,-0.03797965496778488,-0.007596689276397228,0.26073378324508667,-0.02604394592344761,0.8351531028747559,-9.408941268920898
1745734346.9211454,0.012639922089874744,-0.018636811524629593,0.25789111852645874,0.018715381622314453,0.9328605532646179,-9.409643173217773
1745734346.9233537,0.007782709784805775,-0.0152656901627779,0.2562389373779297,0.33107608556747437,1.0501112937927246,-10.02640438079834
1745734346.9616282,0.04312707483768463,-0.01106282975524664,0.2530166506767273,0.08239466696977615,0.9578830599784851,-10.243497848510742
1745734346.9621317,0.06807660311460495,-0.00699636060744524,0.2531248927116394,0.3226437270641327,0.6797499656677246,-9.384012222290039
1745734346.9656274,0.05809503793716431,-0.017927180975675583,0.2533574402332306,0.22502927482128143,0.7550809979438782,-9.417070388793945
1745734346.9766076,0.06962866336107254,-0.015767689794301987,0.2530127167701721,0.3480023741722107,0.3188096880912781,-10.070091247558594
1745734347.0135012,0.05663257837295532,-0.010587619617581367,0.25464722514152527,0.3638678193092346,0.48776358366012573,-10.074869155883789
1745734347.013545,0.04564365744590759,-0.004382853861898184,0.251972496509552,0.2342357635498047,0.3880012631416321,-9.488485336303711
1745734347.0139077,0.018429061397910118,-0.018386127427220345,0.25197845697402954,0.42657893896102905,0.06849895417690277,-9.506075859069824
1745734347.0162616,0.011889765970408916,-0.014029269106686115,0.2530761659145355,0.3944530785083771,0.6066811680793762,-9.914192199707031
1745734347.0201364,-0.016877880319952965,-0.004324804991483688,0.251659095287323,0.5530846118927002,0.04692981392145157,-10.195131301879883
1745734347.0496786,-0.003701684530824423,-0.015461837872862816,0.25525879859924316,0.37548333406448364,0.7159814238548279,-9.578913688659668
1745734347.0541718,-0.00914759375154972,-0.011516457423567772,0.2563398778438568,0.3882319927215576,0.3940447270870209,-9.56993293762207
1745734347.0592852,-0.006868100259453058,-0.014119068160653114,0.2590290904045105,0.30469831824302673,0.9209827184677124,-9.842848777770996
1745734347.063843,0.019998613744974136,-0.005111050792038441,0.25985047221183777,0.22805924713611603,0.723155677318573,-9.994742393493652
1745734347.0883226,0.032349057495594025,-0.013590538874268532,0.2600446045398712,0.4105736315250397,0.963047206401825,-9.518885612487793
1745734347.0905805,0.04920632764697075,-0.007385761942714453,0.2583313584327698,0.18124935030937195,0.8940335512161255,-9.638054847717285
1745734347.0918646,0.05720025300979614,-0.009628340601921082,0.25808650255203247,0.32130318880081177,0.6035619974136353,-9.965657234191895
1745734347.0946252,0.05771325156092644,-0.011737394146621227,0.25773653388023376,0.35059261322021484,0.7468578219413757,-9.73768138885498
1745734347.133604,0.008107265457510948,-0.003757144557312131,0.2612474858760834,0.36633047461509705,0.5365186929702759,-9.597187995910645
1745734347.1501663,0.012656073085963726,-0.009369284845888615,0.262273371219635,0.26570987701416016,0.6681548953056335,-9.793478965759277
1745734347.1502395,0.030335774645209312,-0.0019524453673511744,0.26269203424453735,0.27264079451560974,0.5495213270187378,-9.939300537109375
1745734347.1503081,0.012557310052216053,-0.006630768533796072,0.26287221908569336,0.2774834632873535,0.6509002447128296,-9.722296714782715
1745734347.150362,0.043754804879426956,-0.004790563602000475,0.2643876075744629,0.3137299418449402,0.5933257937431335,-9.552953720092773
1745734347.1758406,0.03172548487782478,-0.0076724872924387455,0.2634710669517517,0.5306433439254761,0.6973411440849304,-9.725282669067383
1745734347.178272,0.02573183737695217,-0.0035093456972390413,0.2611180543899536,0.1367722451686859,0.5753105878829956,-10.181646347045898
1745734347.1805377,0.04412885010242462,-0.007544210646301508,0.26042312383651733,0.3965200185775757,0.32740625739097595,-9.6779203414917
1745734347.1843567,0.02251097373664379,-0.005625826772302389,0.2623380124568939,0.23692059516906738,0.7966549396514893,-9.244325637817383
1745734347.2206054,0.022478926926851273,-0.006882322486490011,0.2593352496623993,0.31472015380859375,0.1426306664943695,-9.963530540466309
1745734347.222882,0.028255974873900414,-0.011430761776864529,0.2638196349143982,0.38327521085739136,0.7445536255836487,-10.065630912780762
1745734347.226778,0.022704025730490685,0.005007307045161724,0.26098179817199707,0.1492360532283783,0.3014008700847626,-9.753127098083496
1745734347.2283664,0.020966727286577225,-0.007815787568688393,0.26033544540405273,0.34705573320388794,0.5388056635856628,-9.212018966674805
1745734347.2609377,0.028397485613822937,-0.007090443279594183,0.26391783356666565,0.28394120931625366,0.43023473024368286,-9.772981643676758
1745734347.264337,0.014944849535822868,-0.0025079501792788506,0.2635778784751892,0.38529103994369507,0.4051077961921692,-10.281704902648926
1745734347.2678154,0.050458721816539764,-0.030191410332918167,0.1432189643383026,0.36878806352615356,0.14125701785087585,-8.92357349395752
1745734347.2722402,0.05695056915283203,-0.026743311434984207,0.13911880552768707,0.2871329188346863,0.06009820103645325,-10.17355728149414
1745734347.2749493,0.019506460055708885,-0.01805189996957779,0.13200223445892334,0.163517564535141,0.24263353645801544,-10.64063549041748
1745734347.3130467,0.04534473270177841,-0.009312484413385391,0.13116420805454254,-0.010691012255847454,0.2260236293077469,-9.416196823120117
1745734347.3157928,0.023593202233314514,-0.01992531679570675,0.1298389583826065,0.11867586523294449,0.2456883192062378,-8.853811264038086
1745734347.317667,0.04286360740661621,-0.024985935539007187,0.13176752626895905,0.07908116281032562,0.6700096726417542,-10.07746410369873
1745734347.3191783,0.066658154129982,-0.009797705337405205,0.1276582032442093,0.2619871199131012,0.4908030033111572,-10.67434310913086
1745734347.3479617,0.08072881400585175,-0.008127215318381786,0.12365946918725967,0.21827669441699982,0.8799586296081543,-9.528505325317383
1745734347.3512678,0.09603540599346161,-0.01925962045788765,0.11837472021579742,0.21367546916007996,0.590583086013794,-9.075746536254883
1745734347.353902,0.08024592697620392,-0.03298477828502655,0.11267440021038055,0.4728981554508209,0.4774635434150696,-9.984397888183594
1745734347.3552816,0.11232711374759674,-0.012726925313472748,0.10657600313425064,0.28781238198280334,0.5327833890914917,-10.591064453125
1745734347.356363,0.07513489574193954,-0.01596767269074917,0.10267946869134903,0.3480588495731354,0.2569817900657654,-9.745770454406738
1745734347.3929324,0.09811443090438843,-0.022235864773392677,0.10099299252033234,0.12694990634918213,0.5171147584915161,-8.973946571350098
1745734347.3958607,0.07564523071050644,-0.025357063859701157,0.09857320040464401,0.34851202368736267,0.3236355185508728,-9.842118263244629
1745734347.3968954,0.09627162665128708,-0.024602647870779037,0.09410237520933151,0.15445643663406372,0.5871332287788391,-10.579771995544434
1745734347.4079256,0.11197350174188614,-0.014101570472121239,0.0886927992105484,0.18132619559764862,0.30703994631767273,-9.799052238464355
1745734347.4362965,0.11404538154602051,-0.019739165902137756,0.09068960696458817,0.1442836970090866,0.3826245665550232,-9.070351600646973
1745734347.4397733,0.11972860991954803,-0.025197554379701614,0.09191863238811493,-0.21034149825572968,0.21659865975379944,-9.706274032592773
1745734347.444088,0.10660402476787567,0.00026514753699302673,0.09793295711278915,-0.13961026072502136,-0.3181907534599304,-10.245376586914062
1745734347.4465272,0.09450480341911316,-0.006934850011020899,0.11148271709680557,0.512194037437439,-0.06887521594762802,-9.292255401611328
1745734347.4494312,0.07030238211154938,-0.006632380187511444,0.11588146537542343,0.11809785664081573,-0.4334477484226227,-9.981573104858398
1745734347.4775252,0.16785025596618652,0.003931548912078142,0.14319342374801636,0.3214586079120636,0.7754603624343872,-10.431089401245117
1745734347.4798474,0.15251995623111725,-0.006044887006282806,0.1394011229276657,0.10152067989110947,0.7734813690185547,-8.909399032592773
1745734347.4837945,0.1709516942501068,-0.008716033771634102,0.14316746592521667,0.36330971121788025,-0.24885718524456024,-9.185393333435059
1745734347.486109,0.10976667702198029,-0.009675167500972748,0.14803862571716309,0.41024789214134216,-0.055031754076480865,-10.373592376708984
1745734347.522361,0.10895080864429474,0.01149989478290081,0.15060386061668396,0.1795549839735031,-0.743443489074707,-10.324110984802246
1745734347.5241907,0.05749189853668213,0.012869198806583881,0.15750166773796082,0.42870086431503296,-0.20385316014289856,-8.868550300598145
1745734347.527138,0.011220566928386688,-0.006637366954237223,0.15766292810440063,0.29628056287765503,-0.35641008615493774,-9.310094833374023
1745734347.5603225,0.02210930548608303,0.005752064287662506,0.16222894191741943,0.5964662432670593,-0.2197527438402176,-10.525320053100586
1745734347.5632076,-0.0029610649216920137,0.020823616534471512,0.1644730269908905,0.19953760504722595,0.3659517467021942,-10.38284969329834
1745734347.5655935,0.0015004724264144897,0.013092374429106712,0.16746321320533752,0.0729275569319725,-0.20213916897773743,-9.169820785522461
1745734347.568265,0.013738876208662987,0.004548125434666872,0.174231618642807,0.22953183948993683,0.6065418124198914,-8.903491020202637
1745734347.5708039,0.015661638230085373,0.021191760897636414,0.1749609410762787,0.04533131420612335,0.36676543951034546,-10.461934089660645
1745734347.60872,0.037429653108119965,0.017128463834524155,0.17700445652008057,0.33470284938812256,0.5444923639297485,-10.317285537719727
1745734347.61054,0.05000842735171318,0.020213613286614418,0.1753365695476532,0.3157614767551422,0.6478075981140137,-9.20803165435791
1745734347.613559,-0.06457061320543289,0.0039989398792386055,0.1696854531764984,0.24649040400981903,0.4695777893066406,-10.163923263549805
1745734347.6239805,-0.036962807178497314,0.0035741892643272877,0.16884386539459229,0.05271726846694946,0.4470433294773102,-9.462533950805664
1745734347.6512415,-0.023574890568852425,-0.012357601895928383,0.1696249097585678,0.32484903931617737,0.4795242249965668,-9.240114212036133
1745734347.6512852,0.007206133101135492,-0.006039985455572605,0.17220741510391235,0.1353253722190857,0.7454878091812134,-10.070792198181152
1745734347.6541286,0.025223011150956154,0.0027321972884237766,0.17157301306724548,0.21452128887176514,0.402864933013916,-10.285618782043457
1745734347.66048,0.06132488325238228,-0.00811854936182499,0.16924841701984406,0.2184310257434845,0.7878273129463196,-9.275947570800781
1745734347.691841,0.0564175546169281,-0.006429108791053295,0.1691780388355255,0.2642695903778076,0.1898415982723236,-9.39650821685791
1745734347.6928577,0.0565933994948864,-0.016876492649316788,0.16656160354614258,0.2875366806983948,0.34126001596450806,-10.168673515319824
1745734347.6948617,0.05073963478207588,-0.00711843091994524,0.16154909133911133,0.14869360625743866,-0.11425437033176422,-10.25617504119873
1745734347.697152,0.021486347541213036,-0.010154614225029945,0.1591985523700714,0.3628275394439697,-0.19864198565483093,-9.325307846069336
1745734347.7336977,0.006463667843490839,-0.01504254899919033,0.15820574760437012,0.15250363945960999,-0.0998709574341774,-9.36559772491455
1745734347.7370102,-0.02685663476586342,-0.021544991061091423,0.16160506010055542,0.3141370415687561,-0.39399296045303345,-10.184957504272461
1745734347.741708,-0.01657440885901451,-0.013568622060120106,0.16216643154621124,0.2578018009662628,0.12203182280063629,-10.084190368652344
1745734347.7468107,-0.03271337226033211,-0.007948333397507668,0.16148489713668823,0.19063207507133484,-0.06813100725412369,-9.541858673095703
1745734347.7489808,-0.03170360252261162,-0.025429721921682358,0.1632629632949829,0.09192629158496857,0.28918856382369995,-9.393266677856445
1745734347.7801497,-0.012976931408047676,-0.018000667914748192,0.1601836383342743,0.16287864744663239,0.2650076746940613,-10.003250122070312
1745734347.7833922,-0.01630260981619358,-0.013962335884571075,0.16026633977890015,0.26747798919677734,0.4518156051635742,-10.100997924804688
1745734347.788116,0.004899801220744848,-0.019413361325860023,0.15680091083049774,0.12135283648967743,0.44335755705833435,-9.623624801635742
1745734347.7896936,0.005261419806629419,-0.016477245837450027,0.15417787432670593,0.3165501654148102,0.3641282320022583,-9.420489311218262
1745734347.8204818,0.019765496253967285,-0.02293199673295021,0.1553421914577484,0.34364083409309387,0.5157856941223145,-9.796430587768555
1745734347.821648,0.01180251780897379,-0.0169563926756382,0.1522148996591568,0.4611872732639313,0.06837737560272217,-10.2147855758667
1745734347.8313105,0.009677253663539886,-0.01435746718198061,0.13950321078300476,0.32531386613845825,-0.2715076506137848,-10.082124710083008
1745734347.8314593,0.008920254185795784,-0.021767059341073036,0.13917624950408936,0.19063368439674377,0.15345735847949982,-9.616323471069336
1745734347.8315358,-0.013903317973017693,-0.002995878690853715,0.14365695416927338,0.1633375883102417,-0.39980968832969666,-9.561971664428711
1745734347.8627431,-0.03240669518709183,-0.012858937494456768,0.15421730279922485,0.8875738978385925,-0.2429095208644867,-9.542254447937012
1745734347.8637936,-0.027721578255295753,-0.005338349845260382,0.16082598268985748,0.627556324005127,0.014521842822432518,-10.359899520874023
1745734347.8662322,-0.07537388056516647,-0.00320543278940022,0.16816194355487823,0.8935708999633789,-0.3013472855091095,-9.9923734664917
1745734347.8734972,-0.04573938623070717,-0.007251976989209652,0.1762479841709137,0.9960759878158569,0.37568485736846924,-9.163778305053711
1745734347.9063072,-0.0888146385550499,-0.0038925795815885067,0.17771907150745392,0.9576290249824524,0.38406574726104736,-9.864221572875977
1745734347.91045,-0.057483039796352386,-0.020652713254094124,0.179560124874115,0.745354950428009,0.7077124714851379,-10.517087936401367
1745734347.9155,-0.023050399497151375,0.0055112033151090145,0.17997218668460846,0.5340835452079773,1.0716851949691772,-9.827577590942383
1745734347.919436,-0.003680641995742917,0.00711532449349761,0.18383051455020905,0.36142805218696594,0.9875842928886414,-9.001744270324707
1745734347.9235694,0.05199253559112549,-0.007505059242248535,0.18504461646080017,0.3599664568901062,1.2554516792297363,-9.415820121765137
1745734347.9520214,0.0662623792886734,0.002966162282973528,0.19038359820842743,0.5986132621765137,0.6538900136947632,-10.581918716430664
1745734347.954526,0.1466718316078186,0.019915355369448662,0.1939862221479416,0.3604394793510437,0.8745128512382507,-10.012011528015137
1745734347.9574049,0.09973818808794022,0.01783989742398262,0.19648967683315277,0.3789466321468353,-0.060699690133333206,-9.162595748901367
1745734347.9955635,-0.05659017711877823,0.026216864585876465,0.2781902551651001,0.49928316473960876,0.5155737400054932,-9.611129760742188
1745734347.997413,-0.06911812722682953,0.027202600613236427,0.28200262784957886,0.6464400291442871,0.2412383258342743,-9.8070068359375
1745734347.9994462,-0.03615311533212662,0.027612779289484024,0.28373125195503235,0.4205645024776459,0.7128149271011353,-9.820291519165039
1745734348.0021315,-0.04394540935754776,0.02853221632540226,0.281588613986969,0.47816428542137146,0.3163633942604065,-9.74885082244873
1745734348.0051079,-0.02342144586145878,0.02101750299334526,0.28244099020957947,0.4097217619419098,0.5570718050003052,-9.582625389099121
1745734348.0397565,-0.022265365347266197,0.027299124747514725,0.2835845351219177,0.5390805006027222,0.19744908809661865,-9.741484642028809
1745734348.0398397,-0.038468822836875916,0.02053038775920868,0.28470245003700256,0.5946939587593079,0.1569715142250061,-9.894058227539062
1745734348.039886,-0.032435689121484756,0.022279508411884308,0.2867836058139801,0.4654756486415863,-0.051284391433000565,-9.88079833984375
1745734348.0431867,-0.06278037279844284,0.023206111043691635,0.29109618067741394,0.6791096925735474,-0.21575334668159485,-9.550500869750977
1745734348.0777574,-0.06834214925765991,0.023446884006261826,0.29596415162086487,0.5127132534980774,0.0750729888677597,-9.608477592468262
1745734348.0813398,-0.09483419358730316,0.018208738416433334,0.2963683307170868,0.6863441467285156,-0.06520763039588928,-9.869256973266602
1745734348.0827649,-0.0939365029335022,0.015253789722919464,0.29709213972091675,0.5489494800567627,0.36232393980026245,-9.91505241394043
1745734348.0828137,-0.09411131590604782,0.024310482665896416,0.29712820053100586,0.5042838454246521,0.24856773018836975,-9.756593704223633
1745734348.0842996,-0.10701732337474823,0.012926170602440834,0.2962656617164612,0.47344326972961426,0.5441268682479858,-9.516406059265137
1745734348.1231122,-0.07389958947896957,0.01124703697860241,0.2965349555015564,0.49615925550460815,0.37850865721702576,-9.727392196655273
1745734348.1276886,-0.08681265264749527,0.013572705909609795,0.2997761368751526,0.6838186979293823,0.5816857814788818,-9.871726036071777
1745734348.1340559,-0.055387865751981735,0.016515932977199554,0.3015831410884857,0.36843156814575195,0.5173776745796204,-9.838592529296875
1745734348.1352608,-0.06046029180288315,0.010656602680683136,0.30411744117736816,0.59806889295578,0.33463749289512634,-9.513948440551758
1745734348.1649184,-0.04342883452773094,0.00676293671131134,0.3080306649208069,0.6212853193283081,0.5753770470619202,-9.599553108215332
1745734348.16867,-0.04319265857338905,0.011987727135419846,0.3073093891143799,0.612196147441864,0.2346796989440918,-10.127079010009766
1745734348.171342,-0.04006675258278847,0.0047964840196073055,0.30807510018348694,0.5288653373718262,0.5071086287498474,-9.793924331665039
1745734348.1750572,-0.09557455778121948,-0.003273668233305216,0.3211149275302887,0.5322881937026978,0.5330129861831665,-9.629501342773438
1745734348.212835,-0.06801004707813263,-0.006742177065461874,0.32007792592048645,0.42972588539123535,0.5663281083106995,-9.812092781066895
1745734348.2164116,-0.0782504677772522,-0.006054664961993694,0.31686681509017944,0.6102867722511292,0.5073840022087097,-9.814064025878906
1745734348.217918,-0.05448964238166809,-0.0023046962451189756,0.3201809525489807,0.4816765785217285,0.6585056185722351,-9.702695846557617
1745734348.2196171,-0.07627247273921967,-0.009380292147397995,0.31817469000816345,0.6164528727531433,0.25599026679992676,-9.718122482299805
1745734348.2491176,-0.05562542751431465,-0.01497475616633892,0.320745050907135,0.5554100275039673,0.5111258029937744,-9.746973037719727
1745734348.2523437,-0.0695982426404953,-0.004896967671811581,0.32358384132385254,0.6412002444267273,0.1891905665397644,-9.866569519042969
1745734348.255174,-0.07334695011377335,-0.010708022862672806,0.3237624168395996,0.49465474486351013,0.4239024221897125,-9.724321365356445
1745734348.258342,-0.0705752894282341,-0.015703201293945312,0.3250325620174408,0.4410587251186371,0.239944726228714,-9.738713264465332
1745734348.2601802,-0.08104397356510162,-0.012443231418728828,0.32143959403038025,0.9705622792243958,0.4857921600341797,-9.598848342895508
1745734348.2971284,-0.05670822784304619,-0.03414496034383774,0.3161000907421112,0.9171665906906128,1.0911928415298462,-10.0999174118042
1745734348.2979848,-0.0010794401168823242,-0.014535583555698395,0.2979499399662018,-0.700710654258728,1.497585654258728,-10.669973373413086
1745734348.3005154,0.01716054417192936,-0.03841020166873932,0.2779826521873474,-0.08186408132314682,1.246462345123291,-8.268568992614746
1745734348.302022,0.04752717167139053,-0.030303936451673508,0.26758313179016113,0.011581933125853539,0.16580462455749512,-9.448894500732422
1745734348.3375337,-0.012476913630962372,-0.06916995346546173,0.2564612030982971,-1.1618802547454834,0.14483705163002014,-11.361533164978027
1745734348.3426716,0.124489426612854,-0.012976977042853832,0.04390822350978851,0.3274826407432556,0.5717208385467529,-10.929800033569336
1745734348.3468726,0.09166982769966125,-0.017547305673360825,0.04131344333291054,0.9755252003669739,-0.0850037932395935,-10.354413032531738
1745734348.3515718,0.09790098667144775,-0.026818111538887024,0.039427321404218674,0.3154304027557373,0.30640044808387756,-9.353503227233887
1745734348.3541493,0.06878072023391724,-0.037958141416311264,0.03617853298783302,0.19692721962928772,-0.04021389037370682,-9.590808868408203
1745734348.3817482,0.055854856967926025,-0.025827348232269287,0.035767607390880585,0.12831996381282806,0.3583863377571106,-10.222932815551758
1745734348.3833287,0.08146481961011887,-0.019525879994034767,0.033253006637096405,0.01999264396727085,0.36102792620658875,-10.01489543914795
1745734348.3849726,0.06482189148664474,-0.03175041824579239,0.02666603960096836,-0.02555512823164463,0.5102262496948242,-9.267278671264648
1745734348.3933256,0.10128945112228394,-0.022271575406193733,0.024684544652700424,-0.25448673963546753,0.5763407349586487,-9.437273979187012
1745734348.4232879,0.08818680793046951,-0.018164927139878273,0.022770116105675697,0.21479257941246033,-0.028248991817235947,-10.020801544189453
1745734348.4261582,0.10137607902288437,-0.021034913137555122,0.023241780698299408,0.39998525381088257,0.40717029571533203,-10.109594345092773
1745734348.4299865,0.09061925858259201,-0.02121521718800068,0.023237336426973343,0.5007191896438599,-0.24347087740898132,-10.122127532958984
1745734348.432792,0.09423431009054184,-0.021600335836410522,0.025535976514220238,0.18772418797016144,0.3708401620388031,-9.560638427734375
1745734348.4359996,0.06760311126708984,-0.02002974972128868,0.023277822881937027,0.2994604706764221,-0.15466336905956268,-9.502927780151367
1745734348.4679537,0.05300455540418625,-0.025628263130784035,0.02013128437101841,0.5199124217033386,0.2425551861524582,-9.849004745483398
1745734348.4709973,0.05935874581336975,-0.022706162184476852,0.012425164692103863,0.16917163133621216,0.43555158376693726,-10.262723922729492
1745734348.4722064,0.03706539794802666,-0.022915005683898926,0.0058788880705833435,0.0935620367527008,0.3116416335105896,-9.840812683105469
1745734348.4753816,0.07757614552974701,-0.02299516275525093,0.0035407631658017635,0.13040460646152496,0.7179629802703857,-9.271234512329102
1745734348.5168123,0.06303541362285614,-0.02875196561217308,0.0010837310692295432,0.36236777901649475,0.26815828680992126,-9.921186447143555
1745734348.5193138,0.09797384589910507,-0.028078457340598106,0.0019019996980205178,0.20122933387756348,0.6286624670028687,-10.34919548034668
1745734348.521609,0.12669667601585388,-0.013411343097686768,0.0013423316413536668,0.24716854095458984,0.1369299441576004,-9.804506301879883
1745734348.5245655,0.11200757324695587,-0.021719319745898247,0.0027301828376948833,0.21947701275348663,0.4480367600917816,-9.101293563842773
1745734348.553113,0.06120440363883972,-0.020453065633773804,-0.020984288305044174,0.28877711296081543,0.39003467559814453,-9.55066204071045
1745734348.5581622,0.11254473030567169,-0.012614184990525246,-0.022211041301488876,0.13664093613624573,0.4376052916049957,-10.34990119934082
1745734348.5628765,0.10122282803058624,-0.004485853016376495,-0.02776719257235527,0.25817498564720154,0.4118901789188385,-10.018442153930664
1745734348.5629401,0.13169485330581665,-0.009241404943168163,-0.03129734843969345,0.09252390265464783,0.38444823026657104,-9.324758529663086
1745734348.5648458,0.13277168571949005,-0.014695495367050171,-0.03356272727251053,0.2864914536476135,0.14025947451591492,-9.430824279785156
1745734348.5955837,0.1104852557182312,-0.01418090146034956,-0.03774541988968849,0.27192285656929016,0.2532657980918884,-10.177968978881836
1745734348.5997987,0.13113051652908325,0.0009423907613381743,-0.041263315826654434,0.44378000497817993,-0.18500640988349915,-10.193835258483887
1745734348.602757,0.09916248172521591,-0.012110123410820961,-0.04338777810335159,0.4430822432041168,0.19106511771678925,-9.403658866882324
1745734348.6103814,0.10058076679706573,-0.013431211933493614,-0.04653704911470413,0.39067310094833374,-0.21849370002746582,-9.693740844726562
1745734348.6398532,0.09017553180456161,-0.013875596225261688,-0.0463159941136837,0.36257997155189514,0.022569689899683,-10.129775047302246
1745734348.6446424,0.10208231210708618,-0.007168300449848175,-0.04856133833527565,0.1303594410419464,0.1238284483551979,-9.94575309753418
1745734348.64897,0.08943448215723038,-0.006432435009628534,-0.04837832227349281,0.22824148833751678,-0.06670578569173813,-9.422082901000977
1745734348.6507852,0.10532873868942261,-0.01254736166447401,-0.0516359880566597,0.03006036952137947,0.3791748881340027,-9.496131896972656
1745734348.6821487,0.11068203300237656,-0.0051021696999669075,-0.05829896405339241,0.1814572811126709,0.0385342612862587,-10.070284843444824
1745734348.6838555,0.10388799011707306,-0.0002890811883844435,-0.06136304885149002,0.34351760149002075,0.26661399006843567,-9.848106384277344
1745734348.6858387,0.1499650478363037,0.03419782966375351,-0.1617199182510376,0.5514048337936401,-0.4281112551689148,-9.343490600585938
1745734348.6872587,0.13828234374523163,0.029940897598862648,-0.16173416376113892,0.3518262505531311,-0.15282098948955536,-9.702585220336914
1745734348.689041,0.12271995842456818,0.0374111533164978,-0.16632339358329773,0.7044495344161987,-0.7911244630813599,-10.254119873046875
1745734348.725187,0.13260726630687714,0.035907767713069916,-0.1645497977733612,0.48900657892227173,-0.04008055478334427,-9.852340698242188
1745734348.7266138,0.11917237192392349,0.029834920540452003,-0.16290278732776642,0.5947089195251465,-0.5074275732040405,-9.541150093078613
1745734348.7334027,0.12370628118515015,0.025937682017683983,-0.16632361710071564,0.5107247233390808,-0.09026941657066345,-9.645337104797363
1745734348.7363884,0.12792843580245972,0.03447280079126358,-0.16811814904212952,0.36516597867012024,-0.16891679167747498,-9.969877243041992
1745734348.7709804,0.1300031989812851,0.030031925067305565,-0.17288804054260254,0.5302561521530151,-0.11490057408809662,-9.680377006530762
1745734348.771044,0.1375797986984253,0.030733555555343628,-0.17909756302833557,0.29606300592422485,0.11875273287296295,-9.507542610168457
1745734348.772602,0.13028866052627563,0.030071387067437172,-0.18143150210380554,0.5989128351211548,-0.37866371870040894,-9.792864799499512
1745734348.7843175,0.1551714837551117,0.02942369319498539,-0.18370842933654785,0.43412265181541443,0.18197554349899292,-9.846882820129395
1745734348.7844014,0.12860719859600067,0.028249943628907204,-0.18705616891384125,0.6499150991439819,-0.5535908341407776,-9.892480850219727
1745734348.8122554,0.1571863740682602,0.02633460983633995,-0.18932612240314484,0.5801160335540771,-0.11616091430187225,-9.58916187286377
1745734348.8153193,0.13636822998523712,0.030463453382253647,-0.18792816996574402,0.4948039948940277,-0.5244684219360352,-9.6529541015625
1745734348.8175404,0.13182464241981506,0.023389052599668503,-0.19092538952827454,0.5843092203140259,-0.363046795129776,-9.690386772155762
1745734348.8253324,0.1367642730474472,0.026725774630904198,-0.19274374842643738,0.39177206158638,-0.268881618976593,-9.895105361938477
1745734348.8561816,0.12312795966863632,0.024016570299863815,-0.19436463713645935,0.5210353136062622,-0.4654887318611145,-9.823904037475586
1745734348.856475,0.1398892104625702,0.024846460670232773,-0.19933287799358368,0.29779353737831116,-0.03155119717121124,-9.605457305908203
1745734348.8565226,0.1130976527929306,0.022518400102853775,-0.20259730517864227,0.5026946067810059,-0.7114467620849609,-9.746996879577637
1745734348.8581657,0.13631536066532135,0.015514892525970936,-0.20407429337501526,0.4890238344669342,-0.13265320658683777,-9.734356880187988
1745734348.8595655,0.11498423665761948,0.026131629943847656,-0.20428046584129333,0.5434309244155884,-0.6146268248558044,-9.934293746948242
1745734348.8994632,0.12425567954778671,0.010279854759573936,-0.2187548130750656,0.4506312906742096,-0.41967344284057617,-9.662139892578125
1745734348.9037511,0.11120501905679703,0.005971978418529034,-0.22181320190429688,0.6538611650466919,-0.5190742611885071,-9.584993362426758
1745734348.9069648,0.14022138714790344,0.008737431839108467,-0.21987155079841614,0.42833423614501953,-0.2526708245277405,-9.825740814208984
1745734348.9107554,0.10714652389287949,0.00358803803101182,-0.22135786712169647,0.5670005083084106,-0.5983657836914062,-10.010468482971191
1745734348.9389522,0.1450498253107071,0.007098181638866663,-0.22413821518421173,0.4204392433166504,-0.2697678208351135,-9.599193572998047
1745734348.942373,0.11150238662958145,0.005811047274619341,-0.22563719749450684,0.4939289093017578,-0.6583378314971924,-9.555874824523926
1745734348.9444976,0.1195208802819252,-0.000705032842233777,-0.22535304725170135,0.46088045835494995,-0.29526302218437195,-9.678678512573242
1745734348.9470391,0.11184978485107422,0.003945931326597929,-0.22959360480308533,0.46205392479896545,-0.6524538397789001,-10.006784439086914
1745734348.9843514,0.1041005477309227,0.003229482565075159,-0.23008516430854797,0.5225633978843689,-0.4347551465034485,-9.711322784423828
1745734348.9878664,0.11576704680919647,0.003891806583851576,-0.232754185795784,0.4607689380645752,-0.3948137164115906,-9.447495460510254
1745734348.9909563,0.0893847793340683,-0.006645378656685352,-0.23391398787498474,0.6660454273223877,-0.6319001913070679,-9.835186958312988
1745734348.993977,0.12541016936302185,-0.0006064035114832222,-0.23312261700630188,0.46176496148109436,-0.2881484627723694,-10.078935623168945
1745734349.0261464,0.09698008000850677,-0.0028376360423862934,-0.23499807715415955,0.49063223600387573,-0.6431010365486145,-9.834329605102539
1745734349.0293403,0.11935456842184067,-0.0027439140249043703,-0.23217840492725372,0.4323817193508148,-0.35306039452552795,-9.277029037475586
1745734349.0330389,0.11919371783733368,-0.00114781956654042,-0.23597607016563416,0.4741683900356293,-0.3883731961250305,-9.654317855834961
1745734349.0414953,-0.03158029541373253,-0.028858670964837074,-0.1340169459581375,0.12511955201625824,-0.48552900552749634,-10.112641334533691
1745734349.0698886,0.012992401607334614,-0.04599250108003616,-0.12581996619701385,-0.03739459812641144,-0.061142146587371826,-8.43937873840332
1745734349.073997,0.011971874162554741,-0.05889623612165451,-0.11837984621524811,0.14319923520088196,-0.46008363366127014,-9.406816482543945
1745734349.0871603,0.04361962154507637,-0.04791731387376785,-0.11074472963809967,0.06698627769947052,-0.1710730940103531,-10.901789665222168
1745734349.087224,0.06611005961894989,-0.027477150782942772,-0.10709019005298615,0.14181694388389587,-0.4254946708679199,-9.988799095153809
1745734349.0872848,0.051004745066165924,-0.04850845783948898,-0.10458836704492569,0.46967029571533203,-0.5345042943954468,-8.755346298217773
1745734349.1147137,0.05733003094792366,-0.05602600425481796,-0.10136917978525162,0.35609322786331177,-0.43685775995254517,-9.7749605178833
1745734349.117822,0.0132551658898592,-0.052095718681812286,-0.10191180557012558,0.552337110042572,-1.1216943264007568,-11.025954246520996
1745734349.1249835,0.022330936044454575,-0.03895190730690956,-0.09626699984073639,0.31932660937309265,-0.8091655969619751,-9.919279098510742
1745734349.1295152,-0.03003312274813652,-0.04337441548705101,-0.08944281190633774,0.21084895730018616,-1.2049041986465454,-8.731751441955566
1745734349.1574247,-0.05580458790063858,-0.06248897314071655,-0.08492995798587799,0.09627912193536758,-0.7023013234138489,-9.523953437805176
1745734349.1575007,-0.04034433513879776,-0.04080720990896225,-0.0832231417298317,0.2504180073738098,-0.593317985534668,-10.651124000549316
1745734349.1575482,-0.04455489665269852,-0.03544869273900986,-0.08047682046890259,0.19394895434379578,-0.2764957547187805,-10.114110946655273
1745734349.1594653,-0.016328662633895874,-0.045207902789115906,-0.07782769948244095,-0.028307413682341576,-0.26135683059692383,-9.116680145263672
1745734349.1628537,-0.017902305349707603,-0.04542766138911247,-0.07439376413822174,0.19196109473705292,-0.5669777393341064,-9.507009506225586
1745734349.1997318,0.002708581043407321,-0.0353536494076252,-0.06742865592241287,0.009654313325881958,-0.37672242522239685,-10.285329818725586
1745734349.2010622,-0.002526217605918646,-0.027589892968535423,-0.061556827276945114,0.24964101612567902,-0.816245436668396,-10.036778450012207
1745734349.2057433,-0.003742235479876399,-0.0373048335313797,-0.058072179555892944,0.21526093780994415,-0.48391443490982056,-9.2892484664917
1745734349.2076058,-0.015264595858752728,-0.02964693307876587,-0.05536166578531265,0.3059101700782776,-0.7575644254684448,-9.616632461547852
1745734349.25083,-0.048061303794384,-0.03636602312326431,-0.05996821075677872,0.3010314106941223,-0.515923798084259,-10.330240249633789
1745734349.2508929,-0.03764377161860466,-0.028470326215028763,-0.06122026592493057,0.5330595970153809,-0.5754567980766296,-10.036992073059082
1745734349.250933,-0.06605877727270126,-0.047385405749082565,-0.06491883844137192,0.7522085905075073,-0.4497903883457184,-9.638370513916016
1745734349.2551162,-0.016951370984315872,-0.021401967853307724,-0.08052857965230942,0.46481695771217346,-1.031712293624878,-9.705585479736328
1745734349.2599988,-0.010738915763795376,-0.030847877264022827,-0.08711083978414536,0.6315425634384155,-0.5919171571731567,-10.509012222290039
1745734349.283397,-0.06392961740493774,-0.007853019051253796,-0.0916370302438736,0.6389821767807007,-1.444427251815796,-10.476129531860352
1745734349.2854853,-0.062012623995542526,-0.011547853238880634,-0.09100861847400665,0.2864329218864441,-0.545509397983551,-9.01608657836914
1745734349.2873676,-0.1331464797258377,-0.025255849584937096,-0.09586065262556076,0.43809622526168823,-1.3819191455841064,-9.382978439331055
1745734349.2908123,-0.1072772964835167,-0.017358722165226936,-0.09090012311935425,0.36472639441490173,-0.3277145028114319,-10.391100883483887
1745734349.3304558,-0.11708945035934448,-0.0009234067983925343,-0.095949187874794,0.057558823376894,-0.18579819798469543,-10.3417329788208
1745734349.3327417,-0.07013092935085297,-0.008764520287513733,-0.10125774145126343,0.18154758214950562,0.3332865238189697,-9.083410263061523
1745734349.3366237,-0.02793390117585659,-0.01349722035229206,-0.10501132905483246,0.06972353160381317,0.5210556387901306,-9.263677597045898
1745734349.338861,-0.00724755460396409,-0.013506288640201092,-0.11073701083660126,0.2664841115474701,-0.08441092073917389,-10.598978042602539
1745734349.371093,0.055493760854005814,0.001291500753723085,-0.11173492670059204,0.20618195831775665,0.12912507355213165,-10.233762741088867
1745734349.3743327,0.03011680580675602,0.003611326916143298,-0.11196067184209824,0.32861560583114624,-0.8616663813591003,-9.300641059875488
1745734349.3775673,0.04206060618162155,-0.010156245902180672,-0.10387074947357178,0.35914450883865356,-0.40905123949050903,-9.080278396606445
1745734349.3806777,0.011360087431967258,-0.003748272079974413,-0.10731279850006104,0.5836192965507507,-1.0523030757904053,-10.478201866149902
1745734349.4160511,0.0060769557021558285,0.014143094420433044,-0.13062919676303864,0.3035650849342346,-0.27272123098373413,-10.04126262664795
1745734349.416195,0.030297312885522842,0.011356005445122719,-0.13182400166988373,0.2136266529560089,-0.13412149250507355,-9.599241256713867
1745734349.4195225,0.03822650387883186,0.01325632818043232,-0.12994499504566193,0.15660881996154785,-0.4952999949455261,-9.483721733093262
1745734349.4232428,0.018248511478304863,0.002191989915445447,-0.13042742013931274,0.44249629974365234,-0.5452131628990173,-9.778488159179688
1745734349.427691,0.023807954043149948,0.011785844340920448,-0.12823405861854553,0.38771212100982666,-0.7564605474472046,-10.060419082641602
1745734349.4557362,-0.012252706103026867,0.009069734252989292,-0.12918570637702942,0.4841689467430115,-0.8102481961250305,-9.789453506469727
1745734349.4585562,-0.00278447475284338,0.0057040126994252205,-0.13086596131324768,0.3543199896812439,-0.552540123462677,-9.471830368041992
1745734349.460665,-0.04854719713330269,0.0033410738687962294,-0.12959986925125122,0.4303670823574066,-0.8600925207138062,-9.80603313446045
1745734349.4619966,-0.03198461979627609,-0.00090548035223037,-0.12957854568958282,0.29791584610939026,-0.3736720085144043,-9.981786727905273
1745734349.4992754,-0.04745417833328247,0.01109655387699604,-0.13308441638946533,0.32829803228378296,-0.5032691955566406,-9.736726760864258
1745734349.5024014,-0.04235805943608284,-0.0028347820043563843,-0.13422328233718872,0.36752620339393616,-0.24472805857658386,-9.458818435668945
1745734349.5049706,-0.00819062627851963,0.007910887710750103,-0.13543012738227844,0.3023739457130432,-0.0018153429264202714,-9.637428283691406
1745734349.512702,-0.022026533260941505,0.0033460569102317095,-0.13824617862701416,0.6402449011802673,-0.2734740376472473,-9.921576499938965
1745734349.5435493,0.0408225953578949,0.009506922215223312,-0.13951128721237183,0.4066580832004547,-0.12874145805835724,-9.834931373596191
1745734349.5479915,0.007021540310233831,0.004586313851177692,-0.13781239092350006,0.5828080177307129,-0.48994725942611694,-9.57225227355957
1745734349.5520375,0.03921003267168999,0.006590663455426693,-0.13772915303707123,0.3898696303367615,-0.31942954659461975,-9.588857650756836
1745734349.5557451,0.015528002753853798,0.01047967467457056,-0.14046886563301086,0.4046385884284973,-0.6138328313827515,-9.851139068603516
1745734349.584355,0.010605782270431519,0.006846937350928783,-0.14302928745746613,0.45496758818626404,-0.37413346767425537,-9.763410568237305
1745734349.589775,0.011903660371899605,0.014738214202225208,-0.15044167637825012,0.36958932876586914,-0.4699268341064453,-9.628349304199219
1745734349.591624,-0.016650695353746414,0.0036232166457921267,-0.15040163695812225,0.6292122602462769,-0.6063118577003479,-9.64323616027832
1745734349.5942879,0.005298690404742956,0.003699433756992221,-0.1515175700187683,0.4468027949333191,-0.43179354071617126,-9.964098930358887
1745734349.599199,0.004189151339232922,0.0003846297040581703,-0.1607995331287384,0.6493798494338989,-0.5617834329605103,-9.864908218383789
1745734349.629409,0.036072738468647,0.006459043361246586,-0.1607014238834381,0.4419395923614502,-0.34324172139167786,-10.118757247924805
1745734349.6326818,-0.009172970429062843,0.00628317054361105,-0.16187337040901184,0.6956194043159485,-0.688791811466217,-9.666646003723145
1745734349.637619,0.02088317647576332,0.00965079665184021,-0.1647045612335205,0.5511230826377869,-0.2911093831062317,-9.304564476013184
1745734349.6403208,0.0005516099045053124,0.00013891057460568845,-0.16835740208625793,0.8449562191963196,-0.5367058515548706,-9.790502548217773
1745734349.6700833,0.028406042605638504,0.0068793087266385555,-0.1688956767320633,0.652013897895813,-0.1901780515909195,-10.252825736999512
1745734349.6802738,0.03341710567474365,0.014304916374385357,-0.1708402931690216,0.3875929117202759,-0.3789915144443512,-9.806814193725586
1745734349.680334,0.029895326122641563,0.010054660961031914,-0.1687035858631134,0.4747621417045593,-0.5185025334358215,-9.145625114440918
1745734349.6803746,0.052668578922748566,0.012738046236336231,-0.17227540910243988,0.3837931156158447,-0.3236156105995178,-9.522703170776367
1745734349.680411,0.02838059328496456,0.008445309475064278,-0.17768554389476776,0.4936479926109314,-0.517825722694397,-10.271574020385742
1745734349.7148166,0.05484340339899063,0.01860945299267769,-0.1801280975341797,0.444063663482666,-0.23242399096488953,-9.853381156921387
1745734349.7196696,0.031270258128643036,0.02481282316148281,-0.18520845472812653,0.7054949998855591,-0.6803663372993469,-9.287599563598633
1745734349.7243369,0.03112700581550598,0.003939664922654629,-0.18490538001060486,0.609600841999054,-0.438311904668808,-9.665060997009277
1745734349.727502,0.012826027348637581,0.00956743024289608,-0.18545952439308167,0.7538182139396667,-0.8561519384384155,-10.28538990020752
1745734349.7564588,0.027344847097992897,0.0156585443764925,-0.1856919825077057,0.7088201642036438,-0.5257558822631836,-9.965335845947266
1745734349.7586093,0.05292273685336113,-0.0013661537086591125,-0.22704878449440002,0.4014795422554016,-0.4178386628627777,-9.650925636291504
1745734349.759725,0.06685267388820648,0.005782918073236942,-0.22539465129375458,0.5615264177322388,-0.6766372919082642,-9.87545108795166
1745734349.763486,0.05670856684446335,0.0026772122364491224,-0.2279638946056366,0.485074907541275,-0.3277168869972229,-9.818902969360352
1745734349.7730367,0.07259519398212433,0.0025059871841222048,-0.2269035130739212,0.5257444381713867,-0.6402475833892822,-9.630117416381836
1745734349.8059335,0.0459432415664196,-0.0014730782713741064,-0.23293419182300568,0.5744020938873291,-0.5133200883865356,-9.630903244018555
1745734349.8147523,0.06103307008743286,0.0012130069080740213,-0.23320746421813965,0.5254324674606323,-0.6916605234146118,-9.891993522644043
1745734349.816885,0.043189361691474915,0.004437773488461971,-0.2328517735004425,0.6198872327804565,-0.6156498789787292,-9.823351860046387
1745734349.8213453,0.040121834725141525,-0.0030531652737408876,-0.23318322002887726,0.5185815095901489,-0.5950959324836731,-9.704034805297852
1745734349.8448277,0.04273117333650589,-0.0053906613029539585,-0.23519468307495117,0.6521824598312378,-0.8077800869941711,-9.78071403503418
1745734349.847417,0.04093151167035103,-0.00523802125826478,-0.23361113667488098,0.4171596169471741,-0.23926441371440887,-9.879181861877441
1745734349.8500955,0.05267935246229172,0.0003515187418088317,-0.2353985756635666,0.4986442029476166,-0.7474035024642944,-9.784515380859375
1745734349.853676,0.055884458124637604,-0.0051475465297698975,-0.23782727122306824,0.5229027271270752,-0.14563651382923126,-9.487600326538086
1745734349.8858416,0.06606500595808029,-0.009289674460887909,-0.23782673478126526,0.5656633377075195,-0.7044505476951599,-9.818697929382324
1745734349.8868065,0.058694563806056976,-0.008399257436394691,-0.23775319755077362,0.5632849931716919,-0.552279531955719,-9.995125770568848
1745734349.8878465,0.06852152198553085,-0.009235375560820103,-0.23968279361724854,0.4045557975769043,-0.6844083070755005,-9.866523742675781
1745734349.8949785,0.050593502819538116,-0.008704086765646935,-0.23840484023094177,0.6469742059707642,-0.8235651254653931,-9.498634338378906
1745734349.8950584,0.045937515795230865,-0.01020764373242855,-0.23976770043373108,0.4808884561061859,-0.4276758134365082,-9.60131549835205
1745734349.9378934,0.04184132069349289,-0.01138261053711176,-0.2409980297088623,0.6405676007270813,-0.8909395337104797,-10.026378631591797
1745734349.9379394,0.04041571170091629,-0.013810539618134499,-0.2430579662322998,0.5004189610481262,-0.351456880569458,-9.817083358764648
1745734349.940741,0.03606312721967697,-0.0062820762395858765,-0.24538317322731018,0.5452044606208801,-0.8486992120742798,-9.599997520446777
1745734349.9461331,0.03180261328816414,-0.011359812691807747,-0.245787113904953,0.481665700674057,-0.5337899327278137,-9.54469108581543
1745734349.9742143,0.031555164605379105,-0.01645446941256523,-0.2496033012866974,0.6204550266265869,-0.6824749708175659,-9.894304275512695
1745734349.977266,0.04859549179673195,-0.019012413918972015,-0.25162070989608765,0.39391857385635376,-0.4346655011177063,-9.736316680908203
1745734349.9795454,0.03130314126610756,-0.015832990407943726,-0.2539663016796112,0.6288820505142212,-0.7756627798080444,-9.72159194946289
1745734349.982257,0.04708609730005264,-0.018192676827311516,-0.2557409703731537,0.39714163541793823,-0.3396225869655609,-9.784335136413574
1745734350.0167446,0.037847816944122314,-0.022025499492883682,-0.25436314940452576,0.512481689453125,-0.9071342349052429,-9.826614379882812
1745734350.0207715,0.041071467101573944,-0.01799272932112217,-0.2560003399848938,0.5773744583129883,-0.49455684423446655,-9.558348655700684
1745734350.02393,0.0443105548620224,-0.01606624387204647,-0.2532876431941986,0.4189232289791107,-0.8120139837265015,-9.829323768615723
1745734350.0307143,0.035011570900678635,-0.022101202979683876,-0.25356021523475647,0.5718332529067993,-0.5873614549636841,-9.768136978149414
1745734350.0307467,0.050873447209596634,-0.01540220994502306,-0.2554329037666321,0.464857816696167,-0.5231055021286011,-9.74073314666748
1745734350.0581808,0.02745232544839382,-0.017395153641700745,-0.2562912106513977,0.5925272703170776,-0.7504158020019531,-9.797382354736328
1745734350.0627148,0.05852317810058594,-0.021813800558447838,-0.25858908891677856,0.42244473099708557,-0.3761640191078186,-9.758811950683594
1745734350.0744886,0.03122333623468876,-0.018415678292512894,-0.25935015082359314,0.5072779059410095,-0.7868306040763855,-9.758499145507812
1745734350.0745463,0.045410484075546265,-0.01770530454814434,-0.26025742292404175,0.47782039642333984,-0.5576197504997253,-9.60716438293457
1745734350.110827,0.04409590736031532,-0.014202287420630455,-0.2609124779701233,0.47292381525039673,-0.6848503351211548,-9.73121166229248
1745734350.1109161,0.037758324295282364,-0.021758098155260086,-0.25865644216537476,0.6262948513031006,-0.6549257040023804,-9.855083465576172
1745734350.1109922,0.04034624248743057,-0.02484844997525215,-0.26833564043045044,0.42131122946739197,-0.5766962766647339,-9.615565299987793
1745734350.1119194,0.04628894478082657,-0.016941413283348083,-0.26765620708465576,0.5051692724227905,-0.8748811483383179,-9.751371383666992
1745734350.113193,0.03764994069933891,-0.025772958993911743,-0.2682628631591797,0.4171438217163086,-0.39865341782569885,-9.802896499633789
1745734350.146066,0.05783277750015259,-0.019720852375030518,-0.27038806676864624,0.5027204751968384,-0.8365018963813782,-9.833090782165527
1745734350.1472495,0.0367458313703537,-0.025450367480516434,-0.2684563994407654,0.5346785187721252,-0.5996962189674377,-9.713966369628906
1745734350.150529,0.05388683080673218,-0.024718018248677254,-0.2710207998752594,0.4086616635322571,-0.7791064977645874,-9.838727951049805
1745734350.1532133,0.025675389915704727,-0.027527090162038803,-0.270982563495636,0.45470675826072693,-0.8382166624069214,-9.845670700073242
1745734350.1904745,0.040532469749450684,-0.020512234419584274,-0.27239638566970825,0.37744763493537903,-0.6397483944892883,-9.57368278503418
1745734350.1941118,0.04005226120352745,-0.019214410334825516,-0.2720692753791809,0.5937285423278809,-0.8749772310256958,-9.578824996948242
1745734350.1978278,0.02548855170607567,-0.028521081432700157,-0.27156493067741394,0.344695121049881,-0.49028006196022034,-9.859647750854492
1745734350.2010365,0.04484587162733078,-0.01860378496348858,-0.27057787775993347,0.44026899337768555,-1.0394666194915771,-10.013795852661133
1745734350.2358253,0.03420821949839592,-0.017910301685333252,-0.2707898020744324,0.40903010964393616,-0.4220496118068695,-9.562631607055664
1745734350.2359397,0.042265020310878754,-0.023095643147826195,-0.2750519812107086,0.35204756259918213,-0.8241044878959656,-9.6627836227417
1745734350.2395852,0.03790442273020744,-0.02571623958647251,-0.2723599374294281,0.5881639719009399,-0.6016594767570496,-9.853848457336426
1745734350.2417536,0.041915811598300934,-0.022218838334083557,-0.273934543132782,0.3693871796131134,-0.7440909147262573,-9.974294662475586
1745734350.2452483,0.0376526303589344,-0.017807459458708763,-0.27508875727653503,0.5148859620094299,-0.8333881497383118,-9.580370903015137
1745734350.2737458,0.02872973121702671,-0.025389816612005234,-0.27640074491500854,0.39629268646240234,-0.6166107058525085,-9.481528282165527
1745734350.2776299,0.033492546528577805,-0.02180042304098606,-0.2762201726436615,0.481924444437027,-0.9615918397903442,-9.996347427368164
1745734350.2813056,0.024423912167549133,-0.021790174767374992,-0.27639541029930115,0.47214311361312866,-0.443455308675766,-9.909683227539062
1745734350.2837021,0.03537621721625328,-0.016775008291006088,-0.27724966406822205,0.3596726059913635,-0.9035941958427429,-9.709797859191895
1745734350.318842,0.03047328069806099,-0.027232646942138672,-0.2789871096611023,0.4467843174934387,-0.5747708082199097,-9.492465019226074
1745734350.3223286,0.01347831916064024,-0.023223165422677994,-0.2821902632713318,0.5272434949874878,-0.7995356321334839,-9.769399642944336
1745734350.3234076,0.03054530918598175,-0.015861546620726585,-0.2822745740413666,0.36130791902542114,-0.5376602411270142,-9.921757698059082
1745734350.3261926,0.016531426459550858,-0.01564740017056465,-0.28328877687454224,0.5816584825515747,-0.9260678291320801,-9.757696151733398
1745734350.3606918,0.03684283047914505,-0.019769256934523582,-0.28326931595802307,0.3728679418563843,-0.43106937408447266,-9.559452056884766
1745734350.3632054,0.02624836564064026,-0.019736718386411667,-0.2817382216453552,0.47239360213279724,-0.9185552597045898,-9.975648880004883
1745734350.3670912,0.0432337261736393,-0.01667904108762741,-0.28290921449661255,0.453255832195282,-0.5244927406311035,-9.889097213745117
1745734350.3694544,0.041781917214393616,-0.01503596268594265,-0.27980583906173706,0.35671335458755493,-0.8165603876113892,-9.686161994934082
1745734350.3728747,0.031302560120821,-0.02253713831305504,-0.2827751636505127,0.5514969825744629,-0.7411998510360718,-9.502923011779785
1745734350.4075844,0.03888412564992905,-0.017204686999320984,-0.2852787375450134,0.3975384831428528,-0.7155524492263794,-9.819913864135742
1745734350.4170082,0.018494678661227226,-0.01718808151781559,-0.28480660915374756,0.5444000363349915,-0.9891340136528015,-9.98874568939209
1745734350.4185913,0.031525708734989166,-0.01603202149271965,-0.2869747281074524,0.3946531414985657,-0.5507818460464478,-9.603973388671875
1745734350.421508,0.004913464654237032,-0.017172832041978836,-0.28431010246276855,0.5196220278739929,-1.0970402956008911,-9.674538612365723
1745734350.4438014,0.020672407001256943,-0.01972069777548313,-0.2867535352706909,0.4331870973110199,-0.592595636844635,-9.785131454467773
1745734350.4463549,0.01882786676287651,-0.01441971492022276,-0.28543978929519653,0.3907966613769531,-0.8481709361076355,-9.96265697479248
1745734350.4476776,0.016720017418265343,-0.01814146898686886,-0.28504830598831177,0.4626219868659973,-0.65806645154953,-9.60047721862793
1745734350.4499297,0.021084684878587723,-0.01650364138185978,-0.28483152389526367,0.5691174268722534,-0.9188511967658997,-9.984101295471191
1745734350.4901173,0.027906006202101707,-0.017370253801345825,-0.2867348790168762,0.41418296098709106,-0.7223777770996094,-9.87861442565918
1745734350.49212,0.02798493765294552,-0.011611120775341988,-0.28634142875671387,0.4977284371852875,-0.9921334981918335,-9.596739768981934
1745734350.49381,0.011817539110779762,-0.02548227645456791,-0.28558921813964844,0.44967642426490784,-0.6261832118034363,-9.568663597106934
1745734350.4950502,0.025203507393598557,-0.016821283847093582,-0.2843092381954193,0.45817190408706665,-0.9025832414627075,-9.923998832702637
1745734350.498864,0.010872259736061096,-0.01824682019650936,-0.2869848608970642,0.46695977449417114,-0.5885487198829651,-9.810084342956543
1745734350.533286,0.03297858685255051,-0.01621684804558754,-0.2865249514579773,0.3912121653556824,-0.7946282625198364,-9.621270179748535
1745734350.535534,0.016657022759318352,-0.018083136528730392,-0.2848248779773712,0.4853409230709076,-0.7984424829483032,-9.637968063354492
1745734350.540573,0.0327816978096962,-0.01857806369662285,-0.2855387330055237,0.35553938150405884,-0.6134871244430542,-9.91735553741455
1745734350.543135,0.025711867958307266,-0.014834040775895119,-0.2837613523006439,0.46339815855026245,-0.9256804585456848,-9.911493301391602
1745734350.5758517,0.023892458528280258,-0.02014736272394657,-0.28639379143714905,0.3727833330631256,-0.5689492225646973,-9.571761131286621
1745734350.5798645,0.032548822462558746,-0.016863133758306503,-0.28580421209335327,0.4488688111305237,-0.9977618455886841,-9.606687545776367
1745734350.5846462,0.02032238058745861,-0.018692953512072563,-0.28794199228286743,0.4699825644493103,-0.5985791087150574,-9.73088550567627
1745734350.5879188,0.02678602561354637,-0.017064237967133522,-0.28853923082351685,0.4884432256221771,-0.8659969568252563,-9.956060409545898
1745734350.5919998,0.014122207649052143,-0.013122680597007275,-0.2875625491142273,0.5279288291931152,-0.8004509806632996,-9.69415283203125
1745734350.620983,0.022308316081762314,-0.018131274729967117,-0.28765571117401123,0.3012915253639221,-0.6775391697883606,-9.601561546325684
1745734350.6222992,0.013818681240081787,-0.016741584986448288,-0.28740185499191284,0.5306937098503113,-0.991520881652832,-9.786787033081055
1745734350.6234598,0.01950107142329216,-0.017566338181495667,-0.28791242837905884,0.3777145445346832,-0.5565893650054932,-9.895471572875977
1745734350.6270177,0.020210716873407364,-0.01850247196853161,-0.28876280784606934,0.49810895323753357,-0.9368608593940735,-9.838258743286133
1745734350.662029,0.012717832811176777,-0.02114175260066986,-0.28585463762283325,0.4204574525356293,-0.6085537672042847,-9.588906288146973
1745734350.6657755,0.026541581377387047,-0.01635516807436943,-0.2884305715560913,0.4189363121986389,-0.8923924565315247,-9.70492935180664
1745734350.668794,-0.0020980038680136204,-0.017042487859725952,-0.2857050597667694,0.4917207658290863,-0.8500983119010925,-9.78994083404541
1745734350.6701334,0.013771762140095234,-0.01698021963238716,-0.28806358575820923,0.3643374443054199,-0.49049249291419983,-9.630204200744629
1745734350.7022295,-0.0014368209522217512,-0.018238207325339317,-0.2876388430595398,0.5315702557563782,-0.9593164324760437,-9.748859405517578
1745734350.705384,0.023041805252432823,-0.021459585055708885,-0.2911296784877777,0.41162237524986267,-0.42865699529647827,-9.826436996459961
1745734350.7065337,0.00939409900456667,-0.01676638051867485,-0.2890133261680603,0.41040095686912537,-0.9944677352905273,-9.91132640838623
1745734350.7088006,0.01158920582383871,-0.019598420709371567,-0.2902377247810364,0.43847137689590454,-0.6944199204444885,-9.532912254333496
1745734350.711352,0.015004019252955914,-0.013876515440642834,-0.2887374758720398,0.3636411130428314,-0.8525531888008118,-9.618792533874512
1745734350.747808,-0.002011402975767851,-0.023760080337524414,-0.29014191031455994,0.6128581762313843,-0.8340009450912476,-9.815576553344727
1745734350.7512436,0.016876881942152977,-0.017450150102376938,-0.28756314516067505,0.420565664768219,-0.7143492102622986,-9.941605567932129
1745734350.756757,-0.004965789150446653,-0.01881711184978485,-0.28742995858192444,0.5369206666946411,-0.9980220794677734,-9.844511032104492
1745734350.7589557,0.008482404053211212,-0.020993711426854134,-0.286984920501709,0.32073888182640076,-0.5508877038955688,-9.600492477416992
1745734350.7906206,-0.006822187453508377,-0.01915604993700981,-0.2888984680175781,0.4398769438266754,-0.9617191553115845,-9.7144136428833
1745734350.7927787,0.012480407953262329,-0.021597985178232193,-0.28806227445602417,0.422891229391098,-0.5335907936096191,-9.748099327087402
1745734350.7943387,0.014240031130611897,-0.014655428938567638,-0.28950628638267517,0.3428556025028229,-0.7735782265663147,-9.70539379119873
1745734350.7948575,-0.00046999024925753474,-0.02097710408270359,-0.28922945261001587,0.5048502683639526,-0.7033156156539917,-9.614773750305176
1745734350.8352184,-0.0032393999863415956,-0.018316950649023056,-0.29054969549179077,0.5453341603279114,-0.9277245402336121,-9.839953422546387
1745734350.8373837,0.0006217922200448811,-0.019808977842330933,-0.2918771207332611,0.37416380643844604,-0.6280810832977295,-9.799481391906738
1745734350.8411133,0.004043663386255503,-0.013221916742622852,-0.2915799021720886,0.45983630418777466,-0.9757677912712097,-9.701382637023926
1745734350.846959,-0.009030366316437721,-0.014835132285952568,-0.29079145193099976,0.4106381833553314,-0.5350030660629272,-9.511460304260254
1745734350.8498652,0.003937650937587023,-0.014086800627410412,-0.2917620837688446,0.5104032754898071,-0.9263227581977844,-9.796954154968262
1745734350.8786674,-0.0005163986352272332,-0.015107974410057068,-0.2895507514476776,0.477379709482193,-0.5780569314956665,-9.8879976272583
1745734350.8800404,0.013902530074119568,-0.01574033871293068,-0.2890257239341736,0.27876555919647217,-0.6590679883956909,-9.874481201171875
1745734350.8836167,0.011573856696486473,-0.011486733332276344,-0.29113245010375977,0.42576465010643005,-0.7614589929580688,-9.614864349365234
1745734350.8852828,0.01873709075152874,-0.017247715964913368,-0.2910241186618805,0.3165457248687744,-0.5451570749282837,-9.647695541381836
1745734350.9205294,0.016708355396986008,-0.013563881628215313,-0.2907297611236572,0.5432384014129639,-0.924731433391571,-9.856608390808105
1745734350.9243023,0.0096388328820467,-0.017253374680876732,-0.29486316442489624,0.43313470482826233,-0.6609715223312378,-9.794865608215332
1745734350.9271193,0.014158153906464577,-0.011440801434218884,-0.28978922963142395,0.4613721966743469,-1.0865733623504639,-9.681497573852539
1745734350.931037,-0.005303087644279003,-0.017104875296354294,-0.2913723886013031,0.520561933517456,-0.6907564997673035,-9.575312614440918
1745734350.9609234,0.0005395734333433211,-0.012595799751579762,-0.2884698808193207,0.38703006505966187,-0.8589189648628235,-9.884739875793457
1745734350.9631274,-0.0027290049474686384,-0.012215998955070972,-0.28851863741874695,0.5092473030090332,-0.6926881074905396,-9.88417911529541
1745734350.9658048,0.01464490033686161,-0.01112711988389492,-0.29128795862197876,0.2781231999397278,-0.49422264099121094,-9.688886642456055
1745734350.9677486,0.008752407506108284,-0.016309786587953568,-0.2920137345790863,0.4906654953956604,-0.8220593333244324,-9.581257820129395
1745734350.9722166,0.02289309725165367,-0.016345959156751633,-0.29298287630081177,0.3466298282146454,-0.34988933801651,-9.760610580444336
1745734351.0061374,0.023559117689728737,-0.01024718303233385,-0.29387879371643066,0.448575884103775,-1.026062250137329,-9.934476852416992
1745734351.0161068,0.021582087501883507,-0.014218403026461601,-0.2880702614784241,0.4482800364494324,-0.6199321746826172,-9.5844144821167
1745734351.0384724,0.018486877903342247,-0.01561027206480503,-0.28839200735092163,0.5450037717819214,-0.8871561884880066,-9.885465621948242
1745734351.0385344,0.03163238614797592,-0.01885024830698967,-0.2907179892063141,0.3737424910068512,-0.656675398349762,-9.643707275390625
1745734351.0538614,0.006068164482712746,-0.018285367637872696,-0.2890014052391052,0.47725486755371094,-1.0540977716445923,-9.744771957397461
1745734351.0539033,0.0226381067186594,-0.016963090747594833,-0.28980374336242676,0.3447988033294678,-0.5999392867088318,-9.729827880859375
1745734351.0567646,0.009321214631199837,-0.012111042626202106,-0.2902868688106537,0.42673882842063904,-0.9273959398269653,-9.733722686767578
1745734351.0568242,0.00122058333363384,-0.02004634216427803,-0.2910371720790863,0.5718250274658203,-0.646869957447052,-9.63719367980957
1745734351.0909572,0.020587701350450516,-0.014945258386433125,-0.2904837131500244,0.3890351355075836,-0.6910507082939148,-9.86462688446045
1745734351.0928092,0.0016939796041697264,-0.019130602478981018,-0.291760116815567,0.49381738901138306,-0.7350863814353943,-9.905599594116211
1745734351.1008117,0.03448221832513809,-0.015000641345977783,-0.2900490462779999,0.34506291151046753,-0.6820243000984192,-9.696483612060547
1745734351.101499,0.0064779059030115604,-0.018585246056318283,-0.28831300139427185,0.4968835711479187,-0.9683799743652344,-9.708239555358887
1745734351.1015573,0.0256954338401556,-0.021320927888154984,-0.28835541009902954,0.3532842993736267,-0.5296578407287598,-9.724705696105957
1745734351.1357048,0.012440826743841171,-0.014416192658245564,-0.2883663773536682,0.45646733045578003,-0.989923357963562,-9.853048324584961
1745734351.1374152,0.014220692217350006,-0.01953221671283245,-0.2869876027107239,0.4387238025665283,-0.5943056344985962,-9.607937812805176
1745734351.1385717,0.018953677266836166,-0.015162810683250427,-0.2901213765144348,0.4803466796875,-0.880754828453064,-9.705418586730957
1745734351.142464,-0.006697238888591528,-0.023396439850330353,-0.29142841696739197,0.5371116995811462,-0.7539016008377075,-9.896063804626465
1745734351.1775558,0.02179071679711342,-0.014155074954032898,-0.28976598381996155,0.36144307255744934,-0.7844664454460144,-9.879286766052246
1745734351.1787643,0.02459540218114853,-0.02161857858300209,-0.28587907552719116,0.32822591066360474,-0.6875237226486206,-9.709872245788574
1745734351.1812863,0.015712445601820946,-0.020130310207605362,-0.286670982837677,0.5200411081314087,-0.9052467346191406,-9.620418548583984
1745734351.1831505,0.019168436527252197,-0.02465466596186161,-0.2857581377029419,0.3508266806602478,-0.6112266778945923,-9.736298561096191
1745734351.2208176,0.01898813061416149,-0.015845905989408493,-0.28403764963150024,0.4274037480354309,-1.0383085012435913,-9.870058059692383
1745734351.223678,0.011097373440861702,-0.01968665048480034,-0.28586652874946594,0.3840997815132141,-0.565991997718811,-9.630674362182617
1745734351.228795,0.012816572561860085,-0.020822767168283463,-0.2866835594177246,0.4184079170227051,-0.8832796216011047,-9.775476455688477
1745734351.231168,0.010965824127197266,-0.019996335729956627,-0.28772467374801636,0.5197767019271851,-0.6502355933189392,-9.803096771240234
1745734351.2342365,0.018932491540908813,-0.019449878484010696,-0.2885712683200836,0.3068963885307312,-0.6263514757156372,-9.848851203918457
1745734351.265834,0.009011900052428246,-0.021591246128082275,-0.28898581862449646,0.5633906126022339,-0.9586490392684937,-9.643994331359863
1745734351.2680202,0.022060509771108627,-0.0211027842015028,-0.28821802139282227,0.37022024393081665,-0.5599654912948608,-9.669265747070312
1745734351.2694883,0.009976840578019619,-0.022422727197408676,-0.28606024384498596,0.5357464551925659,-1.1077430248260498,-9.888814926147461
1745734351.2718508,0.014060033485293388,-0.021214712411165237,-0.28474685549736023,0.38329213857650757,-0.5346808433532715,-9.774842262268066
1745734351.3072302,0.016447653993964195,-0.01846505142748356,-0.2853986620903015,0.4106144905090332,-1.0110037326812744,-9.784982681274414
1745734351.3109484,0.009273153729736805,-0.02615581825375557,-0.28418225049972534,0.4306824207305908,-0.5410674810409546,-9.675348281860352
1745734351.3135672,0.016591250896453857,-0.021824875846505165,-0.2863074541091919,0.3167707920074463,-0.6913750767707825,-9.873602867126465
1745734351.3186314,0.012501165270805359,-0.021725427359342575,-0.2881842255592346,0.5191203355789185,-0.8241011500358582,-9.771081924438477
1745734351.3240466,0.029042109847068787,-0.022554391995072365,-0.2886236608028412,0.3006828725337982,-0.5114424824714661,-9.612348556518555
1745734351.351222,0.0062500485219061375,-0.025280844420194626,-0.286844402551651,0.6224111318588257,-1.0463922023773193,-9.776175498962402
1745734351.3525083,0.025581473484635353,-0.022157516330480576,-0.28524309396743774,0.4187854826450348,-0.6138978004455566,-9.784235000610352
1745734351.3590064,0.015393858775496483,-0.017189428210258484,-0.2861426770687103,0.35859864950180054,-0.9704911112785339,-9.80372428894043
1745734351.3591583,0.003104237839579582,-0.023191247135400772,-0.2836737632751465,0.444951593875885,-0.8886774182319641,-9.888104438781738
1745734351.3962758,0.027884747833013535,-0.02220376394689083,-0.28358274698257446,0.2950497269630432,-0.5029851198196411,-9.521202087402344
1745734351.3978398,0.007746042218059301,-0.02171511948108673,-0.28656071424484253,0.45291393995285034,-0.9957588911056519,-9.615301132202148
1745734351.399968,0.019476186484098434,-0.024573959410190582,-0.2847755551338196,0.4027331471443176,-0.6113995909690857,-9.827143669128418
1745734351.403905,0.012650927528738976,-0.016518795862793922,-0.2830561101436615,0.45434626936912537,-0.9019353985786438,-9.94868278503418
1745734351.4371393,0.0025934306904673576,-0.024963881820440292,-0.2854110598564148,0.4583814740180969,-0.7597929239273071,-9.752028465270996
1745734351.4401062,0.02857774868607521,-0.017736030742526054,-0.2839319109916687,0.37884002923965454,-0.7596009969711304,-9.595989227294922
1745734351.4411528,-0.000997717841528356,-0.022611206397414207,-0.2814817428588867,0.4407806396484375,-0.7309727668762207,-9.742480278015137
1745734351.444489,0.0328243151307106,-0.01943323016166687,-0.28187161684036255,0.29316702485084534,-0.6076162457466125,-9.781562805175781
1745734351.4449732,0.014498814940452576,-0.014581871218979359,-0.2845470905303955,0.40459537506103516,-0.7589824795722961,-9.701391220092773
