timestamp,angular_vel_x,angular_vel_y,angular_vel_z,linear_acc_x,linear_acc_y,linear_acc_z
1745660541.9343886,-0.07703743875026703,0.038423456251621246,0.04467012733221054,0.15537796914577484,-0.07575446367263794,-8.290468215942383
1745660541.9365435,-0.0443568080663681,0.01603575423359871,0.056321561336517334,0.5464788675308228,0.4036099314689636,-9.001226425170898
1745660541.945513,-0.04932161420583725,0.04246247187256813,0.060633935034275055,0.4984802305698395,0.4105837345123291,-11.071634292602539
1745660541.9479396,-0.025753041729331017,0.058791399002075195,0.0689961388707161,0.4579943120479584,0.6072423458099365,-10.17695426940918
1745660541.9509408,-0.03134456276893616,0.044012416154146194,0.07660474628210068,0.9108883142471313,0.4317787289619446,-8.49817943572998
1745660541.979211,-0.019667860120534897,0.026460224762558937,0.0845334380865097,1.167860984802246,0.40268468856811523,-9.730606079101562
1745660541.9816194,-0.026315834373235703,0.05393397808074951,0.09213315695524216,0.865930438041687,0.492633193731308,-11.250432014465332
1745660541.9862423,-0.02094101533293724,0.05266834422945976,0.0996902734041214,1.0455238819122314,0.1982472836971283,-9.775955200195312
1745660541.9872985,-0.04585134983062744,0.04402593523263931,0.10517340898513794,1.03159499168396,0.3695419430732727,-8.322232246398926
1745660542.0227356,-0.05844257399439812,0.02940245345234871,0.11051847785711288,1.2190066576004028,0.23201730847358704,-10.034965515136719
1745660542.025246,-0.07620222866535187,0.031064549461007118,0.11277972161769867,0.743959903717041,0.7114091515541077,-11.45085334777832
1745660542.0283775,-0.0563800111413002,0.06221604347229004,0.11373617500066757,0.4267660081386566,0.24498124420642853,-9.59373664855957
1745660542.034503,-0.06808478385210037,0.04894288256764412,0.12214771658182144,0.5543950796127319,0.5738384127616882,-7.74231481552124
1745660542.0663068,-0.07196693122386932,0.04117320850491524,0.13130119442939758,0.58139568567276,0.3008103370666504,-9.739529609680176
1745660542.0702221,-0.04128771275281906,0.05399763584136963,0.14017874002456665,0.7928757071495056,0.45906582474708557,-11.279253005981445
1745660542.074976,-0.013879532925784588,0.09106193482875824,0.257463276386261,0.6291192770004272,1.0728638172149658,-9.805800437927246
1745660542.0775273,0.006727815605700016,0.10139329731464386,0.25954991579055786,0.6834044456481934,0.8230584859848022,-9.536795616149902
1745660542.107091,0.003942518495023251,0.0849386677145958,0.2624438405036926,0.8819357752799988,0.7349902391433716,-9.501138687133789
1745660542.1107159,0.023131471127271652,0.09067270159721375,0.2661592364311218,0.8109733462333679,0.5922759175300598,-9.82778549194336
1745660542.1107779,0.01033562608063221,0.09420552104711533,0.2686537504196167,1.0038840770721436,0.4622945785522461,-9.845327377319336
1745660542.112207,-0.0037897240836173296,0.08696362376213074,0.27235841751098633,0.8906366229057312,0.36951300501823425,-9.667847633361816
1745660542.1148267,-0.006036553531885147,0.08474224805831909,0.2772596776485443,1.1433966159820557,0.22795116901397705,-9.602884292602539
1745660542.1521027,-0.02386021614074707,0.07873749732971191,0.2805350422859192,0.9417980313301086,0.5813058018684387,-9.881305694580078
1745660542.1532989,-0.020139481872320175,0.07999735325574875,0.28460893034935,0.8467869758605957,0.40218108892440796,-9.989819526672363
1745660542.156429,-0.01920763961970806,0.0672784373164177,0.28875961899757385,0.9267926216125488,0.6341758966445923,-9.644712448120117
1745660542.1588285,-0.0028633775655180216,0.07650300115346909,0.2952384948730469,0.7684381604194641,0.6697841286659241,-9.737299919128418
1745660542.1929433,-0.004357561934739351,0.062422074377536774,0.29734545946121216,0.9039937257766724,0.6203330159187317,-9.783135414123535
1745660542.197592,0.019475655630230904,0.05996813252568245,0.3006514608860016,0.8126596212387085,0.6921416521072388,-9.802629470825195
1745660542.2001467,0.016293494030833244,0.06466950476169586,0.30703121423721313,1.0081020593643188,0.5857178568840027,-9.69255256652832
1745660542.2030752,0.01696322299540043,0.04915209114551544,0.30671748518943787,0.9284003973007202,0.6362491846084595,-9.772794723510742
1745660542.205999,0.018759839236736298,0.05241141840815544,0.31040462851524353,0.9339994192123413,0.4776450991630554,-9.89411735534668
1745660542.2380033,0.013330976478755474,0.04656575247645378,0.31217679381370544,1.028354525566101,0.5570579767227173,-9.727741241455078
1745660542.2406266,0.010125095024704933,0.0495869405567646,0.3139386475086212,0.741533637046814,0.6119524836540222,-9.672832489013672
1745660542.2429469,0.005652184598147869,0.039507217705249786,0.316641241312027,0.9227551221847534,0.4439046382904053,-9.550718307495117
1745660542.2809796,0.06240224093198776,-0.034694381058216095,0.31300443410873413,-0.053198885172605515,1.1209450960159302,-9.80307388305664
1745660542.2836912,0.1004040464758873,-0.03795301169157028,0.2993954122066498,-0.44205182790756226,1.2289540767669678,-9.332151412963867
1745660542.286216,0.16464750468730927,-0.015440535731613636,0.2950877547264099,0.3032699525356293,0.8373458981513977,-8.950996398925781
1745660542.2895553,0.1450195610523224,-0.04664013907313347,0.3009352684020996,0.602787971496582,-0.7600298523902893,-10.093768119812012
1745660542.2927952,0.08693738281726837,-0.064906544983387,0.3080216348171234,0.37912246584892273,-0.8091751337051392,-10.30129623413086
1745660542.3220758,0.10830475389957428,-0.0345604382455349,0.3183225393295288,0.09770791977643967,-0.6775404810905457,-10.233034133911133
1745660542.3242922,-0.014015343971550465,-0.05737016722559929,0.3215517997741699,0.047683343291282654,-0.7482560873031616,-9.08515739440918
1745660542.3266933,-0.043759219348430634,-0.05973711609840393,0.3156340718269348,0.6848911046981812,-0.41563692688941956,-9.172285079956055
1745660542.3289661,-0.08171726018190384,-0.07824884355068207,0.29373008012771606,0.5989652872085571,1.1432996988296509,-10.507101058959961
1745660542.3655803,-0.07659842073917389,-0.06838485598564148,0.2758376896381378,0.2722384035587311,0.25527381896972656,-10.512117385864258
1745660542.3711193,-0.1003173440694809,-0.08770760893821716,0.2750600278377533,0.4143701493740082,0.5541896820068359,-9.111515998840332
1745660542.3712208,-0.09562517702579498,-0.0981408953666687,0.2838292717933655,0.20196254551410675,0.16333310306072235,-9.389927864074707
1745660542.3743796,-0.049998171627521515,-0.09759601205587387,0.2938063442707062,0.15447042882442474,1.2542707920074463,-10.429618835449219
1745660542.37468,0.009878421202301979,-0.0924530178308487,0.2996891140937805,0.19756001234054565,1.4679806232452393,-10.587263107299805
1745660542.4091792,0.11937665939331055,-0.09670518338680267,0.29537829756736755,0.5513892769813538,2.2206733226776123,-9.094281196594238
1745660542.4109075,0.13675610721111298,-0.1423516571521759,0.287291020154953,0.13906216621398926,1.5833618640899658,-9.573448181152344
1745660542.413383,0.22471976280212402,-0.13128632307052612,0.2890307307243347,-0.032323986291885376,0.7694120407104492,-10.65896987915039
1745660542.414784,0.28927555680274963,-0.09260965138673782,0.21032217144966125,-0.19938646256923676,-0.45862922072410583,-8.844204902648926
1745660542.4516582,0.07413727045059204,-0.1188470870256424,0.2036774903535843,-0.3637116253376007,0.6918213963508606,-12.529004096984863
1745660542.4543414,0.30957651138305664,-0.05187643691897392,0.16403593122959137,0.18645939230918884,0.02615508995950222,-10.657587051391602
1745660542.45566,0.06676340103149414,-0.08496500551700592,0.13449890911579132,0.7654892206192017,1.829690933227539,-6.574145317077637
1745660542.4585567,0.07138201594352722,-0.17315588891506195,0.1203368753194809,1.581156611442566,-2.6869983673095703,-10.488945960998535
1745660542.49442,0.04503551870584488,-0.0813276544213295,0.14092324674129486,0.3449776768684387,0.19807282090187073,-12.992393493652344
1745660542.4965382,-0.09887032210826874,-0.10524079948663712,0.16901028156280518,-0.3054501712322235,-2.7106575965881348,-10.470925331115723
1745660542.4988534,0.11539957672357559,-0.05439392477273941,0.20095646381378174,0.18926122784614563,1.220917820930481,-5.2949910163879395
1745660542.5012476,-0.12246014177799225,-0.1392025202512741,0.19938011467456818,0.04965503141283989,0.8377382159233093,-9.209114074707031
1745660542.502835,0.24333491921424866,-0.10005159676074982,0.17768582701683044,0.3226204514503479,3.3598713874816895,-13.532597541809082
1745660542.5367763,0.17595267295837402,-0.03869165480136871,0.143154114484787,-0.5111647844314575,2.9880237579345703,-11.13946533203125
1745660542.5387917,0.37743133306503296,-0.12319564819335938,0.1371188461780548,-0.1676860749721527,0.7466838955879211,-6.489981174468994
1745660542.541086,0.2521175742149353,-0.08307155221700668,0.1447223722934723,-0.4244709014892578,0.1370931714773178,-8.667604446411133
1745660542.5438032,0.29244083166122437,-0.10505445301532745,0.15858444571495056,0.4398705065250397,-1.6590474843978882,-12.805926322937012
1745660542.5801198,0.23376671969890594,-0.02266538143157959,0.1721675992012024,0.2653682231903076,-0.33636027574539185,-10.446876525878906
1745660542.5806763,0.14364098012447357,-0.07601698487997055,0.17163397371768951,0.954776406288147,-1.5135289430618286,-7.0572614669799805
1745660542.5828435,0.14142557978630066,-0.10562866926193237,0.1642901450395584,1.220337986946106,0.3628937602043152,-9.087196350097656
1745660542.5850778,0.035943206399679184,-0.08807656913995743,0.15523332357406616,0.06016262620687485,-0.3158670961856842,-13.769433975219727
1745660542.587415,0.1359104961156845,-0.06382548063993454,0.14922423660755157,0.33229371905326843,0.028841352090239525,-10.601140022277832
1745660542.6255784,0.06374980509281158,-0.03522045910358429,0.15506920218467712,-0.4623383581638336,-0.5446281433105469,-12.685914993286133
1745660542.627103,0.24065597355365753,0.004744311328977346,0.16454005241394043,-0.012571454048156738,0.16538679599761963,-8.890600204467773
1745660542.6292694,0.1362956166267395,0.0176389142870903,0.1725616157054901,-0.05235800892114639,0.3196815550327301,-6.709452152252197
1745660542.6308334,0.16721375286579132,-0.07110457867383957,0.17143118381500244,0.5201672315597534,0.11490316689014435,-10.120195388793945
1745660542.6682942,0.19482913613319397,0.01703006960451603,0.16095706820487976,0.774929404258728,0.6120240092277527,-12.88966178894043
1745660542.6707711,0.18213877081871033,0.019613271579146385,0.1519050896167755,0.15556520223617554,-0.15517441928386688,-9.837129592895508
1745660542.674195,0.15674550831317902,-0.016664765775203705,0.1561489701271057,0.5271103978157043,-0.38156694173812866,-6.582607269287109
1745660542.6771016,0.09057802706956863,-0.021676963195204735,0.16820871829986572,0.5917810201644897,-1.16977858543396,-10.03355598449707
1745660542.7097895,0.12216372787952423,0.01929130218923092,0.17232683300971985,0.167789489030838,-0.2712520658969879,-12.23955249786377
1745660542.7115877,0.04971830174326897,0.032283321022987366,0.17791059613227844,-0.005734297446906567,-0.2127211093902588,-9.351489067077637
1745660542.713374,0.127804696559906,0.010027559474110603,0.17764496803283691,0.31913697719573975,0.4227367043495178,-7.174490451812744
1745660542.7159858,0.09075896441936493,0.010614171624183655,0.16873550415039062,0.2886064648628235,0.8469012975692749,-10.241564750671387
1745660542.7182605,0.1523951143026352,0.01618240214884281,0.1629481464624405,0.11671201139688492,0.17665903270244598,-12.412436485290527
1745660542.754629,0.18312598764896393,0.04889064282178879,0.16588731110095978,0.20894858241081238,0.22027118504047394,-9.2236328125
1745660542.7573154,0.1584019958972931,0.026843011379241943,0.17117944359779358,-0.18165943026542664,-0.29613807797431946,-7.394619941711426
1745660542.7595272,0.15410031378269196,0.01905612275004387,0.18115252256393433,0.35941416025161743,-0.605291485786438,-9.862019538879395
1745660542.7612245,0.13859717547893524,0.04790768772363663,0.1815768927335739,0.5710040926933289,-0.27722078561782837,-11.638487815856934
1745660542.7972045,-0.08612005412578583,0.12401865422725677,0.2769971787929535,0.4964473843574524,-0.1321679651737213,-10.020052909851074
1745660542.8000247,-0.09280479699373245,0.11370246112346649,0.2820931375026703,0.5418993830680847,0.0009056925773620605,-8.926092147827148
1745660542.8032734,-0.07022291421890259,0.10355710983276367,0.28663110733032227,0.5880707502365112,0.15553028881549835,-9.317506790161133
1745660542.806005,-0.054951511323451996,0.11460872739553452,0.2939673960208893,0.8863151669502258,-0.04594803601503372,-10.459709167480469
1745660542.8133242,-0.018121644854545593,0.11258244514465332,0.2989698052406311,0.6140475273132324,0.3848535120487213,-10.109475135803223
1745660542.8397305,-0.0329877994954586,0.11631933599710464,0.2996690273284912,0.5272611379623413,0.14168515801429749,-8.972806930541992
1745660542.8420346,-0.01079091802239418,0.10081295669078827,0.29903319478034973,0.8032436370849609,0.27095991373062134,-9.091785430908203
1745660542.84377,-0.02394970692694187,0.11124531924724579,0.29419058561325073,0.7605910301208496,0.17516019940376282,-10.484916687011719
1745660542.8464477,-0.026605701074004173,0.10837525129318237,0.2929214835166931,0.8069615364074707,-0.2508243918418884,-10.391759872436523
1745660542.882419,-0.025845754891633987,0.11422236263751984,0.29694491624832153,0.6150030493736267,-0.12266544997692108,-8.954980850219727
1745660542.885862,-0.0592278316617012,0.10752753913402557,0.3016379773616791,0.7420940399169922,-0.5306436419487,-9.022496223449707
1745660542.887058,-0.04899746924638748,0.09752555191516876,0.3138115704059601,0.7368696928024292,-0.33738094568252563,-10.232358932495117
1745660542.8912416,-0.04600167274475098,0.12216119468212128,0.3188444972038269,0.7265861630439758,-0.2939141094684601,-10.330368995666504
1745660542.923605,-0.04801268130540848,0.10579846054315567,0.32242703437805176,0.51854008436203,-0.014800089411437511,-9.186312675476074
1745660542.9271362,-0.039027392864227295,0.10687784105539322,0.32342103123664856,0.42610692977905273,-0.15641681849956512,-9.050874710083008
1745660542.9303944,-0.05783382058143616,0.10448559373617172,0.3263126313686371,0.729709267616272,-0.3163829445838928,-10.120134353637695
1745660542.9353988,-0.060642123222351074,0.10696087777614594,0.32421237230300903,0.617725133895874,-0.2944016456604004,-10.408401489257812
1745660542.9372237,-0.10781779140233994,0.10346963256597519,0.32525044679641724,0.7935773134231567,-0.782504677772522,-9.406540870666504
1745660542.9705255,-0.12618601322174072,0.09592138975858688,0.32834869623184204,0.7646708488464355,-0.509452760219574,-9.061437606811523
1745660542.9748886,-0.1750822514295578,0.06788848340511322,0.36514776945114136,0.7078351974487305,-0.18908695876598358,-9.9453763961792
1745660542.9797595,-0.16774927079677582,0.04647094011306763,0.36521610617637634,0.6137489080429077,0.1929766684770584,-9.359261512756348
1745660542.981656,-0.16116347908973694,0.05266574025154114,0.36933040618896484,0.5769509077072144,0.146083801984787,-9.55858325958252
1745660543.0104978,-0.1512955129146576,0.046395160257816315,0.3713636100292206,0.8344038128852844,0.13478079438209534,-10.083749771118164
1745660543.0142305,-0.13119584321975708,0.049519117921590805,0.37269261479377747,0.6702562570571899,0.34032195806503296,-10.037811279296875
1745660543.0160766,-0.1438932865858078,0.03907513990998268,0.3752531111240387,0.8997091054916382,-0.04612437263131142,-9.490593910217285
1745660543.0201302,-0.12967178225517273,0.03592487424612045,0.373502641916275,0.8086097836494446,0.2462710589170456,-9.522439956665039
1745660543.054347,-0.155476376414299,0.03702396899461746,0.3750351071357727,0.9729868769645691,-0.051019780337810516,-10.040936470031738
1745660543.0579727,-0.1453431099653244,0.025984596461057663,0.3752497732639313,1.0063483715057373,0.10010872781276703,-9.92668628692627
1745660543.0610561,-0.15437138080596924,0.03357994556427002,0.3753817677497864,0.768657386302948,0.2040511667728424,-9.68220329284668
1745660543.0641656,-0.16159406304359436,0.018605273216962814,0.37811940908432007,0.8604999780654907,0.0923810601234436,-9.631233215332031
1745660543.0661995,-0.1414940059185028,0.02069195732474327,0.3807237446308136,0.6959050297737122,0.3227011263370514,-9.837716102600098
1745660543.0987477,-0.14348104596138,0.02240748330950737,0.3837229311466217,0.8626643419265747,0.08927947282791138,-9.959972381591797
1745660543.1023555,-0.12063461542129517,0.011362406425178051,0.38562875986099243,0.6852191686630249,0.43414145708084106,-9.727608680725098
1745660543.106258,-0.1325865089893341,0.012151961214840412,0.3825432360172272,0.7596555352210999,0.06179160997271538,-9.705291748046875
1745660543.1101034,-0.11525243520736694,0.0016856256406754255,0.38596081733703613,0.8308184742927551,0.10992620140314102,-9.859505653381348
1745660543.1389153,-0.13792692124843597,0.008340230211615562,0.3864893913269043,0.7105923891067505,-0.030356651172041893,-10.034561157226562
1745660543.142038,-0.18993008136749268,-0.058901865035295486,0.3983881175518036,0.836805522441864,0.22932982444763184,-9.847918510437012
1745660543.1466415,-0.15419921278953552,-0.06042851135134697,0.40123242139816284,0.7237434387207031,0.5209770798683167,-9.961325645446777
1745660543.1498437,-0.1661648005247116,-0.05129508301615715,0.4011330008506775,0.785175621509552,0.436894029378891,-9.759458541870117
1745660543.1517465,-0.15135696530342102,-0.06818775832653046,0.4008501470088959,0.6325966119766235,0.5525752305984497,-9.6778564453125
1745660543.1851902,-0.14386603236198425,-0.059765495359897614,0.40240031480789185,0.6759601831436157,0.49612244963645935,-9.843587875366211
1745660543.187213,-0.15127286314964294,-0.06564559787511826,0.4008520245552063,0.7228036522865295,0.4302007555961609,-9.963960647583008
1745660543.189728,-0.1349717676639557,-0.06173115223646164,0.3993297219276428,0.534063458442688,0.5362772345542908,-9.780929565429688
1745660543.1956477,-0.16361692547798157,-0.06657551229000092,0.3995245695114136,0.7315086126327515,0.1502346247434616,-9.668134689331055
1745660543.2268434,-0.14352719485759735,-0.0695423111319542,0.40006914734840393,0.6439858675003052,0.39155927300453186,-9.867927551269531
1745660543.230489,-0.17641113698482513,-0.06119798496365547,0.3976283669471741,0.7678816914558411,0.1902310848236084,-9.940869331359863
1745660543.230609,-0.16863057017326355,-0.07650156319141388,0.4013518691062927,0.7335163950920105,0.20808835327625275,-9.74560546875
1745660543.2335596,-0.1716335266828537,-0.061633337289094925,0.40240922570228577,0.669291615486145,0.4225118160247803,-9.69189739227295
1745660543.2704623,-0.18890516459941864,-0.07685264199972153,0.4033360481262207,0.6846928596496582,0.3340277671813965,-9.83678913116455
1745660543.2738118,-0.1626059114933014,-0.06953185796737671,0.4046855568885803,0.5711296796798706,0.5626994371414185,-9.85851764678955
1745660543.2766159,-0.17637985944747925,-0.067186139523983,0.40548449754714966,0.7115723490715027,0.5775758624076843,-9.729265213012695
1745660543.2820857,-0.15077514946460724,-0.07568024843931198,0.4032765328884125,0.5119609236717224,0.7177697420120239,-9.786970138549805
1745660543.2831879,-0.16143375635147095,-0.06956315040588379,0.40035444498062134,0.6842473149299622,0.634678065776825,-9.82886791229248
1745660543.313211,-0.14954599738121033,-0.07863285392522812,0.39836519956588745,0.6497572660446167,0.4856563210487366,-9.866012573242188
1745660543.3168225,-0.1459246128797531,-0.06649444252252579,0.3986368179321289,0.6711721420288086,0.5618492960929871,-9.690139770507812
1745660543.320597,-0.1757776439189911,-0.0755733996629715,0.4001137614250183,0.6952000856399536,0.2539791464805603,-9.770487785339355
1745660543.3237872,-0.17555919289588928,-0.07771171629428864,0.3998352587223053,0.6120012402534485,0.4651471674442291,-9.871485710144043
1745660543.35526,-0.15524300932884216,-0.05981164425611496,0.4011685848236084,0.6249710321426392,0.6596176028251648,-9.686139106750488
1745660543.3573961,-0.17388547956943512,-0.06807255744934082,0.4011349678039551,0.5084325075149536,0.8011115789413452,-9.688525199890137
1745660543.3587759,-0.14607927203178406,-0.06533299386501312,0.39971762895584106,0.4338713586330414,0.8469852209091187,-9.784891128540039
1745660543.360016,-0.14252933859825134,-0.06292927265167236,0.4004417359828949,0.6585096716880798,0.8649958372116089,-9.734105110168457
1745660543.3979218,-0.12270836532115936,-0.06279762834310532,0.39609554409980774,0.3878817558288574,0.9385291934013367,-9.840883255004883
1745660543.4018924,-0.12575441598892212,-0.06005018204450607,0.39459335803985596,0.6497294306755066,0.7595781087875366,-9.70588207244873
1745660543.4040759,-0.11392755806446075,-0.06570930778980255,0.3961153030395508,0.604110598564148,0.6026178598403931,-9.759025573730469
1745660543.4070125,-0.11255140602588654,-0.053056567907333374,0.39593759179115295,0.6118680834770203,0.6682436466217041,-9.773844718933105
1745660543.4107192,-0.1473882645368576,-0.06459309905767441,0.3959975242614746,0.6445869207382202,0.44014111161231995,-9.81959342956543
1745660543.443593,-0.11370424926280975,-0.054394375532865524,0.39734166860580444,0.5853145122528076,0.562411904335022,-9.632501602172852
1745660543.4464247,-0.1531074494123459,-0.05662031099200249,0.3982648551464081,0.6479648351669312,0.7044326663017273,-9.673012733459473
1745660543.4491403,-0.13541269302368164,-0.06222808361053467,0.39716988801956177,0.39559757709503174,0.6484349370002747,-9.970529556274414
1745660543.4501653,-0.12857359647750854,-0.04545019194483757,0.395317405462265,0.6136824488639832,0.7878880500793457,-9.641210556030273
1745660543.4846454,-0.12785044312477112,-0.05623241513967514,0.3981834053993225,0.39507460594177246,0.8724193572998047,-9.639530181884766
1745660543.4878967,-0.11237923800945282,-0.05274845287203789,0.3957410454750061,0.5611189603805542,0.7787149548530579,-9.79326057434082
1745660543.4928598,-0.09898366034030914,-0.03576473146677017,0.3428606688976288,0.42997750639915466,0.6151515245437622,-10.211180686950684
1745660543.4970615,-0.11285670101642609,-0.04140058159828186,0.3399471938610077,0.18870685994625092,1.3439067602157593,-9.461043357849121
1745660543.5268166,-0.10789205133914948,-0.05037042498588562,0.33465543389320374,0.3680204153060913,0.9911338686943054,-9.400484085083008
1745660543.5294669,-0.04112064093351364,-0.050468217581510544,0.33671674132347107,0.495494544506073,1.3983980417251587,-9.974388122558594
1745660543.5323656,-0.0275301281362772,-0.03670157864689827,0.33439674973487854,0.10783497244119644,1.5755218267440796,-10.20988941192627
1745660543.5346289,0.014466364867985249,-0.04977685213088989,0.33522582054138184,0.3696097135543823,1.0326206684112549,-9.49681568145752
1745660543.5374336,0.06424972414970398,-0.038937319070100784,0.33679795265197754,0.10215872526168823,1.4005167484283447,-9.276602745056152
1745660543.5732245,0.048125434666872025,-0.04700988531112671,0.33311858773231506,0.28860118985176086,0.8635026216506958,-9.98730182647705
1745660543.5766444,0.06445334106683731,-0.04585188627243042,0.32526642084121704,0.29963985085487366,0.8926464319229126,-10.076468467712402
1745660543.579499,0.0555805042386055,-0.035420965403318405,0.3209923207759857,0.20889952778816223,0.5594925880432129,-9.659635543823242
1745660543.582095,0.021128613501787186,-0.045249175280332565,0.3136516511440277,0.33528196811676025,0.4363519549369812,-9.335901260375977
1745660543.6153953,-0.00016411617980338633,-0.04310638830065727,0.30974018573760986,0.27326810359954834,0.22036030888557434,-9.863919258117676
1745660543.6188219,-0.023543519899249077,-0.041197460144758224,0.3107903003692627,0.5365687012672424,0.059627097100019455,-10.064695358276367
1745660543.6222334,-0.043165162205696106,-0.040512628853321075,0.3127211928367615,0.16879770159721375,0.5081826448440552,-9.806612014770508
1745660543.6255305,-0.048846859484910965,-0.04153613746166229,0.3145896792411804,0.20959687232971191,0.499746710062027,-9.491419792175293
1745660543.6558852,-0.03927679732441902,-0.03916489705443382,0.311286985874176,0.17865844070911407,0.9643408060073853,-9.617398262023926
1745660543.6590953,-0.027344971895217896,-0.038363806903362274,0.3072403073310852,0.24581634998321533,1.0286682844161987,-10.001543998718262
1745660543.6617398,-0.006510472856462002,-0.03792485594749451,0.3051685392856598,0.09510493278503418,1.2459832429885864,-9.95286750793457
1745660543.6651678,0.023141542449593544,-0.032082706689834595,0.2981434762477875,0.14351919293403625,1.3338453769683838,-9.420804977416992
1745660543.6670692,0.03432982787489891,-0.03613179177045822,0.2999250590801239,0.405475914478302,0.9329191446304321,-9.585103034973145
1745660543.7004566,0.03560139983892441,-0.045687586069107056,0.29262933135032654,0.31450721621513367,1.111382007598877,-10.018379211425781
1745660543.7010317,0.03814703971147537,-0.00650206720456481,0.2979520857334137,0.6137765645980835,0.2374316155910492,-10.048233985900879
1745660543.7066965,0.013486030511558056,-0.01887914165854454,0.30228719115257263,0.757878839969635,0.6767467260360718,-9.331266403198242
1745660543.7067852,-0.021789882332086563,-0.02283705398440361,0.30335548520088196,0.8096529841423035,0.6242594718933105,-9.672994613647461
1745660543.7416139,0.025225788354873657,-0.02336699888110161,0.30385130643844604,1.043546199798584,0.9325180053710938,-10.093314170837402
1745660543.7429671,-0.021868428215384483,-0.012128720991313457,0.29957661032676697,0.27757853269577026,1.3334681987762451,-10.190954208374023
1745660543.7452714,0.02699635550379753,-0.01699351705610752,0.2992681562900543,0.4805200695991516,0.9580340385437012,-9.316994667053223
1745660543.748054,0.04690639674663544,-0.00882896687835455,0.2956068515777588,0.36132121086120605,1.8609644174575806,-9.169514656066895
1745660543.7499673,0.08583413809537888,-0.01104721613228321,0.2971920967102051,0.33098942041397095,1.3971418142318726,-10.34008502960205
1745660543.785401,0.13320910930633545,-0.0068594664335250854,0.29937055706977844,0.5450411438941956,1.4468555450439453,-10.189126968383789
1745660543.7859588,0.18826808035373688,0.007309808395802975,0.3036513924598694,0.26307737827301025,1.0696048736572266,-9.403164863586426
1745660543.788516,0.16737100481987,-0.0024474854581058025,0.31013673543930054,0.5064921379089355,0.6789849996566772,-9.095453262329102
1745660543.78972,0.1842809021472931,5.5607128160772845e-05,0.3135451078414917,0.49437427520751953,0.21558499336242676,-10.172592163085938
1745660543.827595,0.16192156076431274,0.009716924279928207,0.31459173560142517,0.6241089701652527,0.24819496273994446,-10.353285789489746
1745660543.8294969,0.09156552702188492,0.0012359112733975053,0.3114244341850281,0.26555222272872925,-0.14033639430999756,-9.687580108642578
1745660543.8320835,0.08573662489652634,0.011758525855839252,0.3103521764278412,0.5012609362602234,-0.14600709080696106,-9.1434326171875
1745660543.8345242,0.14055600762367249,0.012438776902854443,0.30328458547592163,-0.07228080183267593,0.6954512596130371,-9.531916618347168
1745660543.8727036,0.14774666726589203,0.02371630072593689,0.3013922870159149,0.14161233603954315,0.05864919349551201,-9.677557945251465
1745660543.8808906,0.13196799159049988,0.023389693349599838,0.3039628863334656,0.47265300154685974,0.06842298805713654,-9.817412376403809
1745660543.8865209,0.07779335975646973,0.004172919783741236,0.30276790261268616,0.4539044499397278,-0.3958849310874939,-10.119617462158203
1745660543.886699,0.06530602276325226,0.021656710654497147,0.3034045100212097,0.6099403500556946,-0.33415260910987854,-9.765380859375
1745660543.9154508,-0.012476210482418537,0.006612916477024555,0.2987774908542633,0.32899078726768494,0.05246790498495102,-9.582749366760254
1745660543.9197567,-0.03128599375486374,-0.0023962189443409443,0.2938879132270813,0.47650831937789917,-0.05978457257151604,-9.681702613830566
1745660543.9238126,-0.044976141303777695,0.006247679702937603,0.2897435426712036,0.3558103144168854,0.6086190938949585,-9.894195556640625
1745660543.9265852,-0.05050487071275711,0.0029384782537817955,0.2885506749153137,0.10915939509868622,0.8926418423652649,-9.81204891204834
1745660543.9295454,-0.02305775322020054,-0.0005543921142816544,0.2846912741661072,0.4273337423801422,0.9919567108154297,-9.376628875732422
1745660543.9591048,0.03304039686918259,-0.0012510445667430758,0.2855837941169739,0.16503886878490448,1.5053560733795166,-9.783249855041504
1745660543.9608781,0.061703432351350784,-0.0010562774259597063,0.2833879590034485,0.42604222893714905,1.1199709177017212,-10.107476234436035
1745660543.96424,0.11617286503314972,-0.005435876082628965,0.28739193081855774,0.347968727350235,1.2358142137527466,-9.753454208374023
1745660543.966443,0.15527041256427765,0.0013436060398817062,0.28666719794273376,0.29529687762260437,0.8681409955024719,-9.423551559448242
1745660544.0020003,0.14722271263599396,-0.01179906539618969,0.2864806056022644,0.3741838335990906,0.7663454413414001,-9.614789009094238
1745660544.0044405,0.15233388543128967,-0.010328812524676323,0.28109225630760193,0.29221147298812866,0.2886737585067749,-10.092820167541504
1745660544.0055773,0.12679754197597504,-0.003366821212694049,0.274699866771698,0.4798743724822998,0.21868062019348145,-9.76499080657959
1745660544.0070753,0.08058534562587738,-0.014957122504711151,0.2685287892818451,0.2944984436035156,0.08879854530096054,-9.580537796020508
1745660544.0089252,0.04491870850324631,-0.0198014285415411,0.2631567120552063,0.4948190152645111,-0.19318585097789764,-9.739952087402344
1745660544.0457678,0.034022629261016846,-0.015921039506793022,0.263700008392334,0.39983969926834106,-0.09101708233356476,-9.949447631835938
1745660544.0502157,-0.012311290018260479,-0.011099601164460182,0.2668762803077698,0.27640289068222046,-0.026272237300872803,-9.741960525512695
1745660544.054532,0.06053696200251579,-0.027273202314972878,0.25487685203552246,0.46329817175865173,0.31826773285865784,-9.89143180847168
1745660544.0577931,0.062428027391433716,-0.028529811650514603,0.25427231192588806,0.6443830728530884,0.36345094442367554,-9.950521469116211
1745660544.0900862,0.05971328541636467,-0.03545520827174187,0.25684380531311035,0.2761758863925934,0.5425682067871094,-9.804044723510742
1745660544.0908515,0.060839392244815826,-0.028043773025274277,0.2545200288295746,0.4160710275173187,0.32392972707748413,-9.547452926635742
1745660544.093231,0.070160873234272,-0.0359639972448349,0.25425484776496887,0.13742439448833466,0.6822377443313599,-9.747488975524902
1745660544.0957525,0.06881722807884216,-0.030659839510917664,0.25033265352249146,0.19760937988758087,0.35982513427734375,-9.969644546508789
1745660544.1322038,0.08449486643075943,-0.03903340920805931,0.24812261760234833,0.20035183429718018,0.6358883380889893,-9.753156661987305
1745660544.134121,0.08066608011722565,-0.02025458589196205,0.24282822012901306,0.017251253128051758,0.5282098054885864,-9.693349838256836
1745660544.137565,0.07842134684324265,-0.04347846284508705,0.23795267939567566,0.47652682662010193,0.19225537776947021,-9.547483444213867
1745660544.1416335,0.07170575857162476,-0.03504294902086258,0.23483891785144806,0.26107677817344666,0.27468419075012207,-9.963523864746094
1745660544.1768508,0.06298460066318512,-0.025937091559171677,0.23290205001831055,0.25983601808547974,0.10359779745340347,-9.94493579864502
1745660544.180425,0.037246961146593094,-0.03659357875585556,0.23060429096221924,0.2828651964664459,0.11604027450084686,-9.415918350219727
1745660544.1850872,0.050988197326660156,-0.025775324553251266,0.22820575535297394,0.31920599937438965,0.2361958771944046,-9.558321952819824
1745660544.1886013,0.019217420369386673,-0.03928316757082939,0.22365698218345642,0.4052094519138336,0.41975241899490356,-10.106660842895508
1745660544.1921308,0.04568935185670853,-0.03013821877539158,0.21752166748046875,0.1180497407913208,0.6245495080947876,-10.068326950073242
1745660544.2194936,0.09280712902545929,-0.017889153212308884,0.13741415739059448,0.16201861202716827,0.5348973274230957,-10.243856430053711
1745660544.22212,0.09507033228874207,-0.016410063952207565,0.13483406603336334,0.30886679887771606,0.15465286374092102,-9.690801620483398
1745660544.2308388,0.08536233752965927,-0.02308652736246586,0.13056950271129608,0.1867048293352127,0.3820926547050476,-9.321172714233398
1745660544.230937,0.08782824873924255,-0.010665480978786945,0.12599784135818481,0.6786708235740662,0.14595624804496765,-9.768341064453125
1745660544.261761,0.07783893495798111,-0.029303226619958878,0.11704584211111069,0.49290138483047485,0.5959423184394836,-10.340044021606445
1745660544.2650867,0.1141950860619545,0.02236504666507244,0.10623709857463837,0.6995853185653687,0.6773309111595154,-9.682490348815918
1745660544.268772,0.11637334525585175,-0.022214669734239578,0.0941602811217308,0.920011043548584,0.5817245841026306,-9.124024391174316
1745660544.2738066,0.1257089078426361,-0.012816628441214561,0.08965078741312027,0.7169443368911743,0.10991088300943375,-10.091507911682129
1745660544.2769806,0.16291990876197815,0.016085494309663773,0.08665897697210312,0.4347960352897644,0.3841114938259125,-10.44062614440918
1745660544.3040233,0.13881969451904297,0.008409002795815468,0.08426283299922943,0.05925452709197998,-0.20942692458629608,-9.435839653015137
1745660544.3048182,0.16116730868816376,0.023502299562096596,0.08227946609258652,0.5714592933654785,0.15399453043937683,-8.691083908081055
1745660544.3078158,0.10765574872493744,0.0015871847281232476,0.07067982107400894,0.4637346863746643,0.17459413409233093,-10.194435119628906
1745660544.311322,0.15540072321891785,0.0261483583599329,0.05605092644691467,0.43168672919273376,0.3983015716075897,-10.777856826782227
1745660544.3453653,0.09647689759731293,0.026948994025588036,0.04564056172966957,0.6688860058784485,0.0006594181177206337,-9.532933235168457
1745660544.3473418,0.12854036688804626,0.02109566144645214,0.038554269820451736,0.7046874761581421,-0.22243285179138184,-8.960809707641602
1745660544.3499365,0.06220308691263199,0.011860072612762451,0.03772233799099922,0.845370888710022,-0.12211941182613373,-10.182540893554688
1745660544.3527577,0.09256432205438614,0.01866757683455944,0.0373791828751564,0.39228004217147827,-0.117123082280159,-10.840553283691406
1745660544.354689,0.11278191953897476,0.048870060592889786,0.0351177342236042,0.5129666328430176,0.6099961996078491,-9.258672714233398
1745660544.389749,0.09993457794189453,0.01401535701006651,0.02874240279197693,0.5246781706809998,0.5179444551467896,-8.931966781616211
1745660544.394323,0.170691579580307,0.021402761340141296,0.01901089772582054,0.5334585905075073,1.0222432613372803,-10.202662467956543
1745660544.397886,0.1677437722682953,0.034984540194272995,0.005634491331875324,0.3629172742366791,0.7100962400436401,-10.788334846496582
1745660544.4016705,0.1402767151594162,0.05270838737487793,-0.03411071375012398,0.4302012324333191,-0.0947786420583725,-9.270291328430176
1745660544.430563,0.1435888260602951,0.03900850936770439,-0.0390133336186409,0.31434759497642517,0.20218834280967712,-8.950105667114258
1745660544.4331024,0.1527041494846344,0.05025367811322212,-0.03920526057481766,0.6156310439109802,0.055586863309144974,-10.059022903442383
1745660544.43498,0.1592174768447876,0.04736530780792236,-0.04638282209634781,0.5474168062210083,0.2889121472835541,-10.56087589263916
1745660544.4368167,0.18137767910957336,0.05392509698867798,-0.04868646711111069,0.6444207429885864,-0.003993965685367584,-9.588773727416992
1745660544.4797678,0.18596169352531433,0.0334644541144371,-0.046878837049007416,0.7133899927139282,0.11217446625232697,-9.15396785736084
1745660544.4813051,0.18699297308921814,0.03153699263930321,-0.04584494233131409,0.07974487543106079,-0.15110763907432556,-10.120121955871582
1745660544.4825048,0.19066104292869568,0.048845499753952026,-0.03899732977151871,0.38470083475112915,-0.46660685539245605,-10.07107925415039
1745660544.4853735,0.1369420737028122,0.011763950809836388,-0.035870201885700226,-0.2968433201313019,-0.44016075134277344,-9.62654972076416
1745660544.515738,0.14269369840621948,0.04412036016583443,-0.03267131373286247,-0.35003408789634705,-0.3886016011238098,-9.45443058013916
1745660544.5200922,0.09778062999248505,0.025116678327322006,-0.044080089777708054,-0.2271082103252411,0.47522106766700745,-9.434000015258789
1745660544.5273051,0.11712716519832611,0.029049981385469437,-0.049133215099573135,0.4431816041469574,-0.3631449341773987,-9.919164657592773
1745660544.5273538,0.09985123574733734,0.018440628424286842,-0.051398277282714844,0.4913521707057953,0.4195491671562195,-10.090535163879395
1745660544.5292928,0.10458294302225113,0.0019513324368745089,-0.041987426578998566,0.21062609553337097,-0.7276581525802612,-10.117873191833496
1745660544.5617309,0.12741103768348694,0.02606688067317009,-0.025485193356871605,0.16062378883361816,-0.3939405083656311,-9.198160171508789
1745660544.564118,0.06913714855909348,-0.022411037236452103,0.016792405396699905,0.3998957574367523,-0.2966214418411255,-10.224916458129883
1745660544.566241,-0.011589959263801575,-0.02712436579167843,0.018061436712741852,0.07625307142734528,-0.4154912829399109,-9.20606803894043
1745660544.5713131,0.02193417027592659,-0.04317132756114006,0.024348411709070206,0.06351102888584137,-0.40974321961402893,-9.079216957092285
1745660544.6049688,-0.015072119422256947,-0.015031993389129639,0.01963827572762966,0.46635550260543823,0.27656760811805725,-9.845288276672363
1745660544.6070697,0.0036509111523628235,-0.033076900988817215,0.017022253945469856,0.2782133221626282,0.23997816443443298,-10.590182304382324
1745660544.608941,0.049234144389629364,-0.02978607453405857,0.011922957375645638,0.8107609748840332,0.5080969333648682,-9.619512557983398
1745660544.6089923,0.0448182187974453,-0.03802087903022766,0.01440910529345274,0.45846518874168396,0.1396631896495819,-9.74403190612793
1745660544.6100364,0.10652776807546616,-0.031680356711149216,0.021769031882286072,0.34494295716285706,-0.20551085472106934,-10.047048568725586
1745660544.6461995,0.08777671307325363,-0.037274859845638275,0.03659140691161156,0.38375774025917053,-0.44271206855773926,-9.86645793914795
1745660544.6490047,0.11506390571594238,-0.025435935705900192,0.04357066750526428,-0.07588504999876022,-0.35645440220832825,-9.53071117401123
1745660544.6501722,0.09633541107177734,-0.021006714552640915,0.04293841868638992,0.101051926612854,-0.22054505348205566,-9.323317527770996
1745660544.6512043,0.09057219326496124,-0.03329642489552498,0.035122279077768326,0.06613200157880783,-0.2603367865085602,-9.90856647491455
1745660544.6899233,0.0717606320977211,-0.012587914243340492,0.026075970381498337,0.4154255986213684,-0.39728930592536926,-10.085997581481934
1745660544.6942499,0.017574386671185493,-0.028106585144996643,0.019025685265660286,0.36815938353538513,-0.9053117036819458,-9.986071586608887
1745660544.700209,0.006063162814825773,-0.021861959248781204,0.025024553760886192,0.34176456928253174,-1.0974586009979248,-9.607759475708008
1745660544.7030182,-0.05499236658215523,-0.016578050330281258,0.03581836819648743,0.4516994059085846,-1.1561390161514282,-9.60322380065918
1745660544.7075539,-0.054288845509290695,-0.021623549982905388,0.04513339325785637,0.3436685800552368,-0.7927996516227722,-9.853433609008789
1745660544.7336957,-0.07227557897567749,-0.009396599605679512,0.051303230226039886,0.43754521012306213,-0.2522304654121399,-9.911069869995117
1745660544.735135,-0.03347811847925186,-0.020466525107622147,0.051995448768138885,0.24671480059623718,0.4156852662563324,-9.772967338562012
1745660544.7382832,-0.005246567539870739,-0.009691323153674603,0.04575489088892937,0.09439168870449066,0.5590315461158752,-9.848508834838867
1745660544.741515,0.021450715139508247,-0.023732518777251244,0.03838776797056198,0.17436733841896057,0.5018423795700073,-9.893619537353516
1745660544.7762642,-0.03772471845149994,-0.015360318124294281,0.04698612540960312,-0.05824103206396103,-0.35909292101860046,-9.910619735717773
1745660544.7799191,-0.02627779170870781,-0.00509411096572876,0.04663167521357536,-0.07973916828632355,-0.269306480884552,-9.735349655151367
1745660544.779962,-0.03025336191058159,0.004697395488619804,0.04507539048790932,0.13971960544586182,-0.22573432326316833,-9.457571029663086
1745660544.7835495,-0.024532269686460495,-0.006780924741178751,0.045782044529914856,0.25656554102897644,-0.1224125400185585,-9.717816352844238
1745660544.8190498,-0.013717291876673698,0.003081700298935175,0.04576170817017555,0.5267078876495361,-0.26056164503097534,-10.177542686462402
1745660544.8251579,-0.023472510278224945,-0.004454262554645538,0.0485147088766098,0.33813756704330444,-0.36969664692878723,-10.099052429199219
1745660544.8265305,-0.015210295096039772,0.007499326020479202,0.05310129374265671,0.299001544713974,-0.4721403121948242,-9.516672134399414
1745660544.8277857,-0.045730698853731155,-0.004888000898063183,0.05489411950111389,0.365444153547287,-0.35358408093452454,-9.501485824584961
1745660544.8675282,-0.0301737692207098,0.0035582527052611113,0.05494073033332825,0.16976091265678406,-0.09225376695394516,-10.086376190185547
1745660544.8710563,-0.044523537158966064,0.006540041416883469,0.04995300620794296,0.36880359053611755,0.02048090100288391,-10.007255554199219
1745660544.8712873,-0.030108902603387833,-0.0023686778731644154,0.04440091922879219,0.1597866714000702,0.1838533878326416,-9.66836166381836
1745660544.8713615,-0.027457017451524734,0.000906375062186271,0.04202202707529068,0.2970482409000397,-0.09987367689609528,-9.744453430175781
1745660544.9050033,-0.014294681139290333,-0.00418990571051836,0.042698752135038376,0.31198665499687195,-0.12229659408330917,-10.042052268981934
1745660544.9077325,-0.006646500434726477,0.007431535515934229,0.04840623214840889,0.16187486052513123,-0.4223213195800781,-10.080582618713379
1745660544.912394,0.009500013664364815,0.03866899386048317,-0.07666605710983276,0.7300959229469299,-0.3956016004085541,-10.115060806274414
1745660544.916068,0.014115417376160622,0.050871290266513824,-0.08541375398635864,0.2989332377910614,0.05707536265254021,-10.547760009765625
1745660544.9458075,0.007035373244434595,0.05778886750340462,-0.09185036271810532,0.2883927822113037,-0.4240763783454895,-9.499582290649414
1745660544.9476457,0.033311426639556885,0.04472558572888374,-0.08930443972349167,0.21558710932731628,0.13271880149841309,-8.8185396194458
1745660544.9498258,0.03438495844602585,0.05436290055513382,-0.09245824068784714,0.389989972114563,-0.20232972502708435,-9.944841384887695
1745660544.9535952,0.057347435504198074,0.05620751529932022,-0.09451524168252945,0.7308918237686157,-0.16720382869243622,-10.434501647949219
1745660544.955671,0.06529949605464935,0.05673549324274063,-0.09455051273107529,0.683560848236084,-0.11878134310245514,-9.675149917602539
1745660544.9919558,0.06046699732542038,0.04677949100732803,-0.09642744809389114,0.9245184063911438,-0.34839850664138794,-9.28104305267334
1745660544.9933007,0.05319438502192497,0.038071975111961365,-0.09915818274021149,0.6207592487335205,-0.2726476192474365,-10.075798988342285
1745660544.996332,0.05249832943081856,0.0490565225481987,-0.10196461528539658,0.7098785638809204,-0.511837363243103,-10.243855476379395
1745660544.9993024,0.027716422453522682,0.04380069673061371,-0.10697340965270996,0.5575259327888489,-0.14744354784488678,-9.464620590209961
1745660545.0366483,0.031140780076384544,0.04047761112451553,-0.11356260627508163,0.4391542375087738,-0.30636587738990784,-9.315510749816895
1745660545.041894,0.030008625239133835,0.035589516162872314,-0.1194913238286972,0.6223418116569519,0.09121199697256088,-9.701269149780273
1745660545.04311,0.03521927446126938,0.04498984292149544,-0.1245364397764206,0.5299049615859985,-0.08603499829769135,-10.217185020446777
1745660545.0441747,0.062010813504457474,0.04270678013563156,-0.12598340213298798,0.6817651391029358,-0.154375821352005,-9.678609848022461
1745660545.0763228,0.06558535248041153,0.03562787547707558,-0.12192068994045258,0.42340579628944397,-0.14272169768810272,-9.425416946411133
1745660545.0787456,0.08788046985864639,0.042305003851652145,-0.1186758428812027,0.5140713453292847,-0.49030598998069763,-9.696742057800293
1745660545.0815392,0.0794643834233284,0.03793676570057869,-0.113642118871212,0.4155164659023285,-0.3618411123752594,-9.812820434570312
1745660545.0846915,0.0806654542684555,0.03802615404129028,-0.11226217448711395,0.36036166548728943,-0.5171321034431458,-9.691927909851074
1745660545.0891826,0.05410520359873772,0.03662089630961418,-0.11719260364770889,0.3700730502605438,-0.2853109538555145,-9.599081993103027
1745660545.1197996,0.04276607185602188,0.035427723079919815,-0.1237536072731018,0.24515970051288605,-0.40057793259620667,-9.758122444152832
1745660545.122023,0.026110371574759483,0.031959351152181625,-0.13048061728477478,0.7418460845947266,-0.34122103452682495,-9.664666175842285
1745660545.1245928,0.08497682958841324,0.007420186884701252,-0.1293608844280243,0.43468913435935974,-0.025252288207411766,-9.589369773864746
1745660545.126144,0.0948769673705101,0.010660001076757908,-0.132656529545784,0.2932160198688507,0.032379329204559326,-9.437154769897461
1745660545.1615632,0.08059421181678772,0.004707144573330879,-0.13594511151313782,0.514041543006897,-0.6480411291122437,-9.832425117492676
1745660545.1673152,0.06939571350812912,0.001512664370238781,-0.13404738903045654,0.5974130630493164,-0.6280633211135864,-9.934389114379883
1745660545.1721,0.038553230464458466,0.00972081534564495,-0.13512054085731506,0.5895467400550842,-0.8521541357040405,-9.681304931640625
1745660545.1734273,0.016762688755989075,-0.006722872145473957,-0.1322624534368515,0.7730147242546082,-0.7439332008361816,-9.425801277160645
1745660545.175322,0.010213928297162056,0.00023929766030050814,-0.13185429573059082,0.5344502925872803,-0.4591955244541168,-9.895916938781738
1745660545.2082062,-0.00640864809975028,-0.005484003573656082,-0.13429579138755798,0.6651690602302551,-0.4729890823364258,-10.01065731048584
1745660545.2132065,0.01597139611840248,-0.005305835511535406,-0.13672468066215515,0.28021520376205444,-0.03297148644924164,-9.607172966003418
1745660545.2147734,0.012925753369927406,-0.002684712177142501,-0.1394348442554474,0.3461245596408844,-0.09407913684844971,-9.354137420654297
1745660545.2149057,0.0377563014626503,-0.006933453492820263,-0.1432207077741623,0.37658628821372986,0.037608552724123,-9.714051246643066
1745660545.247782,0.05096849054098129,-0.0031210503075271845,-0.1433040350675583,0.36214715242385864,-0.09627112746238708,-10.032386779785156
1745660545.2517035,0.06424480676651001,-0.009992253966629505,-0.14518702030181885,0.7268673181533813,-0.1930050402879715,-9.704988479614258
1745660545.255019,0.07190100103616714,-0.006202157121151686,-0.14548064768314362,0.46198850870132446,-0.24029703438282013,-9.65958309173584
1745660545.2582743,0.029491117224097252,-0.05128740146756172,-0.14523065090179443,0.2792629599571228,-0.521953284740448,-9.821358680725098
1745660545.291087,0.020427968353033066,-0.051364798098802567,-0.13964295387268066,0.1320798695087433,-0.40316057205200195,-9.70421028137207
1745660545.2945104,0.02669316530227661,-0.04613489657640457,-0.1371064931154251,0.30274197459220886,-0.6502904891967773,-9.701250076293945
1745660545.297509,0.020940681919455528,-0.0542520172894001,-0.1341802179813385,0.28156575560569763,-0.27930060029029846,-9.757732391357422
1745660545.299947,0.02967510186135769,-0.04652481526136398,-0.13174591958522797,0.21928171813488007,-0.4570234715938568,-9.921449661254883
1745660545.336736,0.026461442932486534,-0.049449365586042404,-0.134079247713089,0.3492773175239563,-0.2648215889930725,-9.722785949707031
1745660545.3367946,0.026788318529725075,-0.05041586235165596,-0.13563238084316254,0.14887169003486633,-0.3957895338535309,-9.846354484558105
1745660545.3381915,0.020146291702985764,-0.051455605775117874,-0.13348516821861267,0.44407278299331665,-0.42992767691612244,-9.866676330566406
1745660545.3395195,0.014923827722668648,-0.060006190091371536,-0.13790838420391083,0.14878436923027039,-0.355150431394577,-10.032666206359863
1745660545.343378,0.022825190797448158,-0.04421699419617653,-0.13796362280845642,0.20960012078285217,-0.6308764219284058,-9.700289726257324
1745660545.3804348,0.004290304146707058,-0.05764362961053848,-0.13689258694648743,0.25745779275894165,-0.2886340916156769,-9.462261199951172
1745660545.3829372,0.00044849514961242676,-0.051108621060848236,-0.13477270305156708,0.29776710271835327,-0.6139668822288513,-9.891626358032227
1745660545.3882024,0.00946829654276371,-0.047162268310785294,-0.1309245526790619,0.4230976998806,-0.4259723722934723,-10.054840087890625
1745660545.3893116,0.006654776632785797,-0.046814627945423126,-0.12920567393302917,0.21937379240989685,-0.4019396901130676,-9.916546821594238
1745660545.4216528,0.016313761472702026,-0.05246663838624954,-0.12736868858337402,0.4260704517364502,-0.4343969225883484,-9.6534423828125
1745660545.424532,0.012914841994643211,-0.04802195727825165,-0.12401962280273438,0.23582515120506287,-0.17025873064994812,-9.807430267333984
1745660545.4259472,0.02721381187438965,-0.04430386424064636,-0.1250268965959549,0.2791542410850525,-0.31063345074653625,-10.010043144226074
1745660545.4260912,0.015560763888061047,-0.051783762872219086,-0.12962472438812256,0.2112659215927124,-0.14700362086296082,-9.702573776245117
1745660545.428202,0.02614268660545349,-0.037144649773836136,-0.12961018085479736,0.23689588904380798,-0.4401574730873108,-9.597358703613281
1745660545.4639742,0.019039979204535484,-0.04980146139860153,-0.13110224902629852,0.4441673159599304,-0.22568866610527039,-9.855278015136719
1745660545.4656966,0.019510403275489807,-0.04754869267344475,-0.12957103550434113,0.1587684005498886,-0.5049508810043335,-10.29809856414795
1745660545.4701269,0.015541648492217064,-0.03485802933573723,-0.14914202690124512,0.8945062756538391,-0.29290369153022766,-9.723301887512207
1745660545.472544,0.040648408234119415,-0.017177041620016098,-0.145763099193573,0.8994167447090149,-0.5476273894309998,-9.84896469116211
1745660545.508774,0.032561045140028,-0.02155911922454834,-0.14549514651298523,0.5801664590835571,-0.34407562017440796,-10.142277717590332
1745660545.512082,0.062075208872556686,-0.011517017148435116,-0.14559537172317505,0.34550315141677856,-0.5491214990615845,-9.759228706359863
1745660545.513045,0.03887183219194412,-0.00178266572766006,-0.1467367708683014,0.446677029132843,-0.23115000128746033,-9.219976425170898
1745660545.514091,0.035661958158016205,-0.010693175718188286,-0.15757641196250916,0.3397339880466461,-0.23729082942008972,-9.839349746704102
1745660545.5521798,0.06298224627971649,-0.0020985968876630068,-0.16540288925170898,0.6659102439880371,-0.15838566422462463,-10.231447219848633
1745660545.5542781,0.046280182898044586,0.005765030160546303,-0.1735946238040924,0.35359787940979004,-0.2942572236061096,-10.004584312438965
1745660545.557626,0.04644130915403366,0.001780937658622861,-0.17759838700294495,0.6545757055282593,-0.7973637580871582,-9.272964477539062
1745660545.5610137,0.014441405422985554,0.0006075580604374409,-0.17419324815273285,0.7006785273551941,-0.7341312766075134,-9.649473190307617
1745660545.5941787,0.03561710566282272,0.014192035421729088,-0.17108145356178284,0.6128612756729126,-0.8373848795890808,-10.485443115234375
1745660545.5971437,0.02225758135318756,0.0133208017796278,-0.16857150197029114,0.6602575182914734,-0.25792282819747925,-9.821200370788574
1745660545.5977533,0.03996565192937851,0.013174928724765778,-0.1743701547384262,0.45923060178756714,-0.23670265078544617,-9.256418228149414
1745660545.5978158,0.04307040572166443,0.014281069859862328,-0.1797068864107132,0.46441158652305603,0.06854051351547241,-9.641489028930664
1745660545.5988855,0.06178542226552963,0.012667015194892883,-0.18789076805114746,0.3613158166408539,-0.1296842098236084,-10.413140296936035
1745660545.6364179,0.06223776191473007,0.020168432965874672,-0.23664431273937225,0.5783479809761047,-0.4413617253303528,-9.821855545043945
1745660545.6388092,0.04953492060303688,0.0337076261639595,-0.23812589049339294,0.6110022664070129,-0.5826509594917297,-9.762091636657715
1745660545.6418128,0.050063204020261765,0.021433275192975998,-0.23830349743366241,0.6515859365463257,-0.6818429827690125,-9.620706558227539
1745660545.646175,0.05519990250468254,0.02951781451702118,-0.23484285175800323,0.46245795488357544,-0.4781625270843506,-9.612634658813477
1745660545.6785705,0.04478675127029419,0.020209919661283493,-0.2353893518447876,0.8063348531723022,-0.717187762260437,-9.733915328979492
1745660545.6806905,0.06956888735294342,0.024730850011110306,-0.2346092164516449,0.4493776261806488,-0.3062855303287506,-9.936250686645508
1745660545.6830685,0.062293924391269684,0.02065875753760338,-0.23673078417778015,0.6320074796676636,-0.5495261549949646,-9.711435317993164
1745660545.6860838,0.07777135074138641,0.017105871811509132,-0.23713453114032745,0.5180357694625854,-0.2585703730583191,-9.514500617980957
1745660545.6886165,0.0633692741394043,0.023818030953407288,-0.24062490463256836,0.4831511974334717,-0.6187032461166382,-9.770135879516602
1745660545.7221088,0.07136591523885727,0.008389736525714397,-0.2435901165008545,0.6016499400138855,-0.5563109517097473,-9.72942066192627
1745660545.724549,0.06970297545194626,0.023505467921495438,-0.24545767903327942,0.48874253034591675,-0.6000760197639465,-9.68874454498291
1745660545.7263057,0.05043541267514229,0.014390097931027412,-0.2434879094362259,0.777000367641449,-0.8042513132095337,-9.655693054199219
1745660545.729846,0.06573034077882767,0.01031663827598095,-0.24367260932922363,0.5256208181381226,-0.5106337666511536,-9.745849609375
1745660545.76784,0.04752868413925171,0.013944444246590137,-0.241878941655159,0.734427809715271,-0.7968568205833435,-9.844797134399414
1745660545.7692347,0.06129007413983345,0.011499498970806599,-0.24439403414726257,0.510228157043457,-0.42645567655563354,-9.667691230773926
1745660545.7713377,0.049172498285770416,0.009402498602867126,-0.24388031661510468,0.4667559564113617,-0.6834341287612915,-9.566473007202148
1745660545.7771153,0.05500275641679764,0.003979751840233803,-0.2445179671049118,0.6730356216430664,-0.5304781794548035,-9.560464859008789
1745660545.7772498,0.049631647765636444,0.012636348605155945,-0.2474559247493744,0.4093326926231384,-0.562653660774231,-9.985086441040039
1745660545.810412,0.058462101966142654,0.002306523034349084,-0.24595379829406738,0.6493307948112488,-0.7194650769233704,-9.761697769165039
1745660545.8153446,0.05412014573812485,0.007551012095063925,-0.24534158408641815,0.5031453967094421,-0.47184547781944275,-9.477986335754395
1745660545.8180923,0.03733820840716362,-0.005232137627899647,-0.25042012333869934,0.6021831631660461,-0.8612683415412903,-9.878570556640625
1745660545.8534305,0.05310327932238579,-0.012596766464412212,-0.24910199642181396,0.6933285593986511,-0.5531355142593384,-9.736590385437012
1745660545.8559656,0.03762482851743698,-0.0008522368734702468,-0.250079482793808,0.3770686984062195,-0.6380629539489746,-9.716516494750977
1745660545.8576941,0.04113195091485977,-0.01558190118521452,-0.2514891028404236,0.6885786056518555,-0.770943284034729,-9.570024490356445
1745660545.861144,0.04793563485145569,-0.009797228500247002,-0.2522863745689392,0.4811093211174011,-0.43892717361450195,-9.76904010772705
1745660545.8958385,0.03604628145694733,-0.008065970614552498,-0.25210729241371155,0.5749454498291016,-0.786008358001709,-9.901241302490234
1745660545.898755,0.047264065593481064,-0.015549908392131329,-0.25350040197372437,0.477848619222641,-0.4202234745025635,-9.620420455932617
1745660545.8999424,0.036863796412944794,-0.012637851759791374,-0.2535279095172882,0.5644529461860657,-0.8743597269058228,-9.531072616577148
1745660545.9004138,0.03748607262969017,-0.014668544754385948,-0.25229620933532715,0.6110438108444214,-0.598997950553894,-9.74388599395752
1745660545.902929,0.03608937934041023,-0.010659157298505306,-0.25311940908432007,0.4800218641757965,-0.7723966836929321,-9.981637954711914
1745660545.939227,0.03463154286146164,-0.01823725365102291,-0.25101977586746216,0.6593440175056458,-0.7151597738265991,-9.665383338928223
1745660545.9413395,0.027813633903861046,-0.011243625544011593,-0.25270766019821167,0.42097657918930054,-0.5567600131034851,-9.595888137817383
1745660545.9426143,0.029144633561372757,-0.01697130873799324,-0.2514861226081848,0.6322420835494995,-0.7627659440040588,-9.745155334472656
1745660545.9448867,0.03886612132191658,-0.02009993977844715,-0.2561938166618347,0.40998753905296326,-0.464174747467041,-9.82756519317627
1745660545.983495,0.02254227176308632,-0.010305577889084816,-0.25713062286376953,0.6048449277877808,-0.7628480792045593,-9.73328685760498
1745660545.986749,-0.0024575565475970507,-0.02674918994307518,-0.26392263174057007,0.45970863103866577,-0.6169561147689819,-9.792187690734863
1745660545.9890428,0.004147354979068041,-0.027445504441857338,-0.26502472162246704,0.4794849753379822,-0.8936609029769897,-9.981773376464844
1745660545.9918876,-0.004745532758533955,-0.02385547198355198,-0.2625252604484558,0.5324234366416931,-0.5948908925056458,-9.71113395690918
1745660546.0245476,-0.010632484219968319,-0.01893312856554985,-0.26376795768737793,0.2974827289581299,-0.7891683578491211,-9.740477561950684
1745660546.0261676,-0.004008703865110874,-0.028505075722932816,-0.26357632875442505,0.6168521642684937,-0.6314884424209595,-9.65598201751709
1745660546.027583,-0.004636818077415228,-0.0216465312987566,-0.2658248841762543,0.4117613732814789,-0.436816930770874,-9.863059043884277
1745660546.0288408,0.004475530236959457,-0.018961826339364052,-0.2685447335243225,0.520825982093811,-0.7758059501647949,-9.867022514343262
1745660546.0316021,0.00400697672739625,-0.02436525747179985,-0.2662562429904938,0.32441872358322144,-0.4337906837463379,-9.641535758972168
1745660546.0684893,0.002700960263609886,-0.015850860625505447,-0.2677745521068573,0.47020572423934937,-0.879400372505188,-9.763877868652344
1745660546.0685303,0.00033625290961936116,-0.022912658751010895,-0.26417484879493713,0.4686129093170166,-0.5966955423355103,-9.856120109558105
1745660546.0711143,0.00161044392734766,-0.018146086484193802,-0.26513227820396423,0.36925336718559265,-0.7580475807189941,-9.874174118041992
1745660546.073598,-0.007110512349754572,-0.019722187891602516,-0.268387109041214,0.6182528734207153,-0.6029696464538574,-9.58470344543457
1745660546.1124644,-0.007688392885029316,-0.020563852041959763,-0.26922816038131714,0.40797480940818787,-0.595880389213562,-9.838635444641113
1745660546.1146097,0.0004422202764544636,-0.021944064646959305,-0.26967480778694153,0.6282134056091309,-0.7628105282783508,-9.893261909484863
1745660546.1172702,-0.007049101404845715,-0.020459149032831192,-0.2694166898727417,0.3830273747444153,-0.5121914148330688,-9.836095809936523
1745660546.1198967,-0.0069445595145225525,-0.013601422309875488,-0.2682182490825653,0.4431300163269043,-0.8220620155334473,-9.701204299926758
1745660546.1520758,0.0003699272929225117,-0.023828044533729553,-0.26714175939559937,0.4378491938114166,-0.45566311478614807,-9.643054008483887
1745660546.1543372,0.0012575261062011123,-0.016158053651452065,-0.2710224688053131,0.3588460087776184,-0.5595142841339111,-9.998624801635742
1745660546.155913,0.0104190269485116,-0.017767971381545067,-0.27160724997520447,0.5837656855583191,-0.5016201734542847,-9.834576606750488
1745660546.157703,0.011405589990317822,-0.022130271419882774,-0.27182134985923767,0.354765385389328,-0.5480939149856567,-9.679404258728027
1745660546.1595736,0.008281081914901733,-0.018536891788244247,-0.2718648314476013,0.6198753118515015,-0.8249385952949524,-9.730859756469727
1745660546.1972532,-0.0020412742160260677,-0.013852384872734547,-0.27235788106918335,0.4802016615867615,-0.49226436018943787,-9.764106750488281
1745660546.199427,0.010830741375684738,-0.013122648000717163,-0.27341872453689575,0.4428940713405609,-0.6317543983459473,-9.75519847869873
1745660546.202506,-0.0016529366839677095,-0.015274381265044212,-0.2746986150741577,0.6089763045310974,-0.5603722333908081,-9.768550872802734
1745660546.20576,0.0045071253553032875,-0.01572386920452118,-0.2752802073955536,0.3430327773094177,-0.6159222722053528,-9.942991256713867
1745660546.239008,0.0059333136305212975,-0.014247219078242779,-0.2778511047363281,0.5865892767906189,-0.7155632376670837,-9.703392028808594
1745660546.2425008,-0.009088569320738316,-0.0164401326328516,-0.2765105366706848,0.3669945001602173,-0.5677809715270996,-9.683296203613281
1745660546.2460828,-0.0052254353649914265,-0.012230907566845417,-0.27718856930732727,0.5016525387763977,-0.852521538734436,-9.85382080078125
1745660546.2493193,-0.006196021568030119,-0.0165792815387249,-0.276967316865921,0.4911774694919586,-0.4497016966342926,-9.784645080566406
1745660546.2525527,-0.004587539471685886,-0.011261849664151669,-0.2775753140449524,0.3915487825870514,-0.7024489641189575,-9.790842056274414
1745660546.28381,-0.0004503061936702579,-0.017248626798391342,-0.2791353762149811,0.5890904664993286,-0.5344585180282593,-9.660398483276367
1745660546.2876449,-0.0018671114230528474,-0.017993774265050888,-0.2773812413215637,0.35377585887908936,-0.6261377334594727,-9.82853889465332
1745660546.2914267,0.0016797732096165419,-0.011222003027796745,-0.2759930491447449,0.5890140533447266,-0.7347015142440796,-9.811620712280273
1745660546.2944262,-0.0039323135279119015,-0.018269676715135574,-0.2778495252132416,0.41446200013160706,-0.617764949798584,-9.784405708312988
1745660546.3256154,0.00726738665252924,-0.011402085423469543,-0.2757786214351654,0.4443979859352112,-0.6936396360397339,-9.712754249572754
1745660546.3275497,-0.011388258077204227,-0.016292443498969078,-0.277507483959198,0.5037481188774109,-0.48077359795570374,-9.659772872924805
1745660546.3313198,0.022239407524466515,-0.009399604983627796,-0.28910118341445923,0.522007942199707,-0.7118070721626282,-9.753996849060059
1745660546.334953,0.012012896127998829,-0.02109428122639656,-0.28746533393859863,0.5137272477149963,-0.5157594680786133,-9.953211784362793
1745660546.368984,0.02313443459570408,-0.013266717083752155,-0.28863415122032166,0.37829339504241943,-0.6770228147506714,-9.822357177734375
1745660546.3706992,0.005725120659917593,-0.016980348154902458,-0.28640100359916687,0.5053412914276123,-0.6918459534645081,-9.517499923706055
1745660546.3722749,0.018057597801089287,-0.016666194424033165,-0.2884763777256012,0.33113789558410645,-0.6253710985183716,-9.717032432556152
1745660546.374976,0.015293918550014496,-0.01465444266796112,-0.2866864502429962,0.5938689112663269,-0.6073030233383179,-9.811153411865234
1745660546.4126318,0.011303563602268696,-0.017987756058573723,-0.28693392872810364,0.4209887981414795,-0.5060248374938965,-9.903385162353516
1745660546.4155576,0.029738370329141617,-0.01137878280133009,-0.28773656487464905,0.5088861584663391,-0.6885389089584351,-9.698200225830078
1745660546.4156475,0.016541868448257446,-0.023827534168958664,-0.29002100229263306,0.4950898289680481,-0.44247299432754517,-9.5548677444458
1745660546.4171715,0.028463691473007202,-0.010365566238760948,-0.289289653301239,0.3491358160972595,-0.663987934589386,-9.85860824584961
1745660546.4180627,0.026709944009780884,-0.013713407330214977,-0.28848370909690857,0.5215774178504944,-0.49816426634788513,-9.754768371582031
1745660546.4559052,0.028944645076990128,-0.01450533140450716,-0.29026880860328674,0.39105239510536194,-0.6344934701919556,-9.65764045715332
1745660546.457057,0.027243539690971375,-0.012509284541010857,-0.2898693084716797,0.5743144750595093,-0.672563910484314,-9.688931465148926
1745660546.4610102,0.02626791223883629,-0.02242235839366913,-0.29113274812698364,0.45480114221572876,-0.6339993476867676,-9.907342910766602
1745660546.4613988,0.028079668059945107,-0.009401539340615273,-0.29034900665283203,0.42912155389785767,-0.673041582107544,-9.847420692443848
1745660546.498725,0.015410083346068859,-0.018960293382406235,-0.2880760133266449,0.485063374042511,-0.6689624786376953,-9.579732894897461
1745660546.5017092,0.02962837740778923,-0.015617315657436848,-0.29109281301498413,0.37976211309432983,-0.661716103553772,-9.636459350585938
1745660546.504136,0.016754264011979103,-0.016553908586502075,-0.2892083525657654,0.5749987363815308,-0.6358224749565125,-9.8125638961792
1745660546.5067718,0.024288509041070938,-0.014917774125933647,-0.29159414768218994,0.37753528356552124,-0.5514688491821289,-9.913965225219727
1745660546.510984,0.029946554452180862,-0.010157409124076366,-0.29069405794143677,0.4623962938785553,-0.6482895612716675,-9.644479751586914
1745660546.5411656,0.025638777762651443,-0.012494913302361965,-0.2926977574825287,0.32354986667633057,-0.7007278800010681,-9.758123397827148
1745660546.5421748,0.01929546892642975,-0.01965840347111225,-0.293281614780426,0.5042253136634827,-0.5475806593894958,-9.530572891235352
1745660546.5447423,0.02288309670984745,-0.021032724529504776,-0.29279905557632446,0.42203646898269653,-0.5953564047813416,-9.788507461547852
1745660546.5830195,0.026894157752394676,-0.013475884683430195,-0.29358211159706116,0.5502304434776306,-0.6565616726875305,-9.939657211303711
1745660546.5852597,0.022603655233979225,-0.02411935105919838,-0.29209059476852417,0.45709171891212463,-0.6503775715827942,-9.834826469421387
1745660546.5876086,0.02261793054640293,-0.015568445436656475,-0.2956811785697937,0.4153752326965332,-0.6975983381271362,-9.666376113891602
1745660546.5905366,0.007859727367758751,-0.024145957082509995,-0.2922607362270355,0.5300214290618896,-0.6948702931404114,-9.65282154083252
1745660546.593594,0.028034633025527,-0.017294079065322876,-0.294678270816803,0.3800167441368103,-0.571820855140686,-9.778542518615723
1745660546.6297,0.012454472482204437,-0.01606130041182041,-0.29639118909835815,0.5649627447128296,-0.6319448351860046,-9.751678466796875
1745660546.630855,0.019426176324486732,-0.022943831980228424,-0.2965010106563568,0.41342562437057495,-0.6059979796409607,-9.780435562133789
1745660546.6335127,0.028744205832481384,-0.01526673138141632,-0.29573363065719604,0.4351906180381775,-0.6381627321243286,-9.760985374450684
1745660546.6361191,0.018758416175842285,-0.026070673018693924,-0.29636287689208984,0.3970058560371399,-0.6162561774253845,-9.818333625793457
1745660546.669447,0.03561235964298248,-0.009549318812787533,-0.29647472500801086,0.38268059492111206,-0.5970175862312317,-9.716421127319336
1745660546.675841,0.019451450556516647,-0.02387595921754837,-0.296099990606308,0.5259943008422852,-0.6596196889877319,-9.652941703796387
1745660546.6760538,0.033265430480241776,-0.02078818343579769,-0.29611045122146606,0.425892174243927,-0.6544660925865173,-9.82604694366455
1745660546.6819987,0.015984002500772476,-0.01938028447329998,-0.2938839793205261,0.5464103817939758,-0.8160206079483032,-9.863229751586914
1745660546.6857393,0.03239233419299126,-0.015777455642819405,-0.2966732680797577,0.32726946473121643,-0.6419813632965088,-9.806354522705078
1745660546.7146828,0.01685689203441143,-0.02173570729792118,-0.2967992126941681,0.5302373766899109,-0.5846253633499146,-9.582440376281738
1745660546.714785,0.035944513976573944,-0.0165657140314579,-0.29580506682395935,0.30036014318466187,-0.6624624729156494,-9.780036926269531
1745660546.7162175,0.025455813854932785,-0.016586914658546448,-0.29739442467689514,0.5012193322181702,-0.6541658639907837,-9.794931411743164
1745660546.716271,0.03243256360292435,-0.023120630532503128,-0.2930675148963928,0.45092374086380005,-0.6372537612915039,-9.84065055847168
1745660546.7549217,0.03603772819042206,-0.013919897377490997,-0.29454365372657776,0.38496580719947815,-0.716225266456604,-9.808917999267578
1745660546.758625,0.02817399799823761,-0.024027444422245026,-0.29232320189476013,0.452440083026886,-0.6866136789321899,-9.687149047851562
1745660546.7627182,0.03158989176154137,-0.01641710102558136,-0.2924894690513611,0.32169657945632935,-0.6489092111587524,-9.765243530273438
1745660546.7669542,0.019800866022706032,-0.01956963911652565,-0.29305732250213623,0.5205539464950562,-0.7347207069396973,-9.772655487060547
1745660546.8006816,0.035216301679611206,-0.020198946818709373,-0.2968800365924835,0.34982824325561523,-0.5443425178527832,-9.725031852722168
1745660546.8038495,0.020008226856589317,-0.013429379090666771,-0.2961340844631195,0.46285438537597656,-0.7201138138771057,-9.682794570922852
1745660546.8060372,0.021587278693914413,-0.020592045038938522,-0.29596635699272156,0.41389450430870056,-0.7003509998321533,-9.765660285949707
1745660546.8106766,0.0324893556535244,-0.012464897707104683,-0.29535621404647827,0.37640252709388733,-0.6443799734115601,-9.866793632507324
1745660546.840418,0.019607162103056908,-0.021472826600074768,-0.2937809228897095,0.4765445291996002,-0.6952699422836304,-9.768592834472656
1745660546.8437939,0.039483100175857544,-0.011623497121036053,-0.2936719059944153,0.33223769068717957,-0.5773946046829224,-9.685091018676758
1745660546.8460343,0.02678593434393406,-0.0197564996778965,-0.2929803133010864,0.5163367986679077,-0.7231206893920898,-9.667106628417969
1745660546.8504448,0.040677428245544434,-0.0166015662252903,-0.2938693165779114,0.33069169521331787,-0.5312615036964417,-9.86414623260498
1745660546.8517423,0.031118053942918777,-0.010863776318728924,-0.29337143898010254,0.45089253783226013,-0.8031770586967468,-9.818894386291504
1745660546.8889418,0.03899380564689636,-0.019274502992630005,-0.29472512006759644,0.36779338121414185,-0.5900070071220398,-9.691365242004395
1745660546.8890285,0.01965242624282837,-0.012828221544623375,-0.29369211196899414,0.47411108016967773,-0.8096669316291809,-9.595381736755371
1745660546.893307,0.026367703452706337,-0.021181974560022354,-0.2940179407596588,0.45945364236831665,-0.6535221934318542,-9.831527709960938
1745660546.8934603,0.03303902596235275,-0.010005384683609009,-0.2927265763282776,0.34723764657974243,-0.5881037712097168,-9.939811706542969
1745660546.9286497,0.02807312272489071,-0.016558807343244553,-0.2941369414329529,0.4819034934043884,-0.6706323027610779,-9.684967994689941
1745660546.9302082,0.04664234071969986,-0.010817166417837143,-0.29284968972206116,0.2964625358581543,-0.5435705780982971,-9.681103706359863
1745660546.9319398,0.03302789479494095,-0.01900487393140793,-0.29361456632614136,0.5419052243232727,-0.8467540740966797,-9.729398727416992
1745660546.9349134,0.04424165561795235,-0.015307729132473469,-0.29188525676727295,0.36471885442733765,-0.5870585441589355,-9.891619682312012
1745660546.9696994,0.03872314840555191,-0.009936636313796043,-0.2915967106819153,0.45708829164505005,-0.8923479318618774,-9.79426097869873
1745660546.9738965,0.03960942104458809,-0.019898559898138046,-0.29083356261253357,0.4391036927700043,-0.6680539846420288,-9.58639144897461
1745660546.9761505,0.028091227635741234,-0.009578458033502102,-0.29174375534057617,0.4271460473537445,-0.7720633745193481,-9.812989234924316
1745660546.98701,0.02842051163315773,-0.019434917718172073,-0.291856050491333,0.5519647002220154,-0.7847573161125183,-9.892474174499512
1745660546.987063,0.037115372717380524,-0.01116693764925003,-0.2936337888240814,0.23457951843738556,-0.6119326949119568,-9.74954605102539
1745660547.0143297,0.017676007002592087,-0.01592990942299366,-0.2932007908821106,0.587344765663147,-0.7687088251113892,-9.529558181762695
1745660547.0167048,0.030173424631357193,-0.015857074409723282,-0.29523152112960815,0.34032827615737915,-0.626242995262146,-9.715044021606445
1745660547.0181005,0.028466666117310524,-0.009958399459719658,-0.29370349645614624,0.4786086678504944,-0.7581751942634583,-9.948071479797363
1745660547.0187712,0.02989535965025425,-0.019258180633187294,-0.291459858417511,0.5201442837715149,-0.652115523815155,-9.812255859375
1745660547.058997,0.03017573431134224,-0.016940293833613396,-0.289029598236084,0.4263222813606262,-0.6047853827476501,-9.596455574035645
1745660547.0622044,0.021201442927122116,-0.008230961859226227,-0.28853827714920044,0.4030744433403015,-0.8189582824707031,-9.761175155639648
1745660547.0650458,0.02027732878923416,-0.017398452386260033,-0.28756529092788696,0.5516864657402039,-0.7601298093795776,-9.833200454711914
1745660547.0675106,0.02886233665049076,-0.011098160408437252,-0.2902947962284088,0.32324618101119995,-0.6181610226631165,-9.862045288085938
1745660547.0993156,0.017101548612117767,-0.01564531959593296,-0.2889203131198883,0.5601579546928406,-0.8641566038131714,-9.661497116088867
1745660547.1025064,0.027955379337072372,-0.01445000059902668,-0.2886204719543457,0.3395158052444458,-0.5477041006088257,-9.681532859802246
1745660547.1043057,0.020005175843834877,-0.015157341957092285,-0.28823891282081604,0.46180734038352966,-0.8931671380996704,-9.773531913757324
1745660547.1068919,0.02607702650129795,-0.018572095781564713,-0.28656482696533203,0.4098086357116699,-0.6262189745903015,-9.735407829284668
1745660547.1459947,0.026610592380166054,-0.010753655806183815,-0.2869904637336731,0.399455726146698,-0.8115929365158081,-9.778688430786133
1745660547.1487644,0.023064544424414635,-0.02091551385819912,-0.2860831618309021,0.479314386844635,-0.6896455883979797,-9.745485305786133
1745660547.1527865,0.025944098830223083,-0.010440425015985966,-0.28621548414230347,0.28247636556625366,-0.6381295919418335,-9.83981990814209
1745660547.158172,0.023057512938976288,-0.01615847647190094,-0.28781118988990784,0.5222245454788208,-0.8507472276687622,-9.678174018859863
1745660547.1600952,0.03373851999640465,-0.01532658003270626,-0.2877403497695923,0.2550230920314789,-0.6279813647270203,-9.63432788848877
1745660547.1940315,0.015418092720210552,-0.013776207342743874,-0.2874726355075836,0.544654369354248,-0.8416305780410767,-9.756206512451172
1745660547.1988778,0.025003522634506226,-0.014956359751522541,-0.28693175315856934,0.41933250427246094,-0.6698934435844421,-9.768649101257324
1745660547.2020118,0.018933050334453583,-0.008863127790391445,-0.2895510792732239,0.3597717881202698,-0.7790883779525757,-9.7639741897583
1745660547.2048326,0.015866512432694435,-0.01872098445892334,-0.2880837023258209,0.5686144828796387,-0.8143970370292664,-9.705155372619629
1745660547.2293007,0.01745985448360443,-0.014193378388881683,-0.28931117057800293,0.30525392293930054,-0.7051035165786743,-9.90317440032959
1745660547.232626,0.012446193024516106,-0.01763966679573059,-0.2850945293903351,0.5510689616203308,-0.8773128390312195,-9.814596176147461
1745660547.2361813,0.011963964439928532,-0.01702585443854332,-0.28636613488197327,0.2728250026702881,-0.6504634618759155,-9.664936065673828
1745660547.2375634,0.012321306392550468,-0.01132386364042759,-0.2858448624610901,0.442324697971344,-0.8757899403572083,-9.651598930358887
1745660547.238632,0.00586768938228488,-0.020026173442602158,-0.28807884454727173,0.5004380941390991,-0.7240437269210815,-9.894577026367188
1745660547.2771735,0.0031288459431380033,-0.013751553371548653,-0.2879365086555481,0.28951817750930786,-0.6756280660629272,-9.775102615356445
1745660547.2809124,0.007852040231227875,-0.017065349966287613,-0.2876374423503876,0.46878066658973694,-0.8701141476631165,-9.615848541259766
1745660547.2854471,0.016088295727968216,-0.01722170226275921,-0.2858250141143799,0.26342493295669556,-0.5973100662231445,-9.628375053405762
1745660547.289249,0.005682239308953285,-0.009546292945742607,-0.28698664903640747,0.5210239887237549,-0.8078212738037109,-9.837556838989258
1745660547.31438,0.01932717300951481,-0.01651722751557827,-0.28632333874702454,0.4394145905971527,-0.6373387575149536,-9.78641128540039
1745660547.316541,0.016756663098931313,-0.012625274248421192,-0.2868254780769348,0.35559898614883423,-0.676190972328186,-9.737933158874512
1745660547.3171997,0.012462066486477852,-0.018860341981053352,-0.2871823012828827,0.5308102369308472,-0.770495593547821,-9.720799446105957
1745660547.3190663,0.017612244933843613,-0.01585252769291401,-0.28771767020225525,0.2767987847328186,-0.7192139029502869,-9.90844440460205
1745660547.3204224,0.008820908144116402,-0.017356550320982933,-0.2854626774787903,0.5729920268058777,-0.868870735168457,-9.715346336364746
1745660547.358582,0.002927085617557168,-0.018524255603551865,-0.28476110100746155,0.29707640409469604,-0.7091466188430786,-9.670150756835938
1745660547.3623154,0.007829738780856133,-0.01312495581805706,-0.28565484285354614,0.4409927427768707,-0.8670955896377563,-9.765645980834961
1745660547.3645558,0.00448230654001236,-0.02088385820388794,-0.28587570786476135,0.4884374141693115,-0.5728013515472412,-9.690629959106445
1745660547.3694506,0.003861982375383377,-0.014041203074157238,-0.2866981029510498,0.3688521385192871,-0.7501703500747681,-9.898554801940918
1745660547.4020815,0.011111804284155369,-0.0168578140437603,-0.28493261337280273,0.4963598847389221,-0.7515799403190613,-9.77473258972168
1745660547.40625,-0.003222240600734949,-0.015459762886166573,-0.2825922966003418,0.2542499899864197,-0.7407983541488647,-9.728706359863281
1745660547.409679,0.0007886320236139,-0.016582179814577103,-0.28248199820518494,0.48815736174583435,-0.8187091946601868,-9.543484687805176
1745660547.4130023,-0.003590652020648122,-0.02067486010491848,-0.28247958421707153,0.3561953604221344,-0.506428599357605,-9.697352409362793
1745660547.44478,-0.004749843385070562,-0.014175777323544025,-0.28722715377807617,0.5254612565040588,-0.790905237197876,-9.941645622253418
1745660547.4470506,0.00457858806475997,-0.02189667895436287,-0.2845099866390228,0.42553257942199707,-0.5809103846549988,-9.778536796569824
1745660547.4495106,0.0016927648102864623,-0.015117853879928589,-0.2848720848560333,0.26685434579849243,-0.7614481449127197,-9.768547058105469
1745660547.4519389,0.006543011404573917,-0.01832183450460434,-0.28323620557785034,0.49779993295669556,-0.7226811647415161,-9.634442329406738
1745660547.487412,0.009501342661678791,-0.016235215589404106,-0.2818366587162018,0.29166945815086365,-0.6221963763237,-9.833321571350098
1745660547.4886377,0.009058024734258652,-0.01942635513842106,-0.2819669842720032,0.561051070690155,-0.7497773170471191,-9.7936429977417
1745660547.4901872,0.006732029374688864,-0.021126411855220795,-0.2816254496574402,0.3303348124027252,-0.5987688302993774,-9.703695297241211
1745660547.4940746,0.016332203522324562,-0.012299120426177979,-0.2834395468235016,0.3754373788833618,-0.7836954593658447,-9.720510482788086
1745660547.4941232,0.006975917611271143,-0.01914513297379017,-0.285277783870697,0.47312039136886597,-0.5931903123855591,-9.662040710449219
1745660547.5321088,0.006398085504770279,-0.01456132996827364,-0.2848518192768097,0.33874717354774475,-0.7706586122512817,-9.930662155151367
1745660547.535841,0.010115272365510464,-0.017419617623090744,-0.28264111280441284,0.5509138107299805,-0.8055614233016968,-9.811561584472656
1745660547.5386872,0.006976710166782141,-0.018294958397746086,-0.2843446135520935,0.2330031841993332,-0.5554229617118835,-9.656011581420898
1745660547.5387385,0.008672135882079601,-0.012063435278832912,-0.28227299451828003,0.4762004315853119,-0.8554176092147827,-9.547057151794434
1745660547.5743175,0.014695076271891594,-0.01828276365995407,-0.28613486886024475,0.34787145256996155,-0.46353569626808167,-9.712888717651367
1745660547.5764058,0.014252160675823689,-0.012021947652101517,-0.2832590639591217,0.48214587569236755,-0.7823097109794617,-9.975092887878418
1745660547.580486,0.017380937933921814,-0.015354166738688946,-0.2835442125797272,0.47618192434310913,-0.5984684228897095,-9.770002365112305
1745660547.5845246,0.02400161139667034,-0.01403924822807312,-0.2851199209690094,0.3454154431819916,-0.8019839525222778,-9.719568252563477
1745660547.590008,0.010193097405135632,-0.018161984160542488,-0.2814110815525055,0.5103073120117188,-0.7559054493904114,-9.710596084594727
1745660547.618798,0.020861666649580002,-0.017723139375448227,-0.28451791405677795,0.27354946732521057,-0.623031735420227,-9.785041809082031
1745660547.62101,0.022169489413499832,-0.01274230144917965,-0.28160804510116577,0.5821821093559265,-0.7832493185997009,-9.853456497192383
1745660547.6252458,0.020254258066415787,-0.018820056691765785,-0.2818518280982971,0.3509036898612976,-0.6681127548217773,-9.779146194458008
1745660547.6603599,0.02908562496304512,-0.008601581677794456,-0.2843934893608093,0.36834630370140076,-0.8214631080627441,-9.674615859985352
1745660547.6652212,0.014500126242637634,-0.021362069994211197,-0.2814404368400574,0.4825406074523926,-0.6137792468070984,-9.603915214538574
1745660547.6688592,0.02133847028017044,-0.01388317346572876,-0.2830350995063782,0.3293640911579132,-0.7422242760658264,-10.002729415893555
1745660547.671968,0.02407241426408291,-0.01645045168697834,-0.2819124758243561,0.5058024525642395,-0.7420796155929565,-9.816873550415039
1745660547.6754637,0.022808263078331947,-0.01645626872777939,-0.2838709354400635,0.24743720889091492,-0.5656940340995789,-9.570314407348633
1745660547.7034962,0.018120162189006805,-0.015410800464451313,-0.28596174716949463,0.5022928714752197,-0.915723443031311,-9.645673751831055
1745660547.7053792,0.021999936550855637,-0.019634518772363663,-0.28099289536476135,0.35136038064956665,-0.5565530061721802,-9.87242603302002
1745660547.7068086,0.018613724038004875,-0.013770915567874908,-0.28478890657424927,0.4976913034915924,-0.886236846446991,-9.905977249145508
1745660547.7082796,0.016476696357131004,-0.019050735980272293,-0.28242871165275574,0.45562610030174255,-0.7024553418159485,-9.664754867553711
1745660547.7454183,0.020124945789575577,-0.017450980842113495,-0.2811712324619293,0.345714807510376,-0.785464882850647,-9.694923400878906
1745660547.7496853,0.011137254536151886,-0.020444002002477646,-0.2811668813228607,0.5119795203208923,-0.7715545296669006,-9.790310859680176
1745660547.7512054,0.014607136137783527,-0.01763952523469925,-0.28065603971481323,0.27731776237487793,-0.6391807198524475,-9.914920806884766
1745660547.7548938,0.0019364813342690468,-0.024702396243810654,-0.2801431715488434,0.39693936705589294,-0.7318028807640076,-9.803228378295898
1745660547.7590907,0.012069360353052616,-0.014425118453800678,-0.2817060351371765,0.33451229333877563,-0.7911404967308044,-9.975290298461914
1745660547.790247,-0.003338106442242861,-0.021071376278996468,-0.2815535366535187,0.46479249000549316,-0.6579024195671082,-9.685457229614258
1745660547.7954044,0.004561396781355143,-0.01773391291499138,-0.2820391058921814,0.2606947422027588,-0.7536567449569702,-9.665592193603516
1745660547.8000903,0.006864424794912338,-0.01850851997733116,-0.28230875730514526,0.5412731766700745,-0.7496261596679688,-9.769309043884277
1745660547.8024533,0.0031435985583812,-0.023577269166707993,-0.280792772769928,0.3146069645881653,-0.5644380450248718,-9.874456405639648
1745660547.8317285,0.01254461519420147,-0.011199003085494041,-0.2813672423362732,0.4971091151237488,-0.8816754221916199,-9.72590160369873
1745660547.8340201,0.007670414634048939,-0.023764653131365776,-0.2792728841304779,0.3769349157810211,-0.5693610906600952,-9.603541374206543
1745660547.8361208,0.013303020969033241,-0.01703379675745964,-0.28036877512931824,0.4150436520576477,-0.8934428095817566,-9.891118049621582
1745660547.8432822,0.007612814195454121,-0.021014008671045303,-0.2791469395160675,0.4521511495113373,-0.6570411324501038,-9.849154472351074
1745660547.8434336,0.010674538090825081,-0.018545784056186676,-0.28062310814857483,0.2867875099182129,-0.7449451684951782,-9.771288871765137
1745660547.8753636,-0.0031591407023370266,-0.022046629339456558,-0.2816808819770813,0.53233802318573,-0.8096449971199036,-9.616682052612305
1745660547.8775852,-0.0018959883600473404,-0.025286491960287094,-0.2814546525478363,0.3240083158016205,-0.7024834752082825,-9.835649490356445
1745660547.880414,0.002283765934407711,-0.01611347869038582,-0.281576544046402,0.4993606209754944,-0.8372567892074585,-9.793136596679688
1745660547.8833747,-0.00740779098123312,-0.023815087974071503,-0.28123778104782104,0.3799056112766266,-0.6161001920700073,-9.661673545837402
1745660547.917044,0.0010081952204927802,-0.013772731646895409,-0.2801074981689453,0.3758273124694824,-0.7975079417228699,-9.736215591430664
1745660547.9209929,0.005532125476747751,-0.02117985114455223,-0.28067857027053833,0.45341286063194275,-0.5440222024917603,-9.761266708374023
1745660547.9236085,0.008534091524779797,-0.019335180521011353,-0.28146761655807495,0.30168700218200684,-0.640586256980896,-9.886858940124512
1745660547.9260242,0.018191229552030563,-0.016024576500058174,-0.28027451038360596,0.5069339275360107,-0.6569237112998962,-9.660234451293945
1745660547.9598162,0.013446575030684471,-0.023140277713537216,-0.2806570827960968,0.23315832018852234,-0.6256440877914429,-9.697751998901367
1745660547.9621863,0.018879299983382225,-0.01351851411163807,-0.279907763004303,0.4568379521369934,-0.768588662147522,-9.74807357788086
1745660547.97099,0.006963451858609915,-0.021519411355257034,-0.2827870547771454,0.4708482325077057,-0.7673258781433105,-9.7941312789917
1745660547.9731286,0.010898490436375141,-0.021023452281951904,-0.27966850996017456,0.35563719272613525,-0.5118458271026611,-9.627553939819336
1745660548.003166,0.022259747609496117,-0.01545987743884325,-0.28205394744873047,0.39282870292663574,-0.753524661064148,-9.805005073547363
1745660548.0061877,0.013896497897803783,-0.018345201388001442,-0.2779030203819275,0.5310813784599304,-0.7276303172111511,-9.85590934753418
1745660548.0062418,0.022403938695788383,-0.017646487802267075,-0.2802131175994873,0.3394811749458313,-0.7615143656730652,-9.857500076293945
1745660548.0062866,0.006046534515917301,-0.01507295947521925,-0.27851998805999756,0.4820091724395752,-0.8350671529769897,-9.655837059020996
1745660548.0083432,0.007060583680868149,-0.021891912445425987,-0.2770254611968994,0.3603997826576233,-0.7395309209823608,-9.692453384399414
1745660548.0464082,0.010439064353704453,-0.014999049715697765,-0.27878305315971375,0.45980674028396606,-0.7585614919662476,-9.738383293151855
1745660548.0490386,-0.005051679443567991,-0.020840611308813095,-0.2798103988170624,0.40067291259765625,-0.6487029790878296,-9.82175064086914
1745660548.0508246,0.007122407667338848,-0.010920143686234951,-0.28170639276504517,0.312626451253891,-0.750575840473175,-9.753813743591309
1745660548.0520446,0.002011869801208377,-0.020464206114411354,-0.28029435873031616,0.45898404717445374,-0.6312993168830872,-9.586423873901367
1745660548.0898156,0.007588756270706654,-0.019962918013334274,-0.28266701102256775,0.306918203830719,-0.6480324864387512,-9.86361312866211
1745660548.0920641,0.012741221114993095,-0.010247483849525452,-0.2813381552696228,0.5245445966720581,-0.755767822265625,-9.881134033203125
1745660548.093243,0.007615068461745977,-0.023760125041007996,-0.27917829155921936,0.3156852126121521,-0.6830084919929504,-9.683100700378418
1745660548.0969977,0.014009985141456127,-0.009514356963336468,-0.2787083685398102,0.4151036739349365,-0.8060776591300964,-9.64099407196045
1745660548.1000423,0.024130430072546005,-0.0136653957888484,-0.28239697217941284,0.2825498878955841,-0.5849002599716187,-9.773543357849121
1745660548.1352847,0.01588723249733448,-0.016281690448522568,-0.2808959484100342,0.47405052185058594,-0.6842860579490662,-9.881664276123047
1745660548.138777,0.027249258011579514,-0.022800084203481674,-0.281343549489975,0.3613170385360718,-0.6214050054550171,-9.822046279907227
1745660548.1416962,0.01768423616886139,-0.014398405328392982,-0.2794511318206787,0.4311615526676178,-0.8779423832893372,-9.744322776794434
1745660548.1432042,0.017700286582112312,-0.024033376947045326,-0.27754202485084534,0.43586596846580505,-0.7564074397087097,-9.692566871643066
1745660548.1764789,0.02332192286849022,-0.012105828151106834,-0.2801264822483063,0.35985511541366577,-0.7108470797538757,-9.706811904907227
1745660548.1777692,0.005618860013782978,-0.02025902457535267,-0.2769829034805298,0.5341876149177551,-0.7396410703659058,-9.731340408325195
1745660548.1819034,0.022878173738718033,-0.01772632636129856,-0.2773285210132599,0.3387722373008728,-0.6688101887702942,-9.861078262329102
1745660548.185497,0.014235506765544415,-0.017223196104168892,-0.2812112867832184,0.48837804794311523,-0.6987941861152649,-9.779146194458008
1745660548.1888158,0.01729220151901245,-0.024045083671808243,-0.2807421386241913,0.307172030210495,-0.6571730375289917,-9.75344181060791
1745660548.2218378,0.021770812571048737,-0.010616530664265156,-0.2810482084751129,0.34358328580856323,-0.6793542504310608,-9.746564865112305
1745660548.2245767,0.010060692206025124,-0.023444518446922302,-0.2789842486381531,0.4788483679294586,-0.7666826844215393,-9.639518737792969
1745660548.2267876,0.02193761244416237,-0.014612147584557533,-0.2788211405277252,0.3682786524295807,-0.6864701509475708,-9.784497261047363
1745660548.2302265,0.011380041018128395,-0.018100431188941002,-0.27745428681373596,0.5427827835083008,-0.8170673251152039,-9.844528198242188
1745660548.2654462,0.02085862122476101,-0.019525310024619102,-0.276772677898407,0.27072736620903015,-0.6098057627677917,-9.818219184875488
1745660548.277312,0.011715146712958813,-0.015934964641928673,-0.27976173162460327,0.5117794275283813,-0.7780264019966125,-9.697013854980469
1745660548.2797651,0.01790492981672287,-0.024668049067258835,-0.2779969871044159,0.38376671075820923,-0.616839587688446,-9.741369247436523
1745660548.2822082,0.028266102075576782,-0.011523661203682423,-0.27933984994888306,0.3479989171028137,-0.6757022738456726,-9.808553695678711
1745660548.3049788,0.013042526319622993,-0.022442296147346497,-0.2797076106071472,0.4973401129245758,-0.661262571811676,-9.69939136505127
1745660548.3074837,0.033773817121982574,-0.010448673740029335,-0.28029224276542664,0.3094019889831543,-0.709864616394043,-9.640022277832031
1745660548.3097465,0.012373967096209526,-0.02113836258649826,-0.279061496257782,0.5449311137199402,-0.7545121908187866,-9.749217987060547
1745660548.3138065,0.028528068214654922,-0.017514575272798538,-0.280716210603714,0.3273436725139618,-0.684607744216919,-9.9743070602417
1745660548.3493927,0.00616365484893322,-0.017094876617193222,-0.27947768568992615,0.4867010712623596,-0.7034974098205566,-9.595606803894043
1745660548.350989,0.018509279936552048,-0.019239405170083046,-0.278662770986557,0.37102752923965454,-0.6399044990539551,-9.837780952453613
1745660548.3552852,0.02001303993165493,-0.018655436113476753,-0.2803870737552643,0.4492276608943939,-0.661835253238678,-9.969852447509766
1745660548.3562136,0.018931951373815536,-0.023179028183221817,-0.2794934809207916,0.3758881390094757,-0.7444838285446167,-9.766040802001953
1745660548.3593214,0.02966671623289585,-0.012157903984189034,-0.2801237106323242,0.3209756910800934,-0.654728889465332,-9.554244041442871
1745660548.3918254,0.011910823173820972,-0.0225951187312603,-0.2767626643180847,0.5171821117401123,-0.8030434846878052,-9.605539321899414
1745660548.3946683,0.029560932889580727,-0.01545244175940752,-0.27736717462539673,0.34347471594810486,-0.6006550192832947,-9.903677940368652
1745660548.3985734,0.018158715218305588,-0.017898228019475937,-0.2771066725254059,0.5313922762870789,-0.8498380780220032,-9.888617515563965
1745660548.4019673,0.023462731391191483,-0.021864518523216248,-0.27643513679504395,0.2916702330112457,-0.5714637041091919,-9.71714973449707
1745660548.4350238,0.011863360181450844,-0.014408543705940247,-0.27933770418167114,0.4092840254306793,-0.8371967077255249,-9.682717323303223
1745660548.438389,0.014299185946583748,-0.027284085750579834,-0.276015043258667,0.40086379647254944,-0.7467485070228577,-9.812480926513672
1745660548.4407973,0.024475466459989548,-0.012058385647833347,-0.27755799889564514,0.26441890001296997,-0.7116532325744629,-9.78732681274414
1745660548.4450293,0.002449849620461464,-0.02137995883822441,-0.27552860975265503,0.5729357600212097,-0.7661410570144653,-9.567349433898926
1745660548.4490082,0.02812672220170498,-0.01535488199442625,-0.27569863200187683,0.27766263484954834,-0.6261851191520691,-9.694704055786133
1745660548.4781575,0.02121613919734955,-0.012680185958743095,-0.27557700872421265,0.25925979018211365,-0.5345672965049744,-9.580580711364746
1745660548.48297,0.006734706461429596,-0.018064217641949654,-0.277004212141037,0.5511249303817749,-0.8382703065872192,-9.821393966674805
1745660548.4854786,0.018403906375169754,-0.016129378229379654,-0.2759283185005188,0.34084102511405945,-0.5450723767280579,-9.95810604095459
1745660548.4890184,0.014757360331714153,-0.011182358488440514,-0.27485522627830505,0.423469603061676,-0.8654471635818481,-9.791360855102539
1745660548.5212529,0.00987936370074749,-0.021964477375149727,-0.2769608497619629,0.4179777503013611,-0.6770521998405457,-9.57658863067627
1745660548.523387,0.0035894899629056454,-0.012756275944411755,-0.2755478322505951,0.33105340600013733,-0.8097202181816101,-9.812704086303711
1745660548.525975,0.0047680167481303215,-0.019980354234576225,-0.27648499608039856,0.5077627897262573,-0.7597199082374573,-9.856457710266113
1745660548.5302005,0.013660523109138012,-0.011863291263580322,-0.2775098979473114,0.22495341300964355,-0.5626991987228394,-9.650803565979004
1745660548.563618,-0.00014579552225768566,-0.01596401259303093,-0.2776443362236023,0.6218156218528748,-0.798026978969574,-9.566035270690918
1745660548.568983,0.01811937987804413,-0.02006288431584835,-0.27765581011772156,0.3414406180381775,-0.5378784537315369,-9.860193252563477
1745660548.5699003,0.012796750292181969,-0.011126259341835976,-0.276582807302475,0.3929780125617981,-0.7780890464782715,-10.005510330200195
1745660548.570673,0.01987117901444435,-0.017541319131851196,-0.27619731426239014,0.41542738676071167,-0.68376624584198,-9.640564918518066
1745660548.5722618,0.018193235620856285,-0.01231385488063097,-0.2745336890220642,0.24954959750175476,-0.7132652401924133,-9.639849662780762
1745660548.6077933,0.012370017357170582,-0.02143695205450058,-0.2754512429237366,0.5573332905769348,-0.7311104536056519,-9.737337112426758
1745660548.6081545,0.010056309401988983,-0.013240690343081951,-0.2759953737258911,0.26486167311668396,-0.7093214988708496,-9.966119766235352
1745660548.609355,0.011636456474661827,-0.011517291888594627,-0.2767801880836487,0.4690179228782654,-0.863978385925293,-9.673408508300781
1745660548.611073,0.0035254857502877712,-0.018618514761328697,-0.2772414982318878,0.3685685396194458,-0.6301217079162598,-9.52913761138916
1745660548.6492996,-0.00010016791202360764,-0.010906689800322056,-0.27900952100753784,0.38125094771385193,-0.849856972694397,-9.92740249633789
1745660548.6517017,0.004053587093949318,-0.017190324142575264,-0.27669644355773926,0.5102709531784058,-0.697036623954773,-9.926348686218262
1745660548.6527596,0.008836952038109303,-0.011830070987343788,-0.2771400511264801,0.24870935082435608,-0.6168395280838013,-9.687664985656738
1745660548.6555014,0.00521507766097784,-0.015075919218361378,-0.2766630947589874,0.4762403964996338,-0.756299614906311,-9.529912948608398
1745660548.6929955,0.018718542531132698,-0.0142038119956851,-0.27726539969444275,0.2602114677429199,-0.44966086745262146,-9.808561325073242
1745660548.6954849,0.014990921132266521,-0.010684777982532978,-0.277507483959198,0.506840169429779,-0.8036198616027832,-9.90909481048584
1745660548.697158,0.011132493615150452,-0.010904664173722267,-0.27835026383399963,0.33289068937301636,-0.739797055721283,-9.907845497131348
1745660548.6989024,0.00954495370388031,-0.01433554571121931,-0.27854806184768677,0.5427409410476685,-0.814240574836731,-9.629507064819336
1745660548.6997464,0.01259461510926485,-0.014160106889903545,-0.28046852350234985,0.25188568234443665,-0.569622278213501,-9.612030982971191
1745660548.7375114,0.002992540830746293,-0.007907399907708168,-0.2783650755882263,0.5086629390716553,-0.7852121591567993,-9.799318313598633
1745660548.7410917,0.02070649154484272,-0.01488764863461256,-0.27916672825813293,0.3677545189857483,-0.5308545827865601,-9.79729175567627
1745660548.7449977,0.01791558787226677,-0.009840569458901882,-0.2776707708835602,0.39682722091674805,-0.7186958193778992,-9.784846305847168
1745660548.7475607,0.022530216723680496,-0.015620212070643902,-0.2787379026412964,0.4716404974460602,-0.678366482257843,-9.737104415893555
1745660548.7786343,0.0297003872692585,-0.010023379698395729,-0.2767014801502228,0.19181495904922485,-0.6501836776733398,-9.852810859680176
1745660548.7818298,0.02875879406929016,-0.009973260574042797,-0.27618032693862915,0.5372945070266724,-0.7782624959945679,-9.629484176635742
1745660548.7837567,0.02340978942811489,-0.014182060956954956,-0.27455583214759827,0.3491896688938141,-0.6571069359779358,-9.688080787658691
1745660548.7860734,0.027364294975996017,-0.010178014636039734,-0.2766646146774292,0.4885373115539551,-0.8213824033737183,-9.866235733032227
1745660548.7897985,0.023892533034086227,-0.014695925638079643,-0.2787246108055115,0.40318742394447327,-0.5647801160812378,-9.765998840332031
1745660548.8231587,0.018200257793068886,-0.006177032832056284,-0.27909979224205017,0.3001667261123657,-0.8059015274047852,-9.753129959106445
1745660548.825615,0.011526418849825859,-0.012904657050967216,-0.27492207288742065,0.47883978486061096,-0.8866472244262695,-9.784500122070312
1745660548.8256848,0.014693197794258595,-0.021220212802290916,-0.27576449513435364,0.4009386897087097,-0.6280980110168457,-9.80705738067627
1745660548.825726,0.01328170858323574,-0.013557761907577515,-0.27579280734062195,0.2834252715110779,-0.7568315863609314,-9.834253311157227
1745660548.866069,0.012769232504069805,-0.015542110428214073,-0.2754846513271332,0.46640723943710327,-0.7045294046401978,-9.63552474975586
1745660548.8685713,0.014186183921992779,-0.02123296447098255,-0.27758294343948364,0.2693358361721039,-0.6240004301071167,-9.756105422973633
1745660548.8730478,0.014954905025660992,-0.015102708712220192,-0.27499330043792725,0.5521632432937622,-0.7730666995048523,-9.788154602050781
1745660548.8761334,0.013326883316040039,-0.021454008296132088,-0.277790367603302,0.3571677803993225,-0.6566159129142761,-9.784614562988281
1745660548.9081447,0.02220955304801464,-0.012253278866410255,-0.2761967182159424,0.3811799883842468,-0.8452188372612,-9.709513664245605
1745660548.911988,0.0058548725210130215,-0.0226210355758667,-0.27805811166763306,0.5009629726409912,-0.6769534945487976,-9.653538703918457
1745660548.9149804,0.00887213833630085,-0.015196328051388264,-0.27521103620529175,0.30454879999160767,-0.8498886227607727,-9.940740585327148
1745660548.9187372,0.011530282907187939,-0.017268847674131393,-0.27537232637405396,0.5169726610183716,-0.7537557482719421,-9.777050971984863
1745660548.92014,0.006111023016273975,-0.023747891187667847,-0.2795572280883789,0.2728342115879059,-0.5536630153656006,-9.686156272888184
1745660548.9506292,0.010929013602435589,-0.014940304681658745,-0.2785261273384094,0.4917448163032532,-0.8145177960395813,-9.641550064086914
1745660548.9534624,0.004540300462394953,-0.021059416234493256,-0.2791476547718048,0.3821278214454651,-0.557126522064209,-9.775007247924805
1745660548.9558282,0.012328865006566048,-0.01583237573504448,-0.2780865728855133,0.47683000564575195,-0.8859407305717468,-9.936676025390625
1745660548.9579244,0.0067517561838030815,-0.02336110919713974,-0.2768595218658447,0.44679632782936096,-0.7300925850868225,-9.754634857177734
1745660548.997193,0.011276092380285263,-0.016950342804193497,-0.27407366037368774,0.2677760720252991,-0.8131281733512878,-9.742642402648926
1745660549.0014818,0.002673911163583398,-0.022674161940813065,-0.27380943298339844,0.44548940658569336,-0.7121502161026001,-9.6868257522583
1745660549.0030684,0.010959544219076633,-0.019475843757390976,-0.27571022510528564,0.27792611718177795,-0.5401511192321777,-9.790075302124023
1745660549.0071833,0.019728992134332657,-0.015000024810433388,-0.27676209807395935,0.5147114992141724,-0.6494177579879761,-9.670061111450195
1745660549.036662,0.016045358031988144,-0.02561224065721035,-0.28029537200927734,0.3773837685585022,-0.5281684398651123,-9.677992820739746
1745660549.0392077,0.01587112993001938,-0.013451797887682915,-0.28070682287216187,0.4391281008720398,-0.8352189064025879,-9.827351570129395
1745660549.0413375,0.017626097425818443,-0.02011706866323948,-0.2774762511253357,0.43984365463256836,-0.7631449103355408,-9.810762405395508
1745660549.0457666,0.015611832030117512,-0.015156969428062439,-0.2741638123989105,0.4897999167442322,-0.7428466081619263,-9.76970100402832
1745660549.0485287,0.013950723223388195,-0.023936141282320023,-0.2776082158088684,0.38223016262054443,-0.6586228609085083,-9.731481552124023
1745660549.0822465,0.024107005447149277,-0.01571437530219555,-0.27792155742645264,0.30318155884742737,-0.8119040727615356,-9.774129867553711
1745660549.0863225,0.0037354615051299334,-0.0221065916121006,-0.2757725417613983,0.4781772196292877,-0.7690974473953247,-9.73009967803955
1745660549.0947726,0.010052661411464214,-0.02094222605228424,-0.27509307861328125,0.26959529519081116,-0.813642144203186,-9.871034622192383
1745660549.0956185,0.010115889832377434,-0.01724219135940075,-0.27243107557296753,0.5523262023925781,-0.8408294916152954,-9.742505073547363
1745660549.1241407,0.007036788854748011,-0.024953633546829224,-0.2746996283531189,0.31457462906837463,-0.5369200706481934,-9.6593656539917
1745660549.128225,0.01522146351635456,-0.015996884554624557,-0.27384352684020996,0.5048712491989136,-0.8275132179260254,-9.700766563415527
1745660549.132827,0.010864711366593838,-0.024887626990675926,-0.27647000551223755,0.37760668992996216,-0.49373918771743774,-9.801031112670898
1745660549.1352336,0.020701168105006218,-0.016889752820134163,-0.27537932991981506,0.3656150698661804,-0.8167259097099304,-9.88735580444336
1745660549.1352859,0.016767090186476707,-0.02221086248755455,-0.27224716544151306,0.41856488585472107,-0.6887285113334656,-9.668725967407227
1745660549.1694834,0.02294738218188286,-0.021704502403736115,-0.2749153971672058,0.2620048224925995,-0.7441791892051697,-9.751227378845215
1745660549.171324,0.01053156889975071,-0.02064472995698452,-0.2724069058895111,0.48313674330711365,-0.7529452443122864,-9.776321411132812
1745660549.1753006,0.026455294340848923,-0.012150926515460014,-0.27838727831840515,0.2857111096382141,-0.707252025604248,-9.849420547485352
1745660549.1793017,0.009711524471640587,-0.0157588180154562,-0.278576523065567,0.5170929431915283,-0.7178695797920227,-9.634452819824219
1745660549.2108839,0.016705632209777832,-0.018798023462295532,-0.27952367067337036,0.2679803967475891,-0.7816716432571411,-9.749295234680176
1745660549.2144732,0.018798984587192535,-0.01211711298674345,-0.27724069356918335,0.46092644333839417,-0.8585745096206665,-9.859216690063477
1745660549.217175,0.00903658103197813,-0.019589761272072792,-0.2774938941001892,0.356101930141449,-0.6566392183303833,-9.753585815429688
1745660549.218692,0.021191949024796486,-0.0073502762243151665,-0.27578485012054443,0.4144091010093689,-0.8820818066596985,-9.630658149719238
1745660549.2542498,0.008170475251972675,-0.02043372206389904,-0.2743530571460724,0.4357197880744934,-0.6482330560684204,-9.643832206726074
1745660549.26116,0.020921384915709496,-0.014892945066094398,-0.27701735496520996,0.33829206228256226,-0.7518550753593445,-9.974246978759766
1745660549.262057,0.01357109285891056,-0.0131077840924263,-0.27613359689712524,0.40428322553634644,-0.6955150365829468,-9.808947563171387
1745660549.2647269,0.019875388592481613,-0.01629612222313881,-0.27685436606407166,0.27018266916275024,-0.6947463154792786,-9.62012767791748
1745660549.2955735,0.007194162346422672,-0.014738909900188446,-0.27660197019577026,0.49893879890441895,-0.8157895803451538,-9.685861587524414
1745660549.299108,0.011513173580169678,-0.01960757188498974,-0.27731090784072876,0.36130911111831665,-0.6924784779548645,-9.930952072143555
1745660549.3007605,0.018102992326021194,-0.010818538255989552,-0.2773323059082031,0.43390512466430664,-0.7973886728286743,-9.779187202453613
1745660549.30244,0.004984099417924881,-0.014973114244639874,-0.2755623459815979,0.44542327523231506,-0.6687861680984497,-9.503372192382812
1745660549.3046532,0.014856207184493542,-0.012032074853777885,-0.27535146474838257,0.37509962916374207,-0.7981049418449402,-9.808205604553223
1745660549.3377235,0.014877552166581154,-0.01806892454624176,-0.2770405113697052,0.4796389043331146,-0.6396579146385193,-9.948179244995117
1745660549.3417096,0.018641268834471703,-0.017907168716192245,-0.2752804160118103,0.23330149054527283,-0.6687291264533997,-9.860677719116211
1745660549.3460119,0.025040019303560257,-0.008901247754693031,-0.27747440338134766,0.4455696940422058,-0.7229818105697632,-9.505635261535645
1745660549.3489945,0.014697164297103882,-0.024693729355931282,-0.2778814733028412,0.30890482664108276,-0.6713975667953491,-9.661368370056152
1745660549.381654,0.027258550748229027,-0.009542889893054962,-0.27750030159950256,0.4004995822906494,-0.7645785808563232,-9.94953441619873
1745660549.3844724,0.011676091700792313,-0.018337829038500786,-0.2772339880466461,0.490536630153656,-0.8189420700073242,-9.794344902038574
1745660549.3883579,0.02131367102265358,-0.014708654955029488,-0.27684324979782104,0.3151399493217468,-0.7860143780708313,-9.666849136352539
1745660549.3888526,0.011958641931414604,-0.018252532929182053,-0.2786901891231537,0.40363913774490356,-0.5317510366439819,-9.862144470214844
1745660549.4241557,0.030074670910835266,-0.012334825471043587,-0.27891820669174194,0.35438793897628784,-0.704007089138031,-9.856627464294434
1745660549.4269917,0.021272335201501846,-0.015319679863750935,-0.2782665491104126,0.5083659887313843,-0.7615718841552734,-9.658685684204102
1745660549.4277804,0.0259073618799448,-0.023604195564985275,-0.2789462208747864,0.3439216911792755,-0.7243236303329468,-9.807256698608398
1745660549.4307086,0.01714351586997509,-0.012062638998031616,-0.2760055363178253,0.4687419831752777,-0.8843668103218079,-9.873197555541992
1745660549.433253,0.012470254674553871,-0.019307270646095276,-0.2747175693511963,0.4043744206428528,-0.7924023866653442,-9.667387008666992
1745660549.4690328,0.02075638435781002,-0.015677113085985184,-0.2786581516265869,0.40852412581443787,-0.7332140803337097,-9.585843086242676
1745660549.4721758,0.0010626744478940964,-0.021599750965833664,-0.27728691697120667,0.4670036733150482,-0.6862375736236572,-9.805252075195312
1745660549.4761925,0.0176188126206398,-0.013845054432749748,-0.2780331075191498,0.2996733486652374,-0.6924869418144226,-10.005144119262695
1745660549.4809809,0.016355065628886223,-0.018397321924567223,-0.2795988619327545,0.4689442217350006,-0.695432186126709,-9.639421463012695
1745660549.513448,0.015033921226859093,-0.026419764384627342,-0.2799663245677948,0.32722461223602295,-0.6590955257415771,-9.695080757141113
1745660549.5174954,0.0265769325196743,-0.012645225040614605,-0.2791880965232849,0.4322347044944763,-0.7263178825378418,-9.840456008911133
1745660549.5205877,0.017202427610754967,-0.023679181933403015,-0.2783352732658386,0.42785805463790894,-0.7408976554870605,-9.777863502502441
1745660549.5233057,0.027460362762212753,-0.015365536324679852,-0.2780470550060272,0.4135669767856598,-0.7912663817405701,-9.662885665893555
1745660549.5534782,0.02401711791753769,-0.01431911252439022,-0.27556437253952026,0.4084092974662781,-0.7159262895584106,-9.728357315063477
1745660549.5553637,0.027893628925085068,-0.027664650231599808,-0.2760002613067627,0.4218587875366211,-0.6656314134597778,-9.649892807006836
1745660549.5576112,0.021041449159383774,-0.017418909817934036,-0.27675721049308777,0.36940816044807434,-0.8541609048843384,-9.86171817779541
1745660549.559054,0.019087927415966988,-0.022341139614582062,-0.2734675407409668,0.46162185072898865,-0.8684278726577759,-9.802435874938965
1745660549.5603025,0.023700904101133347,-0.0184346754103899,-0.2755809426307678,0.34113508462905884,-0.7391701340675354,-9.58938217163086
1745660549.5997806,0.00020695403509307653,-0.02009257860481739,-0.2732439637184143,0.5278382301330566,-0.8743990063667297,-9.685981750488281
1745660549.6016512,0.015347899869084358,-0.02120056003332138,-0.27484744787216187,0.3230322003364563,-0.6993571519851685,-9.925703048706055
1745660549.6063101,0.012440728954970837,-0.014010709710419178,-0.2743735909461975,0.38625314831733704,-0.6783483624458313,-9.81089973449707
1745660549.6089687,0.011577829718589783,-0.025573739781975746,-0.2762966752052307,0.36945194005966187,-0.6579301953315735,-9.64280891418457
1745660549.6392927,0.022650746628642082,-0.014315208420157433,-0.2764029800891876,0.3167547583580017,-0.6535441875457764,-9.669858932495117
1745660549.641455,0.011346602812409401,-0.023620281368494034,-0.27724650502204895,0.47822898626327515,-0.8156646490097046,-9.764710426330566
1745660549.6444533,0.025044724345207214,-0.013172276318073273,-0.2768084406852722,0.2750552296638489,-0.725561261177063,-9.82202434539795
1745660549.6456027,0.012148294597864151,-0.017778171226382256,-0.27191540598869324,0.5322093367576599,-0.9299772381782532,-9.693746566772461
1745660549.6469028,0.014159482903778553,-0.023510295897722244,-0.2746163010597229,0.3064589500427246,-0.7065746188163757,-9.744140625
1745660549.6844132,0.005323552992194891,-0.014450048096477985,-0.2732263207435608,0.4442965090274811,-0.8223872184753418,-9.84576416015625
1745660549.687171,0.007328324019908905,-0.024515626952052116,-0.2767844796180725,0.40895265340805054,-0.716765284538269,-9.793606758117676
1745660549.6897953,0.01527800690382719,-0.014690754935145378,-0.2756945490837097,0.2590517997741699,-0.6924391388893127,-9.695365905761719
1745660549.6904578,-0.003086705692112446,-0.02264326810836792,-0.2765273451805115,0.5226936340332031,-0.733486533164978,-9.671951293945312
1745660549.7248597,0.015906108543276787,-0.015611514449119568,-0.27698758244514465,0.2597885727882385,-0.6943686604499817,-9.788503646850586
1745660549.7269213,0.004959392361342907,-0.016543488949537277,-0.2749570310115814,0.470447838306427,-0.7849058508872986,-9.754061698913574
1745660549.7275133,0.015961213037371635,-0.022372066974639893,-0.2745733857154846,0.3515401780605316,-0.6970881223678589,-9.752413749694824
1745660549.7296474,0.014807315543293953,-0.016092529520392418,-0.27303430438041687,0.36463722586631775,-0.7886104583740234,-9.858762741088867
1745660549.7690473,0.006997337099164724,-0.019384749233722687,-0.27491921186447144,0.35737791657447815,-0.7350711226463318,-9.78055477142334
1745660549.7702365,0.006103107240051031,-0.013359921053051949,-0.2749575972557068,0.4030856192111969,-0.7354004383087158,-9.766972541809082
1745660549.774514,-0.0008702913182787597,-0.02270682156085968,-0.2730790972709656,0.44793152809143066,-0.7532635927200317,-9.757619857788086
1745660549.779552,0.017107101157307625,-0.01224653609097004,-0.2744234800338745,0.30792802572250366,-0.6002428531646729,-9.786039352416992
1745660549.7834048,0.004320371430367231,-0.018492743372917175,-0.2717209458351135,0.48848533630371094,-0.8519488573074341,-9.674407005310059
1745660549.8123167,0.021652016788721085,-0.017634324729442596,-0.2703564763069153,0.2478567361831665,-0.6345958709716797,-9.722116470336914
1745660549.812374,0.011974182911217213,-0.01379424799233675,-0.2703697085380554,0.43738412857055664,-0.864086925983429,-9.839361190795898
1745660549.8134947,0.01705111376941204,-0.02003452368080616,-0.27042514085769653,0.2900419533252716,-0.5791769027709961,-9.822126388549805
1745660549.855634,0.010617478750646114,-0.010533248074352741,-0.27345728874206543,0.3749762177467346,-0.7783886194229126,-9.710419654846191
1745660549.8572867,0.0101718595251441,-0.02106691338121891,-0.2723718285560608,0.4622281491756439,-0.6853471398353577,-9.682984352111816
1745660549.859697,0.022220343351364136,-0.013284295797348022,-0.2731759548187256,0.26159176230430603,-0.7452251315116882,-9.799186706542969
1745660549.8609643,-0.001510238042101264,-0.016239147633314133,-0.27682119607925415,0.6143836975097656,-0.8935268521308899,-9.732925415039062
1745660549.8632724,0.011288374662399292,-0.013535723090171814,-0.27222850918769836,0.27551519870758057,-0.7633370757102966,-9.759031295776367
1745660549.9004712,0.005536335054785013,-0.0155379269272089,-0.2730526924133301,0.5337592363357544,-0.9090360403060913,-9.710054397583008
1745660549.904371,0.015118921175599098,-0.009969402104616165,-0.2688295841217041,0.24262991547584534,-0.6748498678207397,-9.719975471496582
1745660549.9044604,0.0007276056567206979,-0.011697116307914257,-0.267867773771286,0.5102428793907166,-1.002306580543518,-9.723367691040039
1745660549.9055886,0.009524905122816563,-0.011567225679755211,-0.2642804980278015,0.3653716444969177,-0.6259815096855164,-9.730504035949707
1745660549.941411,0.007191154174506664,-0.007487769238650799,-0.2647063136100769,0.4292781352996826,-0.7815355062484741,-9.833066940307617
1745660549.9441588,0.009552763774991035,-0.018699156120419502,-0.2679471969604492,0.41305097937583923,-0.5146964192390442,-9.734393119812012
1745660549.947152,0.01033295039087534,-0.006524901837110519,-0.2697879672050476,0.2567000389099121,-0.6467118263244629,-9.830438613891602
1745660549.9508846,0.013074785470962524,-0.015134995803236961,-0.2720348834991455,0.46920910477638245,-0.7727407217025757,-9.6585111618042
1745660549.9835663,0.01951199769973755,-0.010539954528212547,-0.2688072621822357,0.22348904609680176,-0.6672276258468628,-9.73169994354248
1745660549.9868546,-0.00436458270996809,-0.009911684319376945,-0.27052977681159973,0.5816227793693542,-0.9421952366828918,-9.762811660766602
1745660549.9915125,0.010727534070611,-0.012424017302691936,-0.26857253909111023,0.36852604150772095,-0.6944277286529541,-9.733709335327148
1745660549.9942968,-0.00029594748048111796,-0.008478226140141487,-0.2675127387046814,0.45404529571533203,-0.8343873023986816,-9.818628311157227
1745660549.9971786,0.0009881950682029128,-0.015323013067245483,-0.26760298013687134,0.5179047584533691,-0.6871814727783203,-9.74046516418457
1745660550.0289752,0.0037959583569318056,-0.012213042937219143,-0.26802167296409607,0.27154040336608887,-0.7046517133712769,-9.888650894165039
1745660550.0320008,0.0004801616014447063,-0.014502391219139099,-0.26744675636291504,0.5269230604171753,-0.7524181008338928,-9.694368362426758
1745660550.0341818,0.0006220998475328088,-0.012374265119433403,-0.26859405636787415,0.1887606978416443,-0.628953754901886,-9.691976547241211
1745660550.0376832,0.006688075605779886,-0.00913912057876587,-0.26580652594566345,0.40757250785827637,-0.7906232476234436,-9.696500778198242
1745660550.0696723,0.005344311706721783,-0.013803765177726746,-0.2678196430206299,0.3464397192001343,-0.4634827971458435,-9.646470069885254
1745660550.0721185,0.007456740830093622,-0.006541435606777668,-0.26876315474510193,0.4056244492530823,-0.7229710817337036,-9.848699569702148
1745660550.0730996,0.01245757658034563,-0.014973195269703865,-0.2699577212333679,0.5562938451766968,-0.6814817190170288,-9.790548324584961
1745660550.0748007,0.016440685838460922,-0.012151203118264675,-0.2682233452796936,0.31769004464149475,-0.630237877368927,-9.835576057434082
1745660550.1116195,0.009140538983047009,-0.012213152833282948,-0.2674601078033447,0.5297670364379883,-0.9240542650222778,-9.703130722045898
1745660550.1137676,0.007742022164165974,-0.011356773786246777,-0.2687729299068451,0.2703779339790344,-0.7211591005325317,-9.756434440612793
1745660550.1156375,0.00856356043368578,-0.013570834882557392,-0.2658827304840088,0.524060845375061,-0.7813118696212769,-9.633370399475098
1745660550.1166646,0.015238536521792412,-0.016310300678014755,-0.266234815120697,0.30504676699638367,-0.5964370965957642,-9.737399101257324
1745660550.1199036,0.004621131811290979,-0.010202370584011078,-0.2666310667991638,0.5821079015731812,-0.8257780075073242,-9.819124221801758
1745660550.1564026,0.015553179197013378,-0.017453569918870926,-0.26394352316856384,0.36668461561203003,-0.5746725797653198,-9.765670776367188
1745660550.1586146,0.015489893965423107,-0.012528982944786549,-0.26805606484413147,0.3916797339916229,-0.745111346244812,-9.784440994262695
1745660550.1626925,0.01656448282301426,-0.018505817279219627,-0.2639640271663666,0.5033644437789917,-0.6260629892349243,-9.717314720153809
1745660550.1646426,0.017734140157699585,-0.013854322023689747,-0.26623862981796265,0.2555252015590668,-0.6617008447647095,-9.881304740905762
1745660550.1995575,0.018292585387825966,-0.017684627324342728,-0.26538869738578796,0.5394245386123657,-0.7710955739021301,-9.667462348937988
1745660550.2031252,0.010819082148373127,-0.017985420301556587,-0.2669369578361511,0.29895511269569397,-0.6997947692871094,-9.669175148010254
1745660550.2078001,0.01701519824564457,-0.016090940684080124,-0.265023797750473,0.48500117659568787,-0.9227660894393921,-9.790575981140137
1745660550.2091892,0.009555324912071228,-0.021444564685225487,-0.26342079043388367,0.43794935941696167,-0.5962516665458679,-9.767376899719238
1745660550.2108366,0.010240474715828896,-0.011170538142323494,-0.2640169560909271,0.3173739016056061,-0.8190683126449585,-9.844594955444336
1745660550.244011,0.015262496657669544,-0.01725766807794571,-0.26357603073120117,0.5130600929260254,-0.715838611125946,-9.641545295715332
1745660550.2506883,0.002193948719650507,-0.02119075320661068,-0.2633553743362427,0.5365055799484253,-0.8390924334526062,-9.721627235412598
1745660550.252125,-0.0017312716227024794,-0.0232393778860569,-0.2642337381839752,0.31384220719337463,-0.6031049489974976,-9.98744010925293
1745660550.254715,-0.002671242691576481,-0.01345776580274105,-0.26368993520736694,0.47252219915390015,-0.8673058748245239,-9.75121021270752
1745660550.2892163,0.0029240152798593044,-0.023539617657661438,-0.26297780871391296,0.338916152715683,-0.5404580235481262,-9.48991870880127
1745660550.289287,-0.00022767418704461306,-0.01882523111999035,-0.2644144594669342,0.3220099210739136,-0.7258046865463257,-9.838655471801758
1745660550.290491,0.0059467339888215065,-0.019377343356609344,-0.2645903527736664,0.5148390531539917,-0.6131908893585205,-9.913810729980469
1745660550.2921762,0.008668986149132252,-0.018811101093888283,-0.26442116498947144,0.24086332321166992,-0.6805093884468079,-9.759053230285645
1745660550.330591,0.0028117182664573193,-0.019382581114768982,-0.26302605867385864,0.5612220168113708,-0.8326563835144043,-9.50744915008545
1745660550.3353198,-0.00031702834530733526,-0.02501467429101467,-0.2628712058067322,0.3814619183540344,-0.7009806036949158,-9.82533073425293
1745660550.3364527,0.005084531381726265,-0.01719960756599903,-0.2607947885990143,0.44682008028030396,-0.8174960017204285,-10.010897636413574
1745660550.3387105,-0.0068206824362277985,-0.021583857014775276,-0.26167720556259155,0.4206576943397522,-0.5757543444633484,-9.646989822387695
1745660550.3708477,0.0017697712173685431,-0.01716834492981434,-0.2609521746635437,0.29976987838745117,-0.789569616317749,-9.603425979614258
1745660550.3748317,0.0036200315225869417,-0.023859191685914993,-0.26103541254997253,0.48458385467529297,-0.6127309799194336,-9.757608413696289
1745660550.3776946,0.006827919278293848,-0.02162972465157509,-0.2610524296760559,0.2600010335445404,-0.4989466667175293,-9.976069450378418
1745660550.382787,0.012652533128857613,-0.015507821924984455,-0.26421090960502625,0.4623042941093445,-0.7607680559158325,-9.651254653930664
1745660550.3859847,0.013022499158978462,-0.018946757540106773,-0.2633383274078369,0.2608070373535156,-0.49829405546188354,-9.50239086151123
1745660550.4148865,0.018173981457948685,-0.016833197325468063,-0.2608797252178192,0.5252863168716431,-0.9200999140739441,-9.836865425109863
1745660550.4166734,0.01168888621032238,-0.02307986654341221,-0.25843364000320435,0.44451069831848145,-0.6957521438598633,-9.991377830505371
1745660550.41948,0.018085254356265068,-0.015375018119812012,-0.2581998109817505,0.28966954350471497,-0.8257218599319458,-9.79918098449707
1745660550.421015,0.0036211416590958834,-0.01842273212969303,-0.2565855085849762,0.44689130783081055,-0.6892075538635254,-9.387445449829102
1745660550.4565268,0.006232229992747307,-0.018102135509252548,-0.2613624632358551,0.2958352863788605,-0.6394250988960266,-9.74876880645752
1745660550.4596384,0.012736322358250618,-0.01834871619939804,-0.2608560621738434,0.5398557782173157,-0.7310379147529602,-9.625813484191895
1745660550.4608557,0.010786791332066059,-0.02392091229557991,-0.2620643973350525,0.30859994888305664,-0.6551697850227356,-9.978103637695312
