timestamp,angular_vel_x,angular_vel_y,angular_vel_z,linear_acc_x,linear_acc_y,linear_acc_z
1745729767.6889267,0.14853084087371826,0.11923208087682724,-0.06351839005947113,-0.07587683200836182,0.5667827129364014,-7.887981414794922
1745729767.6889997,0.12929394841194153,0.08569483458995819,-0.05676005035638809,0.7195876836776733,-1.0309748649597168,-8.566737174987793
1745729767.6890724,0.05817854404449463,0.08715437352657318,-0.0529434010386467,0.8779403567314148,-0.08493173122406006,-11.076326370239258
1745729767.6891413,0.01011977344751358,0.13961414992809296,-0.050859998911619186,0.5755107998847961,-0.5508297681808472,-11.253125190734863
1745729767.7164047,0.006329593248665333,0.11457669734954834,-0.04324297234416008,1.0092628002166748,0.02645188570022583,-8.289632797241211
1745729767.716733,-0.05413513258099556,0.09846097975969315,-0.030362481251358986,0.824046790599823,-0.08863797038793564,-8.621255874633789
1745729767.719215,-0.027730653062462807,0.11341197788715363,-0.013094762340188026,0.9266482591629028,-0.26761236786842346,-11.139513969421387
1745729767.7203329,-0.025576820597052574,0.1370239555835724,0.0033353299368172884,0.3188283443450928,0.3113333582878113,-10.477559089660645
1745729767.7244473,0.0016904395306482911,0.14130863547325134,0.01931871846318245,0.39357075095176697,0.5632011294364929,-8.134580612182617
1745729767.7616565,0.02107059396803379,0.11165225505828857,0.026127031072974205,0.7081916332244873,1.4682670831680298,-8.847554206848145
1745729767.7668629,0.08791587501764297,0.13122694194316864,0.020790409296751022,0.48927631974220276,1.2668856382369995,-11.393709182739258
1745729767.769399,0.080227792263031,0.13498897850513458,0.0213464442640543,1.3476289510726929,0.42293810844421387,-10.68629264831543
1745729767.769485,0.0669596716761589,0.1033356636762619,0.02698301151394844,1.1198062896728516,-0.21323461830615997,-9.096498489379883
1745729767.804194,0.010263298638164997,0.10851982980966568,0.03631143644452095,0.7969565987586975,-0.7215988039970398,-9.423128128051758
1745729767.804275,-0.030629996210336685,0.13153386116027832,0.05164629966020584,0.5608183145523071,-0.33046385645866394,-9.97566032409668
1745729767.8043437,0.038557909429073334,0.095372773706913,0.22320857644081116,1.2026493549346924,0.1518397033214569,-9.663904190063477
1745729767.8162842,0.019917968660593033,0.08367040008306503,0.2288549840450287,1.0465105772018433,0.1957535445690155,-9.297231674194336
1745729767.8443875,0.010228244587779045,0.08449503779411316,0.23682346940040588,1.0179742574691772,0.05513561889529228,-9.887582778930664
1745729767.8465521,-0.006632748059928417,0.0764152854681015,0.24424362182617188,1.2322990894317627,0.10769025981426239,-10.21292781829834
1745729767.8500025,0.005464189685881138,0.07611958682537079,0.24914903938770294,1.0250539779663086,0.5109749436378479,-9.87606430053711
1745729767.8525627,0.00744869839400053,0.06912754476070404,0.2546258568763733,0.9909035563468933,0.44324415922164917,-9.598367691040039
1745729767.855108,0.019902799278497696,0.06008855625987053,0.256428599357605,0.7407910823822021,0.7477179765701294,-9.757589340209961
1745729767.887264,0.030375028029084206,0.061163656413555145,0.2603796124458313,0.9646771550178528,0.4669368863105774,-9.975509643554688
1745729767.8895133,0.0375470332801342,0.054176874458789825,0.26322871446609497,0.9667317271232605,0.6203290224075317,-9.821124076843262
1745729767.8912344,0.03646603971719742,0.052930962294340134,0.2661746144294739,0.9356985092163086,0.336625874042511,-9.79866886138916
1745729767.8937082,0.03273811191320419,0.03995388373732567,0.2694985866546631,1.110162615776062,0.4669255316257477,-9.683276176452637
1745729767.9317718,0.03376472368836403,0.041599173098802567,0.2738562226295471,1.0843294858932495,0.25638750195503235,-9.828350067138672
1745729767.9345226,0.02217312715947628,0.03773496299982071,0.2798890471458435,1.309727668762207,0.24483537673950195,-9.880739212036133
1745729767.9368868,0.021831760182976723,0.0320102833211422,0.2846561670303345,1.0284855365753174,0.41585683822631836,-9.90543270111084
1745729767.9400492,0.01787031814455986,0.027233261615037918,0.2889077067375183,1.0456558465957642,0.3691596984863281,-9.686919212341309
1745729767.9438183,0.027223695069551468,0.020909318700432777,0.2924228608608246,0.9840818643569946,0.5684958100318909,-9.676101684570312
1745729767.9773955,0.029143163934350014,0.019706925377249718,0.2946685552597046,0.9225654602050781,0.5277153253555298,-9.96857738494873
1745729767.977484,0.033623822033405304,0.013241606764495373,0.29855453968048096,0.9001353979110718,0.5651825666427612,-9.878573417663574
1745729767.981281,0.052328921854496,0.013072180561721325,0.29712367057800293,0.9448512196540833,0.49485984444618225,-9.579965591430664
1745729767.981389,0.03599745035171509,0.003716298844665289,0.3036777973175049,1.153982400894165,0.3689146041870117,-9.735407829284668
1745729768.0176094,0.0506114736199379,-0.005727288778871298,0.30715733766555786,0.9832326173782349,0.3327811658382416,-10.105696678161621
1745729768.0219557,0.03728228434920311,-0.0020580829586833715,0.3132059574127197,1.1143925189971924,0.09564833343029022,-9.989245414733887
1745729768.0238066,0.030288618057966232,-0.00498864334076643,0.3197699785232544,0.9969131350517273,0.24538353085517883,-9.539019584655762
1745729768.0261388,0.010074114426970482,-0.027631500735878944,0.327486127614975,0.9508486986160278,0.5379109382629395,-9.51622200012207
1745729768.058842,0.009841506369411945,-0.037121135741472244,0.3297048509120941,0.8438952565193176,0.41923707723617554,-9.506630897521973
1745729768.0620801,0.009822318330407143,-0.04246233031153679,0.3333083987236023,1.1466403007507324,0.3149612247943878,-9.985628128051758
1745729768.0649831,0.016988560557365417,-0.036923736333847046,0.3366878628730774,0.9732391238212585,0.4923202395439148,-10.146772384643555
1745729768.0695872,0.01972716860473156,-0.041187841445207596,0.34171271324157715,0.9497221112251282,0.3263694941997528,-9.652193069458008
1745729768.0708954,0.02378864213824272,-0.05318945646286011,0.3453831076622009,0.9102722406387329,0.4909815192222595,-9.405072212219238
1745729768.1049798,0.0246572382748127,-0.05190066248178482,0.35054531693458557,1.0159302949905396,0.31775373220443726,-9.9345703125
1745729768.107203,0.019524525851011276,-0.05270903557538986,0.35188719630241394,1.014710545539856,0.3477897346019745,-10.12170124053955
1745729768.1111243,0.02546960674226284,-0.05275169759988785,0.35315534472465515,0.8339415788650513,0.38965463638305664,-9.619097709655762
1745729768.1137848,0.001345157390460372,-0.06357541680335999,0.35424360632896423,0.9857824444770813,0.15826168656349182,-9.487422943115234
1745729768.1543667,0.005190717056393623,-0.06347399204969406,0.35714781284332275,0.8703374862670898,0.37970417737960815,-9.904202461242676
1745729768.158707,-0.016873393207788467,-0.06476350873708725,0.3581191599369049,1.0401332378387451,0.16086825728416443,-10.081707954406738
1745729768.1634483,-0.01285282988101244,-0.07315929234027863,0.3596149682998657,0.910438060760498,0.3052617311477661,-9.718584060668945
1745729768.1701093,-0.0968777984380722,-0.08323349058628082,0.42538124322891235,0.6689123511314392,0.3383823037147522,-9.778594970703125
1745729768.1882575,-0.10773490369319916,-0.08805746585130692,0.42618417739868164,0.6994532942771912,0.4055674076080322,-9.767134666442871
1745729768.1905277,-0.10108070075511932,-0.08727308362722397,0.42783308029174805,0.5565338730812073,0.5005033016204834,-9.682541847229004
1745729768.1936047,-0.10792243480682373,-0.0841708853840828,0.4279429018497467,0.7904899716377258,0.3949355483055115,-9.74722671508789
1745729768.194585,-0.10751515626907349,-0.0818183645606041,0.4309288561344147,0.5615428686141968,0.6349123120307922,-9.846461296081543
1745729768.1966708,-0.11112276464700699,-0.08216197788715363,0.4302546977996826,0.6534919738769531,0.38949257135391235,-9.772073745727539
1745729768.2366073,-0.10629256069660187,-0.08254482597112656,0.4311341345310211,0.6449475288391113,0.6264416575431824,-9.613243103027344
1745729768.2367444,-0.11234305053949356,-0.07588844001293182,0.43204107880592346,0.6468544602394104,0.45602837204933167,-9.8245210647583
1745729768.237122,-0.11294689029455185,-0.08109394460916519,0.43266740441322327,0.647502064704895,0.5400336980819702,-9.81148624420166
1745729768.2389503,-0.10397418588399887,-0.07425608485937119,0.4349822402000427,0.5667442083358765,0.49265384674072266,-9.714057922363281
1745729768.2738674,-0.11639998108148575,-0.07062865793704987,0.4370911717414856,0.7539475560188293,0.4640577435493469,-9.574084281921387
1745729768.2765474,-0.10782946646213531,-0.07558782398700714,0.4370206892490387,0.5851245522499084,0.6198620796203613,-9.825669288635254
1745729768.2775648,-0.10971157252788544,-0.06962854415178299,0.43927422165870667,0.7100568413734436,0.563748836517334,-9.90550422668457
1745729768.2800875,-0.10761912167072296,-0.07121558487415314,0.43866151571273804,0.5928796529769897,0.6143811941146851,-9.734834671020508
1745729768.28171,-0.10521826893091202,-0.061699241399765015,0.4396817684173584,0.5668748617172241,0.5480120778083801,-9.604272842407227
1745729768.3182652,-0.11998548358678818,-0.06695485860109329,0.43934887647628784,0.5722033977508545,0.5597683787345886,-9.687126159667969
1745729768.3214195,-0.10734383761882782,-0.061814941465854645,0.43994569778442383,0.5890858173370361,0.522260844707489,-9.826855659484863
1745729768.3236058,-0.12384311109781265,-0.05998930335044861,0.4404663145542145,0.7230694890022278,0.5243456959724426,-9.791902542114258
1745729768.326978,-0.11318175494670868,-0.056900400668382645,0.44048991799354553,0.4786284565925598,0.660677433013916,-9.718255996704102
1745729768.3622205,-0.11977462470531464,-0.0547780804336071,0.4414862096309662,0.5799590349197388,0.44330033659935,-9.64616584777832
1745729768.3648467,-0.11096422374248505,-0.054784856736660004,0.4446044862270355,0.5857464671134949,0.6793139576911926,-9.664261817932129
1745729768.3659754,-0.11961372196674347,-0.04234330728650093,0.4483117461204529,0.6222563982009888,0.4619207978248596,-9.841862678527832
1745729768.370097,-0.11226065456867218,-0.05104970186948776,0.4476979672908783,0.5572840571403503,0.7011638879776001,-9.719226837158203
1745729768.4032874,-0.11280132830142975,-0.039258524775505066,0.44527918100357056,0.4952309727668762,0.6820763349533081,-9.729194641113281
1745729768.405797,-0.11903409659862518,-0.043973565101623535,0.44925394654273987,0.6868014931678772,0.5001604557037354,-9.662895202636719
1745729768.4076035,-0.11893409490585327,-0.042678821831941605,0.44839876890182495,0.6008790135383606,0.7520149946212769,-9.775854110717773
1745729768.4094293,-0.1214602142572403,-0.035255175083875656,0.45186343789100647,0.6316138505935669,0.4950944483280182,-9.893165588378906
1745729768.4121585,-0.11634723842144012,-0.037113286554813385,0.4513639509677887,0.4901500642299652,0.7557936906814575,-9.688056945800781
1745729768.4482377,-0.11194948852062225,-0.034948837012052536,0.453855037689209,0.6142441034317017,0.6567468047142029,-9.606042861938477
1745729768.4506118,-0.1171489804983139,-0.034770239144563675,0.45489615201950073,0.6527971029281616,0.7548099756240845,-9.777237892150879
1745729768.4529173,-0.09509668499231339,-0.02862389013171196,0.45474886894226074,0.49743613600730896,0.7796837091445923,-9.877126693725586
1745729768.4590862,-0.1100144162774086,-0.029567008838057518,0.4551656246185303,0.6100093126296997,0.6709600687026978,-9.714237213134766
1745729768.492566,-0.09056494385004044,-0.02682565525174141,0.4565652012825012,0.4791378080844879,0.7903896570205688,-9.567964553833008
1745729768.495973,-0.10521075874567032,-0.024744629859924316,0.4572502076625824,0.6349440813064575,0.6304910778999329,-9.684083938598633
1745729768.5003953,-0.10503947734832764,-0.025852292776107788,0.45366182923316956,0.5411053895950317,0.7169834971427917,-9.95012092590332
1745729768.501653,-0.10151349008083344,-0.021718360483646393,0.4553525447845459,0.6377817392349243,0.6358677744865417,-9.828727722167969
1745729768.5318172,-0.03670331835746765,-0.005037551745772362,0.4603380560874939,0.5321943163871765,1.0020406246185303,-9.788450241088867
1745729768.5350068,-0.04915352910757065,-0.002222152426838875,0.4604102671146393,0.626471221446991,0.7816950678825378,-9.854089736938477
1745729768.5369847,-0.04213429614901543,-0.007840795442461967,0.45942169427871704,0.5109544992446899,0.883965015411377,-9.691253662109375
1745729768.539693,-0.0396154522895813,-0.005589368753135204,0.4600345194339752,0.6751207709312439,0.8619403839111328,-9.628480911254883
1745729768.5425715,-0.04391751438379288,-0.008179315365850925,0.4591025710105896,0.6231961846351624,0.8885530233383179,-9.79809284210205
1745729768.5783525,-0.030986636877059937,-0.004082899075001478,0.45931777358055115,0.5474302172660828,0.8330478668212891,-9.86646556854248
1745729768.580381,-0.04029379040002823,-0.012466242536902428,0.4614773392677307,0.7027926445007324,0.7685712575912476,-9.718157768249512
1745729768.5818756,-0.038096942007541656,-0.008287242613732815,0.4588693678379059,0.48750418424606323,0.862769603729248,-9.663233757019043
1745729768.5827453,-0.03829513117671013,-0.008088557049632072,0.46008792519569397,0.6652991771697998,0.710049569606781,-9.712278366088867
1745729768.6203165,-0.042025040835142136,-0.012662291526794434,0.4608698785305023,0.5395706295967102,1.0028064250946045,-9.826350212097168
1745729768.623086,-0.03806256502866745,-0.010159635916352272,0.45574021339416504,0.5979961156845093,0.6950293779373169,-9.813414573669434
1745729768.625106,-0.037289317697286606,-0.012471561320126057,0.45935702323913574,0.6072457432746887,0.9593240022659302,-9.567761421203613
1745729768.6261873,-0.04211241006851196,-0.013161631301045418,0.45636406540870667,0.5596548318862915,0.7677587866783142,-9.823829650878906
1745729768.66507,-0.04101165756583214,-0.018217533826828003,0.45553073287010193,0.6525975465774536,0.8322184681892395,-9.833070755004883
1745729768.6651366,-0.03650768846273422,-0.010437864810228348,0.4582059979438782,0.5198310613632202,0.8236351013183594,-9.667866706848145
1745729768.6662347,-0.043620578944683075,-0.009804695844650269,0.45718103647232056,0.6619771718978882,0.7762869000434875,-9.535709381103516
1745729768.6691554,-0.03387406840920448,-0.01473788172006607,0.4600643217563629,0.5189197659492493,0.9350641369819641,-9.789414405822754
1745729768.6712353,-0.035010118037462234,-0.01534520648419857,0.45638012886047363,0.6416987180709839,0.8780983090400696,-9.90205192565918
1745729768.7084424,-0.026978934183716774,-0.014130985364317894,0.4540340304374695,0.5802890658378601,0.9634587168693542,-9.753165245056152
1745729768.7109942,-0.036167778074741364,-0.011525697074830532,0.4538730978965759,0.5447472333908081,0.8460794687271118,-9.609926223754883
1745729768.7130408,-0.03658857196569443,-0.02123301848769188,0.4521273970603943,0.5943084955215454,0.8079860806465149,-9.666948318481445
1745729768.7160072,-0.029315581545233727,-0.014399027451872826,0.4523082375526428,0.5639403462409973,0.7841955423355103,-9.819344520568848
1745729768.7470815,-0.048513904213905334,-0.014842015691101551,0.451251745223999,0.6950722932815552,0.7448671460151672,-9.810970306396484
1745729768.7494442,-0.035245321691036224,-0.018839649856090546,0.45103615522384644,0.44954124093055725,0.944340705871582,-9.659452438354492
1745729768.7575119,-0.0416315495967865,-0.020549235865473747,0.4523445963859558,0.6509023308753967,0.7233021855354309,-9.64924144744873
1745729768.7576315,-0.03737863153219223,-0.019988765940070152,0.4501102566719055,0.6300350427627563,0.9712983965873718,-9.801409721374512
1745729768.7587173,-0.039730753749608994,-0.01600456051528454,0.45334380865097046,0.5714462399482727,0.7550570964813232,-9.944814682006836
1745729768.7933779,-0.029269272461533546,-0.02342098578810692,0.44961056113243103,0.5532375574111938,1.0132393836975098,-9.593257904052734
1745729768.7956195,-0.03226619213819504,-0.022443685680627823,0.4491141438484192,0.5658367872238159,0.7939340472221375,-9.61241340637207
1745729768.7997656,-0.03264700248837471,-0.02296704240143299,0.4498198628425598,0.6342260837554932,0.9423627853393555,-9.842432975769043
1745729768.7998288,-0.034884173423051834,-0.019307145848870277,0.4457160532474518,0.47576189041137695,0.902118980884552,-9.866525650024414
1745729768.8329065,-0.03510800004005432,-0.02615758776664734,0.44568580389022827,0.7128371596336365,0.735560953617096,-9.577169418334961
1745729768.8358374,-0.039200711995363235,-0.028078287839889526,0.4446328580379486,0.6066229343414307,0.9725275039672852,-9.655670166015625
1745729768.8399227,-0.03853340446949005,-0.020512860268354416,0.4459165930747986,0.5792241096496582,0.6616349220275879,-9.955076217651367
1745729768.8399665,-0.035862140357494354,-0.02437417395412922,0.4456969201564789,0.5095086693763733,0.9301162958145142,-9.706972122192383
1745729768.8432703,-0.035879723727703094,-0.025521855801343918,0.4467504918575287,0.6161540746688843,0.7795536518096924,-9.54918384552002
1745729768.8806684,-0.016458800062537193,-0.03409285098314285,0.4246743321418762,0.5926238298416138,1.0539361238479614,-9.872053146362305
1745729768.8822181,-0.013814570382237434,-0.029948856681585312,0.42376142740249634,0.5329179167747498,0.7392945289611816,-9.872052192687988
1745729768.8853557,-0.01695137284696102,-0.03659917786717415,0.42238521575927734,0.43500620126724243,0.8844010233879089,-9.535531997680664
1745729768.9228034,-0.010379886254668236,-0.03297237306833267,0.42613357305526733,0.5850337743759155,0.808573842048645,-9.502619743347168
1745729768.9228864,-0.027575885877013206,-0.034072935581207275,0.42645230889320374,0.6289745569229126,0.8814736604690552,-9.90997314453125
1745729768.9271138,-0.00694217998534441,-0.030605807900428772,0.4236536920070648,0.4106827676296234,0.9427584409713745,-9.991591453552246
1745729768.9307687,-0.018269654363393784,-0.03164007142186165,0.4223249554634094,0.5472670197486877,0.8586775064468384,-9.573046684265137
1745729768.9335744,-0.007629692554473877,-0.03360234946012497,0.42317041754722595,0.42306432127952576,1.0109760761260986,-9.518087387084961
1745729768.9646723,-0.01635921746492386,-0.030721822753548622,0.41981181502342224,0.5907950401306152,0.7594073414802551,-9.807703018188477
1745729768.9664369,-0.015157078392803669,-0.03564583510160446,0.4220518171787262,0.49883919954299927,0.8913604021072388,-9.968240737915039
1745729768.9679916,-0.01499948650598526,-0.02883891388773918,0.4195789694786072,0.5428541302680969,0.8152914047241211,-9.74018669128418
1745729768.969431,-0.021500976756215096,-0.03173451870679855,0.41958102583885193,0.51365727186203,0.8644708395004272,-9.506013870239258
1745729769.00795,-0.010569147765636444,-0.029331186786293983,0.419938862323761,0.44283103942871094,0.9256895184516907,-9.675248146057129
1745729769.0106823,-0.021769996732473373,-0.03463604673743248,0.42154431343078613,0.6483949422836304,0.8311300277709961,-9.93307113647461
1745729769.0140915,-0.008277724497020245,-0.029127204790711403,0.41873055696487427,0.4501519799232483,1.009929895401001,-9.818750381469727
1745729769.0168936,-0.011716019362211227,-0.029169317334890366,0.41763782501220703,0.5428593754768372,0.8694822192192078,-9.581873893737793
1745729769.0205712,-0.014884663745760918,-0.035575009882450104,0.4171256124973297,0.4114144444465637,1.0488779544830322,-9.703534126281738
1745729769.0495865,-0.0016802080208435655,-0.02855684421956539,0.41375789046287537,0.5163370370864868,0.7915908098220825,-9.880985260009766
1745729769.0526175,-0.007700767368078232,-0.028307905420660973,0.413888156414032,0.5000487565994263,1.0406557321548462,-9.641855239868164
1745729769.0527456,-0.007479061372578144,-0.027703100815415382,0.41264694929122925,0.44655829668045044,0.7791651487350464,-9.70261001586914
1745729769.0620449,-0.007161825895309448,-0.03687039762735367,0.41337090730667114,0.6102019548416138,0.9161930084228516,-9.709134101867676
1745729769.0933046,-0.0032188452314585447,-0.027685115113854408,0.4124113917350769,0.4578343331813812,0.8852039575576782,-9.870149612426758
1745729769.0958364,-0.013123112730681896,-0.023076405748724937,0.41123002767562866,0.5707556009292603,0.767532229423523,-9.722862243652344
1745729769.1005552,-0.012442579492926598,-0.030464347451925278,0.4110634922981262,0.5487194061279297,0.8546866178512573,-9.656939506530762
1745729769.1030872,-0.009153434075415134,-0.029511932283639908,0.4106932580471039,0.5279503464698792,0.9425284266471863,-9.884243965148926
1745729769.1377983,-0.007772214710712433,-0.022814154624938965,0.40929079055786133,0.4168704152107239,0.9222245216369629,-9.848085403442383
1745729769.1399872,-0.016063788905739784,-0.030167171731591225,0.4070979952812195,0.4646855294704437,0.8499002456665039,-9.575935363769531
1745729769.1429913,0.0020634012762457132,-0.029541173949837685,0.4052075445652008,0.4776589870452881,0.9625760912895203,-9.536384582519531
1745729769.146376,-0.02145247347652912,-0.026160722598433495,0.405977725982666,0.6231909990310669,0.8141210675239563,-9.969375610351562
1745729769.1790495,-0.00033743539825081825,-0.030448172241449356,0.4029402732849121,0.3637305200099945,0.9140259623527527,-9.929756164550781
1745729769.1818554,-0.007712609134614468,-0.023130405694246292,0.40639209747314453,0.5205233097076416,0.7509287595748901,-9.452454566955566
1745729769.1855695,-0.00960327684879303,-0.027401607483625412,0.40739011764526367,0.48449811339378357,0.8781019449234009,-9.473917007446289
1745729769.1884072,-0.004616365768015385,-0.02231510542333126,0.40813690423965454,0.5519860982894897,0.798157811164856,-9.99088191986084
1745729769.1903994,-0.005413889419287443,-0.028824269771575928,0.4051452577114105,0.5528598427772522,1.032089114189148,-9.951811790466309
1745729769.2276518,0.0032767057418823242,-0.0246258731931448,0.4050045907497406,0.4675315022468567,0.841253399848938,-9.659523963928223
1745729769.2277007,-0.005665612872689962,-0.02819737419486046,0.4016212821006775,0.4871984124183655,0.9917616844177246,-9.542450904846191
1745729769.2324662,0.01691770926117897,-0.026072626933455467,0.3936728239059448,0.4936825633049011,0.7363238334655762,-9.770072937011719
1745729769.2352276,0.01617441140115261,-0.022736918181180954,0.396526038646698,0.41969165205955505,0.8945121765136719,-9.547201156616211
1745729769.2661242,0.02444506622850895,-0.02387741580605507,0.398730605840683,0.4443647861480713,0.7210708856582642,-9.644233703613281
1745729769.268005,0.019442841410636902,-0.034641556441783905,0.39752429723739624,0.503815770149231,1.127457857131958,-9.907257080078125
1745729769.2698052,0.046879611909389496,-0.038397274911403656,0.38759803771972656,0.379729688167572,1.1104629039764404,-9.97089958190918
1745729769.2733476,0.03793788701295853,-0.0277862548828125,0.37831297516822815,0.018513454124331474,1.3096904754638672,-9.809125900268555
1745729769.274828,0.05596155673265457,-0.042443204671144485,0.366115927696228,-0.20254316926002502,1.145249366760254,-9.445083618164062
1745729769.3125575,0.07527642697095871,-0.045252732932567596,0.35769039392471313,0.1296907365322113,0.810146689414978,-9.595407485961914
1745729769.313994,0.06806190311908722,-0.03630068153142929,0.35453465580940247,-0.2266048640012741,1.0109472274780273,-9.980862617492676
1745729769.3179524,0.061967480927705765,-0.03449101373553276,0.35159730911254883,-0.17675724625587463,0.035099539905786514,-9.873733520507812
1745729769.3277571,0.08403337001800537,-0.04152364283800125,0.3534913659095764,0.2012186050415039,0.66483074426651,-9.099126815795898
1745729769.352935,0.04621189087629318,-0.042416952550411224,0.3527890741825104,0.28944486379623413,0.1559847742319107,-9.842510223388672
1745729769.35716,0.020520225167274475,-0.04468931630253792,0.3519884943962097,0.30003777146339417,0.15050692856311798,-10.501116752624512
1745729769.3598654,0.01915033906698227,-0.039393551647663116,0.34481340646743774,0.13147547841072083,0.35207536816596985,-9.624578475952148
1745729769.3632338,-0.03376090154051781,-0.047346726059913635,0.3428620994091034,0.26655808091163635,0.22066684067249298,-9.12734603881836
1745729769.3923128,-0.04751770943403244,-0.05934415012598038,0.33455199003219604,0.1208333745598793,0.8911691904067993,-9.83638858795166
1745729769.3952136,-0.05349542945623398,-0.055734001100063324,0.3279719948768616,0.20576982200145721,0.47339144349098206,-10.502385139465332
1745729769.395259,-0.036731038242578506,-0.051545072346925735,0.32045429944992065,0.060404885560274124,1.5342998504638672,-9.431632995605469
1745729769.397244,-0.04045160114765167,-0.05568283051252365,0.3142480254173279,0.15700682997703552,0.9662452936172485,-9.215814590454102
1745729769.3997762,0.0225903932005167,-0.07285583019256592,0.31399351358413696,0.34319058060646057,1.4594895839691162,-9.8566312789917
1745729769.4383962,0.0445932038128376,-0.05363976210355759,0.3105877935886383,0.22387926280498505,1.3684158325195312,-10.506866455078125
1745729769.4405086,0.06822995096445084,-0.05770985409617424,0.3122803568840027,0.14999540150165558,1.0511775016784668,-9.77223014831543
1745729769.4439256,0.130624458193779,-0.06654597073793411,0.31485462188720703,0.050475113093853,1.2230314016342163,-8.86994457244873
1745729769.4474032,0.09894707053899765,-0.0628906860947609,0.27849921584129333,-0.005442810244858265,0.49421223998069763,-9.876370429992676
1745729769.4818015,0.07502429187297821,-0.07070323079824448,0.27071818709373474,-0.22582504153251648,0.7624192237854004,-8.976929664611816
1745729769.491323,0.06689105182886124,-0.07830323278903961,0.266315758228302,-0.04557023569941521,-0.05666618421673775,-9.611224174499512
1745729769.4914184,0.047504063695669174,-0.06986896693706512,0.2639242708683014,0.18530145287513733,0.19810721278190613,-10.289617538452148
1745729769.4914958,0.0046752505004405975,-0.059385187923908234,0.2674633860588074,-0.051971159875392914,-0.027658289298415184,-10.138967514038086
1745729769.5242608,0.011982371099293232,-0.07907473295927048,0.26640304923057556,0.24318286776542664,0.27397722005844116,-9.085511207580566
1745729769.527767,0.027868006378412247,-0.06567539274692535,0.26700419187545776,-0.17966793477535248,0.8995766639709473,-9.599409103393555
1745729769.5327952,0.0068213618360459805,-0.061608679592609406,0.2609651982784271,0.39291253685951233,0.7759500741958618,-10.341397285461426
1745729769.536955,0.05209773778915405,-0.07549344003200531,0.2524833381175995,0.21298761665821075,1.0878846645355225,-10.11219310760498
1745729769.539519,0.06973308324813843,-0.0684925839304924,0.2423621118068695,0.04114397615194321,1.2620761394500732,-9.406681060791016
1745729769.567595,0.04761834815144539,-0.06526820361614227,0.2327013462781906,0.013880565762519836,1.0051417350769043,-9.506982803344727
1745729769.570715,0.09984979033470154,-0.06712295114994049,0.22401098906993866,0.17791548371315002,0.883102297782898,-9.913396835327148
1745729769.57227,0.08475087583065033,-0.06637243926525116,0.21638908982276917,0.7303204536437988,1.0212234258651733,-9.878232955932617
1745729769.5741932,0.21657928824424744,0.033701155334711075,-0.004886661656200886,0.6055907011032104,0.09532264620065689,-10.230301856994629
1745729769.6082544,0.23041734099388123,0.03945574909448624,-0.008972172625362873,0.3837604522705078,0.4503893256187439,-10.02295970916748
1745729769.6118226,0.213678240776062,0.04153374955058098,-0.015237545594573021,0.29805392026901245,0.13748666644096375,-9.5247802734375
1745729769.613687,0.21505551040172577,0.039762161672115326,-0.02139405533671379,0.509889543056488,0.11383036524057388,-9.514251708984375
1745729769.6163716,0.2220296412706375,0.04436001926660538,-0.02371702715754509,0.3235512375831604,0.2649533748626709,-10.018073081970215
1745729769.6270697,0.2139141857624054,0.04556252434849739,-0.025380516424775124,0.5125054121017456,0.09759773313999176,-10.033136367797852
1745729769.656245,0.2322867214679718,0.05314657837152481,-0.028541970998048782,0.3142154812812805,0.3015997111797333,-9.583208084106445
1745729769.6566792,0.20980462431907654,0.04855307936668396,-0.03154412657022476,0.4411723017692566,-0.02469005063176155,-9.519713401794434
1745729769.6593432,0.22319713234901428,0.04861941561102867,-0.03772140294313431,0.42902857065200806,0.3570321202278137,-9.821664810180664
1745729769.6636324,0.20473118126392365,0.059209514409303665,-0.0465032234787941,0.4881288409233093,0.0859469473361969,-10.1638822555542
1745729769.6945724,0.21715593338012695,0.05426028370857239,-0.05043654516339302,0.5710729360580444,0.27313119173049927,-9.734086990356445
1745729769.6968455,0.2122582197189331,0.05312194302678108,-0.05568620562553406,0.41967159509658813,0.28828495740890503,-9.480826377868652
1745729769.6997523,0.19736698269844055,0.04870632290840149,-0.06199771910905838,0.6259763240814209,-0.04106668755412102,-9.809724807739258
1745729769.70122,0.22949981689453125,0.061624713242053986,-0.06411199271678925,0.3748733401298523,0.4479290843009949,-9.895330429077148
1745729769.7041016,0.20384731888771057,0.055219393223524094,-0.06905333697795868,0.5557741522789001,-0.04552628844976425,-9.744775772094727
1745729769.7409015,0.2321767807006836,0.05537407472729683,-0.0734364315867424,0.44026193022727966,0.47299546003341675,-9.523690223693848
1745729769.746506,0.22936001420021057,0.05487128347158432,-0.07663561403751373,0.45609110593795776,0.10241802036762238,-9.880166053771973
1745729769.7503052,0.23798611760139465,0.05383315682411194,-0.07933393120765686,0.48836302757263184,0.1768285185098648,-10.0109224319458
1745729769.7503512,0.24409472942352295,0.06210651248693466,-0.08646025508642197,0.36430054903030396,0.09968303143978119,-9.696138381958008
1745729769.7804646,0.22685611248016357,0.055307090282440186,-0.09028513729572296,0.5241497159004211,-0.22214655578136444,-9.438665390014648
1745729769.781075,0.24004213511943817,0.05591817945241928,-0.09177263081073761,0.3929033577442169,0.08642765134572983,-9.587101936340332
1745729769.7833605,0.207371786236763,0.05706223100423813,-0.09873958677053452,0.6448756456375122,-0.2952565550804138,-10.037153244018555
1745729769.7970173,0.2213144749403,0.060753799974918365,-0.09953568875789642,0.5084406137466431,-0.1266520768404007,-9.768439292907715
1745729769.8272896,0.19622541964054108,0.05821792036294937,-0.11022762954235077,0.4504348635673523,0.01763870380818844,-10.005773544311523
1745729769.8299007,0.19012406468391418,0.05140731483697891,-0.11684367805719376,0.5499855279922485,-0.025700638070702553,-9.837526321411133
1745729769.830211,0.20580244064331055,0.05391236022114754,-0.1165400967001915,0.4006749987602234,0.037818651646375656,-9.4658784866333
1745729769.8321798,0.1920965164899826,0.04693787544965744,-0.12093906104564667,0.5570935010910034,-0.016424184665083885,-9.567341804504395
1745729769.8663347,0.21727947890758514,0.05070725083351135,-0.12623918056488037,0.44420403242111206,0.0347914844751358,-9.852203369140625
1745729769.868576,0.20618180930614471,0.053057510405778885,-0.1285552829504013,0.5837204456329346,-0.056083012372255325,-9.809103965759277
1745729769.8703814,0.2092115879058838,0.04553120583295822,-0.13189974427223206,0.5427517890930176,-0.10036022961139679,-9.58244800567627
1745729769.8733659,0.21583101153373718,0.04865832254290581,-0.13614390790462494,0.4812993109226227,-0.20964303612709045,-9.698801040649414
1745729769.8755116,0.19152691960334778,0.03966116905212402,-0.13933715224266052,0.5563231110572815,-0.2201409786939621,-9.895606994628906
1745729769.9130554,0.20659224689006805,0.04647771269083023,-0.14317366480827332,0.4886045455932617,-0.2786555886268616,-9.79004192352295
1745729769.9146135,0.1820574700832367,0.041696660220623016,-0.14457574486732483,0.6187769174575806,-0.3173174262046814,-9.596020698547363
1745729769.915576,0.18628908693790436,0.0368804857134819,-0.1485072821378708,0.501447319984436,-0.19569885730743408,-9.609040260314941
1745729769.9174984,0.1705222725868225,0.03889504820108414,-0.1512475460767746,0.560150146484375,-0.40963825583457947,-9.821986198425293
1745729769.9542294,0.117353655397892,-0.010801060125231743,-0.2365916222333908,0.4888727068901062,-0.5696646571159363,-9.722757339477539
1745729769.9571242,0.11308858543634415,-0.01634526066482067,-0.23803091049194336,0.5887918472290039,-0.4558418393135071,-9.683713912963867
1745729769.9597309,0.1289091855287552,-0.009691235609352589,-0.239024356007576,0.48287516832351685,-0.5776033997535706,-9.793665885925293
1745729769.9623792,0.11194205284118652,-0.018612248823046684,-0.2391880452632904,0.5483206510543823,-0.46763721108436584,-9.847602844238281
1745729769.9625578,0.13694992661476135,-0.016431447118520737,-0.23984618484973907,0.45276013016700745,-0.45152825117111206,-9.758218765258789
1745729769.9965537,0.12189941108226776,-0.01724313758313656,-0.24063587188720703,0.560662567615509,-0.5851398706436157,-9.725992202758789
1745729770.000392,0.1306784749031067,-0.02324693277478218,-0.24283358454704285,0.4651435911655426,-0.38258376717567444,-9.716819763183594
1745729770.0005517,0.12028099596500397,-0.018136773258447647,-0.24607305228710175,0.5455701947212219,-0.728678822517395,-9.873345375061035
1745729770.0024345,0.1185707300901413,-0.020549457520246506,-0.24725337326526642,0.500187873840332,-0.4540692865848541,-9.729050636291504
1745729770.0445483,0.12023571878671646,-0.017008323222398758,-0.25014621019363403,0.4891439378261566,-0.6711502075195312,-9.69478702545166
1745729770.044761,0.09787873178720474,-0.025934258475899696,-0.2518373429775238,0.5812193155288696,-0.6028337478637695,-9.758298873901367
1745729770.047725,0.11408627033233643,-0.02191653475165367,-0.2530471682548523,0.4982852041721344,-0.5847958326339722,-9.900294303894043
1745729770.049465,0.104819655418396,-0.02148388884961605,-0.254980206489563,0.5290119647979736,-0.6242206692695618,-9.789223670959473
1745729770.0523896,0.10873989015817642,-0.02590406872332096,-0.25457751750946045,0.4334971010684967,-0.4483684003353119,-9.71392822265625
1745729770.0838277,0.11561838537454605,-0.020398449152708054,-0.2539537847042084,0.507350742816925,-0.6343649625778198,-9.768346786499023
1745729770.0871189,0.10957632213830948,-0.02607617899775505,-0.2555345892906189,0.4381997585296631,-0.49616003036499023,-9.81970500946045
1745729770.0872204,0.12258000671863556,-0.021185610443353653,-0.25772762298583984,0.42549046874046326,-0.5556799173355103,-9.759401321411133
1745729770.0890102,0.11198846250772476,-0.02493930608034134,-0.2583543658256531,0.5158886909484863,-0.5853433012962341,-9.662975311279297
1745729770.1303852,0.11878930032253265,-0.02315169759094715,-0.2606740891933441,0.45260676741600037,-0.6937965154647827,-9.799934387207031
1745729770.1322875,0.10586380958557129,-0.024128828197717667,-0.2613687813282013,0.5932515859603882,-0.6357119679450989,-9.840194702148438
1745729770.1347477,0.10268446058034897,-0.02284928224980831,-0.26458001136779785,0.4559878408908844,-0.6642702221870422,-9.853238105773926
1745729770.1372106,0.1028117761015892,-0.021304745227098465,-0.2619021236896515,0.5345357656478882,-0.7406057119369507,-9.717425346374512
1745729770.1690106,0.10076304525136948,-0.027288174256682396,-0.26515597105026245,0.48201337456703186,-0.5072202086448669,-9.768339157104492
1745729770.173887,0.11167855560779572,-0.02194918692111969,-0.2648791968822479,0.38363581895828247,-0.7189830541610718,-9.692405700683594
1745729770.1783993,0.1073790043592453,-0.02528250217437744,-0.2679689824581146,0.5738005638122559,-0.6229966282844543,-9.720911026000977
1745729770.1814516,0.11572808027267456,-0.025941651314496994,-0.26845425367355347,0.4027058184146881,-0.6289653182029724,-10.002891540527344
1745729770.213366,0.10530535131692886,-0.022105397656559944,-0.2670289874076843,0.5436984300613403,-0.8089656829833984,-9.929738998413086
1745729770.2148058,0.1058661937713623,-0.025720667093992233,-0.26906147599220276,0.41161656379699707,-0.5585756301879883,-9.609933853149414
1745729770.2234313,0.09526895731687546,-0.022875340655446053,-0.2687499225139618,0.5906824469566345,-0.9351457357406616,-9.72858715057373
1745729770.2240567,0.10085771232843399,-0.02841121517121792,-0.2705547511577606,0.5427605509757996,-0.5491412878036499,-9.901386260986328
1745729770.2274568,0.09062211960554123,-0.02176394872367382,-0.2731958031654358,0.42639297246932983,-0.7285119295120239,-9.93379020690918
1745729770.2572782,0.09134067595005035,-0.023134201765060425,-0.2718181610107422,0.536841094493866,-0.7282792329788208,-9.600595474243164
1745729770.261108,0.10018278658390045,-0.022778598591685295,-0.2750484347343445,0.3368144631385803,-0.5701690316200256,-9.591493606567383
1745729770.263048,0.08701450377702713,-0.026383057236671448,-0.272798627614975,0.5882827043533325,-0.8510780334472656,-9.957053184509277
1745729770.2649844,0.1025601252913475,-0.021465307101607323,-0.2723850607872009,0.357796847820282,-0.4926973283290863,-9.9712553024292
1745729770.2969847,0.0943513885140419,-0.019056828692555428,-0.2752308249473572,0.48273730278015137,-0.8144986033439636,-9.71586799621582
1745729770.299977,0.079977847635746,-0.014962838962674141,-0.2907083034515381,0.46752986311912537,-0.6107139587402344,-9.386197090148926
1745729770.3011997,0.07560086995363235,-0.01452641747891903,-0.29241055250167847,0.46863871812820435,-0.9662324786186218,-9.682564735412598
1745729770.3038578,0.077767014503479,-0.01660904660820961,-0.2921975255012512,0.5861421823501587,-0.7950894236564636,-9.97341537475586
1745729770.3446586,0.08000737428665161,-0.01253491174429655,-0.2942825257778168,0.38275331258773804,-0.8708011507987976,-9.959527969360352
1745729770.3447182,0.06800968199968338,-0.014074834994971752,-0.29390329122543335,0.5319020748138428,-1.0454351902008057,-9.5170259475708
1745729770.344766,0.07569615542888641,-0.013348517939448357,-0.2942242920398712,0.4053162634372711,-0.6605737805366516,-9.481512069702148
1745729770.3487642,0.06506934016942978,-0.013325599022209644,-0.292785108089447,0.552747368812561,-1.0798500776290894,-9.90311336517334
1745729770.3551638,0.06945884972810745,-0.012894472107291222,-0.2934688925743103,0.5312092304229736,-0.6929763555526733,-9.872745513916016
1745729770.3872907,0.06850860267877579,-0.010704767890274525,-0.295190691947937,0.49867191910743713,-1.0347704887390137,-9.704331398010254
1745729770.389966,0.06378696858882904,-0.018438387662172318,-0.292752742767334,0.517116129398346,-0.8473702669143677,-9.615143775939941
1745729770.393388,0.06196022778749466,-0.015411118045449257,-0.2936907708644867,0.4088054299354553,-0.8755184412002563,-9.832776069641113
1745729770.395877,0.053080905228853226,-0.014248276129364967,-0.29288285970687866,0.5622092485427856,-1.014494776725769,-9.939817428588867
1745729770.426362,0.07501591742038727,-0.01314117293804884,-0.294572651386261,0.38956218957901,-0.6371265053749084,-9.62647819519043
1745729770.4310346,0.055438630282878876,-0.01577216573059559,-0.2976198196411133,0.5348596572875977,-0.9009532928466797,-9.515817642211914
1745729770.4337356,0.06686023622751236,-0.01934117078781128,-0.29645195603370667,0.5034250020980835,-0.7649641036987305,-9.696247100830078
1745729770.445745,0.06719088554382324,-0.011064511723816395,-0.29957127571105957,0.4657055735588074,-0.8713487386703491,-9.92277717590332
1745729770.4461842,0.06189234182238579,-0.018353935331106186,-0.29600441455841064,0.5602052807807922,-0.9484413266181946,-9.762089729309082
1745729770.4709792,0.06372092664241791,-0.015363775193691254,-0.29558369517326355,0.4273393154144287,-0.9212690591812134,-9.555415153503418
1745729770.474784,0.050176989287137985,-0.02056920900940895,-0.2945408523082733,0.6124246120452881,-1.020150065422058,-9.766910552978516
1745729770.4748588,0.06323064863681793,-0.015633706003427505,-0.2969134449958801,0.38648366928100586,-0.8554912805557251,-9.913870811462402
1745729770.478156,0.04638827219605446,-0.013430194929242134,-0.2927080988883972,0.5459305644035339,-0.9099966883659363,-9.725019454956055
1745729770.5152383,0.0601632297039032,-0.02015845850110054,-0.29630613327026367,0.40818625688552856,-0.847967267036438,-9.499042510986328
1745729770.5183492,0.055733393877744675,-0.016427254304289818,-0.2974132299423218,0.4527440071105957,-0.8759862184524536,-9.692098617553711
1745729770.5241017,0.0602119043469429,-0.021650448441505432,-0.2969989776611328,0.5355039834976196,-0.9999650120735168,-9.736793518066406
1745729770.525319,0.04393572360277176,-0.01835457608103752,-0.2956363558769226,0.587451159954071,-0.9850427508354187,-10.016508102416992
1745729770.5555332,0.05664357542991638,-0.020645588636398315,-0.2963286340236664,0.4220246374607086,-0.8408587574958801,-9.866360664367676
1745729770.5591483,0.04622120410203934,-0.0201983954757452,-0.29579582810401917,0.5035175681114197,-1.0332714319229126,-9.531112670898438
1745729770.562159,0.04247619956731796,-0.026467571035027504,-0.29641374945640564,0.455741822719574,-0.7206145524978638,-9.527351379394531
1745729770.5649934,0.05922379344701767,-0.01883324235677719,-0.2975490689277649,0.4698086678981781,-0.9699457287788391,-9.908428192138672
1745729770.567466,0.041654281318187714,-0.022091863676905632,-0.29998138546943665,0.48497048020362854,-0.7485942840576172,-9.739683151245117
1745729770.6043088,0.054575156420469284,-0.020389167591929436,-0.3007256090641022,0.4173436164855957,-0.9659727215766907,-9.579632759094238
1745729770.6060114,0.047630179673433304,-0.02271116152405739,-0.29673561453819275,0.590173065662384,-0.9540246725082397,-9.59347152709961
1745729770.608295,0.04790595918893814,-0.022183889523148537,-0.29795488715171814,0.39721009135246277,-0.8512953519821167,-9.932403564453125
1745729770.61183,0.053774040192365646,-0.017864566296339035,-0.299041211605072,0.5958467721939087,-1.0573155879974365,-9.911517143249512
1745729770.6454322,0.04657570645213127,-0.02274930849671364,-0.2953506410121918,0.45063138008117676,-0.8419686555862427,-9.57607650756836
1745729770.6471875,0.05319569259881973,-0.021752452477812767,-0.29488450288772583,0.4942891597747803,-1.0266940593719482,-9.580610275268555
1745729770.6502655,0.011091059073805809,-0.026478910818696022,-0.29298311471939087,0.557279109954834,-0.9540271759033203,-9.710016250610352
1745729770.6520574,0.015720898285508156,-0.02940034307539463,-0.2925209403038025,0.4242018163204193,-0.8623664975166321,-9.55871295928955
1745729770.6862013,0.009662345983088017,-0.029373154044151306,-0.29214099049568176,0.5644254088401794,-1.078460454940796,-9.679594039916992
1745729770.6877394,0.017609894275665283,-0.02728087268769741,-0.2944629192352295,0.38801226019859314,-0.741277813911438,-9.856735229492188
1745729770.6877832,0.020367229357361794,-0.02444942481815815,-0.2928437888622284,0.510084867477417,-1.0768195390701294,-9.832058906555176
1745729770.689741,0.009915584698319435,-0.028839344158768654,-0.29123741388320923,0.4730159342288971,-0.8765207529067993,-9.6055326461792
1745729770.695834,0.02425270341336727,-0.03052717074751854,-0.2904629707336426,0.4000278115272522,-1.0302915573120117,-9.814396858215332
1745729770.7310708,0.008922691456973553,-0.029518142342567444,-0.2891485095024109,0.49959319829940796,-0.978460967540741,-9.81389045715332
1745729770.7336552,0.018291177228093147,-0.026321109384298325,-0.28990262746810913,0.3867228925228119,-0.8981469869613647,-9.690505027770996
1745729770.7445872,0.014634994789958,-0.02870725654065609,-0.29102692008018494,0.5704829692840576,-1.0881409645080566,-9.603273391723633
1745729770.7446585,0.015756381675601006,-0.02806064486503601,-0.2914309501647949,0.3614611029624939,-0.7980338931083679,-9.746739387512207
1745729770.7753427,0.00970777403563261,-0.022928941994905472,-0.29229623079299927,0.5385104417800903,-1.0411256551742554,-9.844246864318848
1745729770.7753835,0.014038048684597015,-0.026904845610260963,-0.29268336296081543,0.49870020151138306,-0.8896106481552124,-9.63661003112793
1745729770.7769897,0.011035163886845112,-0.02494865283370018,-0.2927597165107727,0.3556157946586609,-0.9856942892074585,-9.666280746459961
1745729770.7784443,0.006733756512403488,-0.027383815497159958,-0.2911224961280823,0.5875323414802551,-1.0113334655761719,-9.833260536193848
1745729770.814559,0.015141831710934639,-0.02350929006934166,-0.28888770937919617,0.37916475534439087,-0.9591981768608093,-9.930657386779785
1745729770.8176875,0.00557933421805501,-0.025865325704216957,-0.2899254858493805,0.5473402738571167,-1.0254452228546143,-9.690366744995117
1745729770.8195612,0.011467734351754189,-0.03041183389723301,-0.28969699144363403,0.41222190856933594,-0.8751187324523926,-9.595491409301758
1745729770.819614,0.004225667100399733,-0.026272332295775414,-0.28971537947654724,0.48487958312034607,-1.0291714668273926,-9.777891159057617
1745729770.8230226,0.019925568252801895,-0.025787770748138428,-0.28918445110321045,0.42008882761001587,-0.7616759538650513,-9.735345840454102
1745729770.8684626,0.012968748807907104,-0.021008431911468506,-0.28925347328186035,0.4287351667881012,-1.0198447704315186,-9.67759895324707
1745729770.8685389,0.010067259892821312,-0.02928270772099495,-0.2899051308631897,0.5063406229019165,-0.8582042455673218,-9.66362476348877
1745729770.8685863,0.024773944169282913,-0.019208069890737534,-0.2907511591911316,0.39680033922195435,-0.9328024983406067,-9.856199264526367
1745729770.8686323,0.024786168709397316,-0.023083854466676712,-0.2912759482860565,0.44777774810791016,-0.9224004745483398,-9.6918306350708
1745729770.9018478,0.005678136367350817,-0.025198116898536682,-0.289726585149765,0.5435181856155396,-1.1849383115768433,-9.794523239135742
1745729770.9084086,0.020451659336686134,-0.026165027171373367,-0.28976479172706604,0.40989941358566284,-0.8162204623222351,-9.714892387390137
1745729770.9085388,0.0033434745855629444,-0.019716892391443253,-0.28814730048179626,0.49012961983680725,-1.1273539066314697,-9.716569900512695
1745729770.910924,0.004050360526889563,-0.0254393070936203,-0.29036492109298706,0.5000065565109253,-0.9430185556411743,-9.644678115844727
1745729770.9419403,0.01440709549933672,-0.023203473538160324,-0.29052263498306274,0.43293118476867676,-0.9109121561050415,-9.72380256652832
1745729770.9455962,-0.008529523387551308,-0.024808263406157494,-0.2890772521495819,0.48585501313209534,-0.9991467595100403,-9.840795516967773
1745729770.9501374,0.012853525578975677,-0.02024851366877556,-0.29078367352485657,0.37371301651000977,-0.9113200306892395,-9.760477066040039
1745729770.9528039,0.0007014720467850566,-0.02147705852985382,-0.2885493338108063,0.519468367099762,-0.954764723777771,-9.701677322387695
1745729770.9557066,0.009464109316468239,-0.02911699377000332,-0.28886574506759644,0.4202185571193695,-0.8370115160942078,-9.796137809753418
1745729770.9867182,0.012330506928265095,-0.017617959529161453,-0.2898270785808563,0.5329345464706421,-0.9816312789916992,-9.834073066711426
1745729770.9880323,0.008585995994508266,-0.026530569419264793,-0.2890703082084656,0.46693143248558044,-0.9488178491592407,-9.697465896606445
1745729770.9896004,0.012343958020210266,-0.021705767139792442,-0.2887280583381653,0.41602087020874023,-0.9964799880981445,-9.561564445495605
1745729770.9914353,-0.014017989858984947,-0.022374652326107025,-0.289090096950531,0.4489481449127197,-0.8808401823043823,-9.768232345581055
1745729771.0329947,-0.019507119432091713,-0.01717003434896469,-0.2882210612297058,0.5096580386161804,-1.125619649887085,-9.570996284484863
1745729771.0356903,-0.02520802617073059,-0.02640763483941555,-0.28887128829956055,0.39908909797668457,-0.7608100771903992,-9.640583992004395
1745729771.0357459,-0.012022333219647408,-0.02292889915406704,-0.2893499732017517,0.4793367385864258,-0.9357555508613586,-9.96636962890625
1745729771.0392628,-0.02066640928387642,-0.022116469219326973,-0.28723424673080444,0.4401840567588806,-0.7905992269515991,-9.865869522094727
1745729771.072527,0.005207334645092487,-0.02229907177388668,-0.28705620765686035,0.3259139060974121,-0.8056904077529907,-9.59172248840332
1745729771.0751173,-0.013400278985500336,-0.026655539870262146,-0.2864075303077698,0.4937645494937897,-0.9564567804336548,-9.615180969238281
1745729771.0779643,0.00016578193753957748,-0.024945806711912155,-0.2882044315338135,0.33227869868278503,-0.7799232602119446,-9.828740119934082
1745729771.080787,0.0027132558170706034,-0.016674377024173737,-0.2868110239505768,0.5050479173660278,-0.8886030912399292,-9.781638145446777
1745729771.080844,-0.003185860114172101,-0.024884294718503952,-0.28932344913482666,0.4292832911014557,-0.7992900013923645,-9.541528701782227
1745729771.1177936,-0.0030697358306497335,-0.022128205746412277,-0.28799641132354736,0.5220737457275391,-0.986457347869873,-9.709541320800781
1745729771.120266,-0.0086585134267807,-0.02449491061270237,-0.2897443175315857,0.5321658253669739,-0.8876944780349731,-9.945611953735352
1745729771.1231723,-0.005513115786015987,-0.02188330888748169,-0.2894006669521332,0.3325271010398865,-0.9624279737472534,-9.897815704345703
1745729771.1255605,-0.01731492020189762,-0.022323472425341606,-0.2887497544288635,0.5216726064682007,-0.9996824264526367,-9.53962516784668
1745729771.1591122,-0.010781018063426018,-0.02695666253566742,-0.2881658673286438,0.33905431628227234,-0.895538330078125,-9.692227363586426
1745729771.162583,-0.01330451387912035,-0.024928495287895203,-0.2869032323360443,0.4886392652988434,-0.8989899754524231,-9.842179298400879
1745729771.1701388,-0.011708877980709076,-0.02639998123049736,-0.28659766912460327,0.44012007117271423,-0.8579990267753601,-9.826775550842285
1745729771.1702182,-0.008171716704964638,-0.022054152563214302,-0.2869635820388794,0.4194702208042145,-1.0019450187683105,-9.641800880432129
1745729771.1702855,-0.006797533482313156,-0.0256720669567585,-0.2880702316761017,0.413593590259552,-0.66766756772995,-9.528833389282227
1745729771.2026649,-0.0054922387935221195,-0.02262207865715027,-0.28710728883743286,0.34712010622024536,-0.9477370977401733,-9.840384483337402
1745729771.2052143,-0.00835198163986206,-0.023240843787789345,-0.2885964810848236,0.596359372138977,-0.8342873454093933,-9.798447608947754
1745729771.2070382,0.0034142795484513044,-0.0230701956897974,-0.2881888747215271,0.38565608859062195,-0.8135175704956055,-9.769977569580078
1745729771.207103,-0.011602367274463177,-0.02497958019375801,-0.28834056854248047,0.497948557138443,-0.965648353099823,-9.767130851745605
1745729771.2449603,0.004760507494211197,-0.024934304878115654,-0.28736478090286255,0.3995334506034851,-0.7132703065872192,-9.701658248901367
1745729771.2479618,-0.008089475333690643,-0.022904736921191216,-0.2882208824157715,0.5141730308532715,-1.0804040431976318,-9.778684616088867
1745729771.2486792,0.004019326064735651,-0.024368077516555786,-0.2876846194267273,0.45674794912338257,-0.6103883981704712,-9.600144386291504
1745729771.2528284,-0.0007723498856648803,-0.023042766377329826,-0.2868511378765106,0.41242140531539917,-0.9510297775268555,-9.747653007507324
1745729771.2578511,0.0018510250374674797,-0.023589324206113815,-0.28761330246925354,0.43317633867263794,-0.839150607585907,-9.733871459960938
1745729771.2916002,0.011674960143864155,-0.021291468292474747,-0.2885679006576538,0.3877783417701721,-0.8004093170166016,-9.708539962768555
1745729771.2938294,-0.005247821565717459,-0.025299329310655594,-0.28701967000961304,0.49449244141578674,-1.0235371589660645,-9.806982040405273
1745729771.2959034,0.010156371630728245,-0.021453330293297768,-0.2874234616756439,0.3170180916786194,-0.7527467012405396,-9.798308372497559
1745729771.2999065,0.005543594714254141,-0.01946140080690384,-0.28909698128700256,0.4773595333099365,-1.0016101598739624,-9.685953140258789
1745729771.3342774,-2.073204450425692e-05,-0.028108978644013405,-0.2889208197593689,0.45341721177101135,-0.8222097158432007,-9.640446662902832
1745729771.3343387,0.0038266927003860474,-0.018298126757144928,-0.2848510146141052,0.48257923126220703,-0.91802978515625,-9.843585014343262
1745729771.3360834,-0.001921904506161809,-0.0272748414427042,-0.2885436415672302,0.4591754376888275,-0.9222968816757202,-9.827919006347656
1745729771.338404,0.0017994299996644258,-0.01713256537914276,-0.2881612479686737,0.31814709305763245,-0.8715542554855347,-9.632417678833008
1745729771.374041,-0.011476595886051655,-0.021512504667043686,-0.2844744622707367,0.44016796350479126,-0.9845072031021118,-9.875541687011719
1745729771.376535,0.0032129131723195314,-0.025286395102739334,-0.2869126796722412,0.4137316346168518,-0.684285044670105,-9.74267864227295
1745729771.378367,0.00690373033285141,-0.01740388572216034,-0.2864500880241394,0.3627699911594391,-0.8414680361747742,-9.606107711791992
1745729771.3785782,0.005042905453592539,-0.02532127872109413,-0.2865005433559418,0.3831213116645813,-0.6079508066177368,-9.601971626281738
1745729771.4180477,0.024489780887961388,-0.02235690876841545,-0.28950124979019165,0.46279019117355347,-0.8126816749572754,-9.887186050415039
1745729771.4209454,0.00789015181362629,-0.02401336096227169,-0.28789323568344116,0.5639492869377136,-0.9719371795654297,-10.009835243225098
1745729771.435459,0.02452213689684868,-0.02507796511054039,-0.2880023121833801,0.34222984313964844,-0.8352481126785278,-9.714446067810059
1745729771.4355922,-0.005512627772986889,-0.022694021463394165,-0.28570541739463806,0.487296998500824,-1.1797292232513428,-9.561030387878418
1745729771.4356518,0.002833037404343486,-0.023578915745019913,-0.28527694940567017,0.41478413343429565,-0.836086094379425,-9.630681991577148
1745729771.4608498,-0.0015323334373533726,-0.02234591916203499,-0.2871226668357849,0.5281078219413757,-0.8915651440620422,-9.87513542175293
1745729771.4621432,-0.009243677370250225,-0.025103703141212463,-0.28686046600341797,0.4639224112033844,-0.7642912268638611,-9.811781883239746
1745729771.4638224,0.0011042538098990917,-0.023529615253210068,-0.2884531021118164,0.3850601315498352,-0.8478195071220398,-9.670515060424805
1745729771.4651022,-0.005860879551619291,-0.025058994069695473,-0.28881189227104187,0.43613511323928833,-0.8099079132080078,-9.725032806396484
1745729771.5048304,0.007552249822765589,-0.02548045851290226,-0.28770753741264343,0.288745641708374,-0.7565029859542847,-9.871495246887207
1745729771.5072522,0.0020024024415761232,-0.022454898804426193,-0.2874481678009033,0.561464250087738,-0.8888203501701355,-9.766565322875977
1745729771.510084,0.009283646941184998,-0.02595723792910576,-0.28547531366348267,0.3920329809188843,-0.8589188456535339,-9.685293197631836
1745729771.5135453,0.008790452964603901,-0.023997405543923378,-0.2843642830848694,0.5051469206809998,-0.8902357816696167,-9.636783599853516
1745729771.5164528,0.0049852305091917515,-0.0304618738591671,-0.28457143902778625,0.49164295196533203,-0.8003549575805664,-9.822111129760742
1745729771.5494905,0.008152665570378304,-0.02104100212454796,-0.2845008969306946,0.3846912086009979,-0.9848893880844116,-9.858484268188477
1745729771.549592,0.0014641191810369492,-0.023097792640328407,-0.2860533595085144,0.5012494325637817,-0.6887450218200684,-9.563058853149414
1745729771.5508153,6.428845517802984e-05,-0.026679690927267075,-0.28737032413482666,0.3495277762413025,-0.9001473188400269,-9.660126686096191
1745729771.5522852,-0.002583862980827689,-0.023324254900217056,-0.28790047764778137,0.530201256275177,-0.8614091873168945,-9.847723007202148
1745729771.5917845,0.012859540991485119,-0.02174820378422737,-0.2897939682006836,0.3216707110404968,-0.7093926668167114,-9.864683151245117
1745729771.5931084,0.008257348090410233,-0.023206718266010284,-0.2861015796661377,0.4641696512699127,-1.0600978136062622,-9.909433364868164
1745729771.594268,0.010947929695248604,-0.025900647044181824,-0.2858068346977234,0.46495088934898376,-0.7292565107345581,-9.750913619995117
1745729771.5967612,0.01119954138994217,-0.023043807595968246,-0.2854246497154236,0.3725448250770569,-0.9408868551254272,-9.64404010772705
1745729771.6329825,0.004149527754634619,-0.02698991633951664,-0.2856101989746094,0.497586727142334,-0.8739249110221863,-9.643941879272461
1745729771.6360862,0.009373597800731659,-0.02540617063641548,-0.2867358922958374,0.3524578809738159,-0.7759758830070496,-9.86357307434082
1745729771.6383016,-0.005603710655122995,-0.023803886026144028,-0.2894149124622345,0.5492385625839233,-0.9864387512207031,-9.898286819458008
1745729771.642138,0.003915427252650261,-0.02424655482172966,-0.2885165214538574,0.37822744250297546,-0.6996576189994812,-9.647665023803711
1745729771.6748598,-0.0025996961630880833,-0.024791788309812546,-0.289387971162796,0.4553949236869812,-1.0147969722747803,-9.689831733703613
1745729771.6771517,-0.003812086535617709,-0.030725032091140747,-0.2878936529159546,0.4752103388309479,-0.8045593500137329,-9.783235549926758
1745729771.6787179,0.0052634477615356445,-0.01888052001595497,-0.28648215532302856,0.4100285470485687,-0.8441530466079712,-9.850500106811523
1745729771.682519,0.002029038965702057,-0.025548532605171204,-0.28638243675231934,0.49339398741722107,-0.8777354955673218,-9.627138137817383
1745729771.6894398,0.00924614630639553,-0.023240219801664352,-0.2850349247455597,0.29748865962028503,-0.7006500959396362,-9.588417053222656
1745729771.7180505,0.002678412012755871,-0.024578150361776352,-0.28437167406082153,0.4813160300254822,-0.8990923166275024,-9.82380485534668
1745729771.7203045,0.00761225214228034,-0.01630369946360588,-0.289356529712677,0.4200972020626068,-0.973493754863739,-9.854889869689941
1745729771.721919,0.01194536779075861,-0.019388269633054733,-0.2909466624259949,0.43272727727890015,-0.6699835062026978,-9.654550552368164
1745729771.7244143,0.014366243965923786,-0.014322618022561073,-0.29084980487823486,0.4315200746059418,-0.956201434135437,-9.664716720581055
1745729771.764274,0.005441226065158844,-0.02377534657716751,-0.28892213106155396,0.5048751831054688,-0.8265441656112671,-9.793157577514648
1745729771.7643697,0.018910184502601624,-0.0177915059030056,-0.2896111011505127,0.36722803115844727,-0.8605868220329285,-9.947492599487305
1745729771.7646265,0.00406774552538991,-0.016604863107204437,-0.28557953238487244,0.46748608350753784,-0.9704982042312622,-9.75971508026123
1745729771.7696116,0.019496334716677666,-0.019620921462774277,-0.2871573567390442,0.3460562825202942,-0.6098023653030396,-9.455842971801758
1745729771.7725906,0.006120743695646524,-0.019370190799236298,-0.28781458735466003,0.46586331725120544,-0.9468084573745728,-9.748403549194336
1745729771.8046234,0.01683887094259262,-0.020735856145620346,-0.28852683305740356,0.41002026200294495,-0.6149997711181641,-9.86296272277832
1745729771.8070498,0.02152537927031517,-0.013747344724833965,-0.2923075556755066,0.3981390595436096,-0.8676115870475769,-9.728344917297363
1745729771.809173,0.007353737019002438,-0.021620456129312515,-0.29185253381729126,0.4593953490257263,-0.8135334849357605,-9.562864303588867
1745729771.8116195,0.012838615104556084,-0.018550559878349304,-0.29264917969703674,0.4357512593269348,-0.9526765942573547,-9.822845458984375
1745729771.8509488,0.0058310204185545444,-0.016486261039972305,-0.28982260823249817,0.4546257555484772,-0.9015000462532043,-9.993400573730469
1745729771.855107,0.01130614709109068,-0.018976666033267975,-0.28967389464378357,0.34411031007766724,-0.7677546143531799,-9.733952522277832
1745729771.8571496,0.008878295309841633,-0.016577469184994698,-0.28958261013031006,0.5432420372962952,-0.8947080373764038,-9.530735969543457
1745729771.8578146,0.007461719214916229,-0.025544872507452965,-0.2883854806423187,0.4090190827846527,-0.805462658405304,-9.810468673706055
1745729771.890686,0.014919904991984367,-0.017180534079670906,-0.2873270511627197,0.3824499249458313,-0.7984252572059631,-9.965160369873047
1745729771.9069784,0.0032195807434618473,-0.019107360392808914,-0.2901363968849182,0.40807390213012695,-0.7904979586601257,-9.70484447479248
1745729771.9070692,0.016427582129836082,-0.01654071919620037,-0.2907589077949524,0.32579848170280457,-0.9195221662521362,-9.493460655212402
1745729771.9071429,0.0014933686470612884,-0.023127494379878044,-0.2888321876525879,0.5217853784561157,-0.7199139595031738,-9.69999885559082
1745729771.9072068,0.009484576992690563,-0.018626147881150246,-0.2890782952308655,0.36172494292259216,-0.842348575592041,-10.037214279174805
1745729771.933402,0.008199749514460564,-0.01328103244304657,-0.291411429643631,0.5039281249046326,-0.8377774357795715,-9.76566219329834
1745729771.9357057,0.013578785583376884,-0.01901387609541416,-0.29030513763427734,0.40002673864364624,-0.7910416126251221,-9.531342506408691
1745729771.9396307,0.017114970833063126,-0.014844750985503197,-0.28842616081237793,0.3577710688114166,-1.0180237293243408,-9.735784530639648
1745729771.9429133,0.006512428633868694,-0.01844719797372818,-0.28902825713157654,0.4532596468925476,-0.704751193523407,-9.338129997253418
1745729771.9773884,0.011768991127610207,-0.02228178083896637,-0.2913263142108917,0.36132803559303284,-0.8976157903671265,-9.765324592590332
1745729771.9798682,0.005743707530200481,-0.01621961034834385,-0.289323627948761,0.4884463846683502,-0.8702753782272339,-10.07066822052002
1745729771.9832554,0.009960876777768135,-0.01630241610109806,-0.2919556796550751,0.3213290274143219,-0.716347873210907,-9.770902633666992
1745729771.9919975,-0.001374733867123723,-0.017169926315546036,-0.2887544333934784,0.5103358030319214,-1.071992039680481,-9.524635314941406
1745729772.0227885,0.0019123153761029243,-0.02174631878733635,-0.2887451946735382,0.42101001739501953,-0.6983811259269714,-9.662521362304688
1745729772.0229108,0.00533258868381381,-0.016763826832175255,-0.2909006178379059,0.42258110642433167,-0.9037525057792664,-10.048702239990234
1745729772.0269728,-0.0025965641252696514,-0.016529811546206474,-0.2919357419013977,0.4767678380012512,-0.8283357620239258,-9.72750186920166
1745729772.0311427,0.008322453126311302,-0.01233288086950779,-0.2934546172618866,0.3563400208950043,-0.7357692122459412,-9.453210830688477
1745729772.0315232,-0.005285761319100857,-0.023518703877925873,-0.28926992416381836,0.5180260539054871,-0.9286338686943054,-9.712774276733398
1745729772.065613,0.0032771907281130552,-0.01989656127989292,-0.29132381081581116,0.3319380283355713,-0.8002063035964966,-10.041604995727539
1745729772.0674355,-0.005601942539215088,-0.014403397217392921,-0.2889412045478821,0.4497300088405609,-1.0068422555923462,-9.889760971069336
1745729772.0675046,0.007715003099292517,-0.01847197487950325,-0.298308789730072,0.47339314222335815,-0.6388445496559143,-9.683531761169434
1745729772.0696745,0.005264580249786377,-0.02024807780981064,-0.2989780008792877,0.4312517046928406,-0.9152625203132629,-9.752569198608398
1745729772.107162,0.00012582000636029989,-0.020617935806512833,-0.2978242039680481,0.5483943819999695,-0.7446532249450684,-9.793107986450195
1745729772.109804,0.013567103073000908,-0.016603311523795128,-0.2949814200401306,0.3422544300556183,-0.8529459834098816,-9.849241256713867
1745729772.1109068,-0.0017021034145727754,-0.020713036879897118,-0.2966708540916443,0.4616459310054779,-0.7345119714736938,-9.693285942077637
1745729772.1131017,0.018283676356077194,-0.0180807001888752,-0.29585346579551697,0.36953097581863403,-0.6406421065330505,-9.719396591186523
1745729772.115057,0.01015855185687542,-0.020794609561562538,-0.29730579257011414,0.45799654722213745,-0.854719340801239,-9.864442825317383
1745729772.1492383,0.02355578914284706,-0.020931517705321312,-0.29811275005340576,0.3705792725086212,-0.559063732624054,-9.678956985473633
1745729772.1512644,0.011921155266463757,-0.018724475055933,-0.3013092577457428,0.4260489344596863,-0.983320415019989,-9.705850601196289
1745729772.1546247,0.00852149911224842,-0.0254521407186985,-0.29733985662460327,0.45676755905151367,-0.8206535577774048,-9.708768844604492
1745729772.1559186,0.015922004356980324,-0.017720986157655716,-0.2996090054512024,0.38244935870170593,-0.8399219512939453,-9.815834045410156
1745729772.1918867,-0.004089462570846081,-0.021093960851430893,-0.29680579900741577,0.4990077018737793,-0.8687637448310852,-9.755971908569336
1745729772.194256,0.01485183835029602,-0.017697859555482864,-0.29753923416137695,0.4247559607028961,-0.7403643727302551,-9.678000450134277
1745729772.1965845,0.0034419347066432238,-0.020479246973991394,-0.29742830991744995,0.4765300750732422,-0.8446715474128723,-9.813982963562012
1745729772.1977026,0.015021328814327717,-0.024064188823103905,-0.2975015938282013,0.3353187143802643,-0.5861018896102905,-9.860199928283691
1745729772.2382112,0.017303649336099625,-0.016975287348031998,-0.2968007028102875,0.41626906394958496,-0.7932039499282837,-9.703370094299316
1745729772.238844,0.014503839425742626,-0.025191903114318848,-0.2988739609718323,0.4258531630039215,-0.7656787037849426,-9.61776351928711
1745729772.2438123,0.02288772724568844,-0.02081156149506569,-0.29595473408699036,0.38983428478240967,-0.7654868364334106,-9.72514533996582
1745729772.247692,0.007628510240465403,-0.025223221629858017,-0.2995491027832031,0.5092521905899048,-0.846939206123352,-9.925870895385742
1745729772.2532606,0.027157004922628403,-0.017209991812705994,-0.2965613007545471,0.3554617464542389,-0.7798150181770325,-9.760759353637695
1745729772.2807734,0.007930511608719826,-0.02096054144203663,-0.2995813190937042,0.5353092551231384,-0.8293516039848328,-9.53541374206543
1745729772.2828329,0.014220086857676506,-0.026209339499473572,-0.2961929440498352,0.37287288904190063,-0.7570001482963562,-9.769878387451172
1745729772.2884264,0.013647684827446938,-0.01787635311484337,-0.29602527618408203,0.4686511158943176,-0.845667839050293,-9.959944725036621
1745729772.2890866,0.028229285031557083,-0.022627854719758034,-0.30130648612976074,0.38250643014907837,-0.9118355512619019,-9.978758811950684
1745729772.3220427,0.023283448070287704,-0.018315475434064865,-0.2957912087440491,0.4880848526954651,-0.7962717413902283,-9.724308967590332
1745729772.323876,0.029379596933722496,-0.020774072036147118,-0.29627859592437744,0.3535423278808594,-0.8242838978767395,-9.586441040039062
1745729772.324109,0.0206854697316885,-0.022337177768349648,-0.2966617941856384,0.46895503997802734,-0.9261366128921509,-9.740762710571289
1745729772.3259854,0.025460368022322655,-0.02401486039161682,-0.29489102959632874,0.3527171015739441,-0.5539566874504089,-9.897647857666016
1745729772.3631146,0.023827863857150078,-0.016590997576713562,-0.2983550727367401,0.5040725469589233,-0.9602912664413452,-9.865556716918945
1745729772.3661373,0.02937190607190132,-0.021051768213510513,-0.29849886894226074,0.4079630970954895,-0.5127504467964172,-9.540521621704102
1745729772.3681247,0.029973691329360008,-0.02261420711874962,-0.30059775710105896,0.3622589409351349,-0.8541947603225708,-9.709711074829102
1745729772.370984,0.024542951956391335,-0.02445916272699833,-0.3005044162273407,0.5008918642997742,-0.8381388783454895,-9.863218307495117
1745729772.3728743,0.035638630390167236,-0.017966773360967636,-0.3002166152000427,0.33299127221107483,-0.7263652086257935,-9.804222106933594
1745729772.4068158,0.028155261650681496,-0.023090502247214317,-0.29879677295684814,0.5496575832366943,-0.987228274345398,-9.600884437561035
1745729772.4099057,0.02749507501721382,-0.025429164990782738,-0.2929442524909973,0.3548550605773926,-0.6945759654045105,-9.700520515441895
1745729772.4120896,0.029684964567422867,-0.020641881972551346,-0.2957318425178528,0.4912079870700836,-0.9531210660934448,-9.959001541137695
1745729772.4198933,0.023553280159831047,-0.020066330209374428,-0.2958352565765381,0.4304329454898834,-0.6481096148490906,-9.669504165649414
1745729772.450825,0.020383700728416443,-0.02140350267291069,-0.29864805936813354,0.34353381395339966,-0.9311520457267761,-9.797109603881836
1745729772.452574,0.0171781275421381,-0.017846282571554184,-0.295218288898468,0.5211324095726013,-0.7349482178688049,-9.742692947387695
1745729772.453777,0.031928591430187225,-0.018028009682893753,-0.2965391278266907,0.33799228072166443,-0.7766590118408203,-9.79265022277832
1745729772.454579,0.017881084233522415,-0.019799331203103065,-0.29574623703956604,0.4293058514595032,-0.8561570048332214,-9.777748107910156
1745729772.4569216,0.034795131534338,-0.021166671067476273,-0.29682397842407227,0.3811933994293213,-0.7009912729263306,-9.749734878540039
1745729772.4931126,0.01811193861067295,-0.019281117245554924,-0.29791414737701416,0.4413832724094391,-1.066734790802002,-9.830248832702637
1745729772.4961774,0.02952209673821926,-0.021830260753631592,-0.2958863377571106,0.41552114486694336,-0.6560584306716919,-9.595597267150879
1745729772.4963028,0.014098291285336018,-0.0182790607213974,-0.2965468466281891,0.4241984784603119,-1.064234733581543,-9.748453140258789
1745729772.4978306,0.010485716164112091,-0.019920382648706436,-0.296448290348053,0.4643099308013916,-0.8124372363090515,-9.761472702026367
1745729772.537813,0.022854894399642944,-0.016439789906144142,-0.2983996272087097,0.3650573790073395,-0.7240525484085083,-9.743882179260254
1745729772.5396287,0.007327546831220388,-0.020251186564564705,-0.2986287474632263,0.4833226203918457,-0.8770591616630554,-9.701135635375977
1745729772.5460975,0.022806283086538315,-0.021902238950133324,-0.29722848534584045,0.3899189531803131,-0.7022449374198914,-9.76697063446045
1745729772.5508764,0.019991572946310043,-0.018968258053064346,-0.2978173792362213,0.4445306360721588,-0.9324039220809937,-9.914216995239258
1745729772.580951,0.019257953390479088,-0.02260085567831993,-0.2953307032585144,0.36861172318458557,-0.7008346319198608,-9.761445045471191
1745729772.5839663,0.0274164080619812,-0.016876501962542534,-0.29615092277526855,0.45900583267211914,-0.8807638883590698,-9.647412300109863
1745729772.584121,0.02028636261820793,-0.025056958198547363,-0.2952709496021271,0.5047715902328491,-0.8851253390312195,-9.72716236114502
1745729772.5855334,0.027850544080138206,-0.022210728377103806,-0.29410210251808167,0.3909096121788025,-0.7999904155731201,-9.814424514770508
1745729772.6227112,0.017046531662344933,-0.022631468251347542,-0.29605719447135925,0.5182703137397766,-0.8799812197685242,-9.77577018737793
1745729772.628433,0.025541964918375015,-0.02087419480085373,-0.29478636384010315,0.32351216673851013,-0.8014216423034668,-9.639002799987793
1745729772.6285827,0.016146162524819374,-0.020418141037225723,-0.2956297993659973,0.5185678601264954,-0.8032070994377136,-9.644742965698242
1745729772.6286893,0.014274179935455322,-0.02442816272377968,-0.29560819268226624,0.4117223620414734,-0.7615004777908325,-9.852099418640137
1745729772.666926,0.018730249255895615,-0.020153453573584557,-0.2934839725494385,0.5011743307113647,-0.6622774004936218,-9.709938049316406
1745729772.6686776,0.022815154865384102,-0.02091616950929165,-0.29499250650405884,0.3955501914024353,-0.8974038362503052,-9.859376907348633
1745729772.6700528,0.014565235003829002,-0.020265525206923485,-0.29369744658470154,0.48993825912475586,-0.8700337409973145,-9.679043769836426
1745729772.6702182,0.018420791253447533,-0.02279929257929325,-0.2967900335788727,0.3960637152194977,-0.7938533425331116,-9.690746307373047
1745729772.6724477,0.01701272651553154,-0.020738575607538223,-0.291670024394989,0.4530319571495056,-0.9467857480049133,-9.867010116577148
1745729772.718567,0.011219555512070656,-0.024424657225608826,-0.29516252875328064,0.35596317052841187,-0.6791267395019531,-9.782146453857422
1745729772.718758,0.01646212488412857,-0.018530571833252907,-0.29334789514541626,0.4413003921508789,-1.0281747579574585,-9.784968376159668
1745729772.7200644,0.013879267498850822,-0.022523878142237663,-0.2930963635444641,0.4731362462043762,-0.6268271207809448,-9.6019287109375
1745729772.7237072,0.021615982055664062,-0.02165837213397026,-0.2945689558982849,0.34786975383758545,-0.8197690844535828,-9.750082015991211
1745729772.753095,0.01736832596361637,-0.022525768727064133,-0.29357317090034485,0.5039271116256714,-0.8720428347587585,-9.75753402709961
1745729772.7558498,0.03022950515151024,-0.020701488479971886,-0.2940925359725952,0.34588348865509033,-0.6621246337890625,-9.727136611938477
1745729772.757603,0.01939157210290432,-0.021652117371559143,-0.29283520579338074,0.4749676287174225,-1.000481367111206,-9.710256576538086
1745729772.7586951,0.022523973137140274,-0.022490955889225006,-0.29261094331741333,0.3390754759311676,-0.7148832082748413,-9.705910682678223
1745729772.7942264,0.00842443760484457,-0.016951289027929306,-0.2937297224998474,0.30634066462516785,-0.8653379678726196,-9.643698692321777
1745729772.7978365,-0.0022180478554219007,-0.020397936925292015,-0.29352685809135437,0.568841278553009,-0.907107949256897,-9.658543586730957
1745729772.8013492,0.014566818252205849,-0.017977934330701828,-0.29225096106529236,0.36370378732681274,-0.7294386625289917,-9.877667427062988
1745729772.8071597,-0.002642926527187228,-0.015193750150501728,-0.2935493588447571,0.419154554605484,-0.9062207341194153,-9.906437873840332
1745729772.837924,0.014228453859686852,-0.018893133848905563,-0.29381269216537476,0.41609224677085876,-0.7191436290740967,-9.633432388305664
1745729772.8409705,0.0055891843512654305,-0.018264776095747948,-0.29163193702697754,0.4200132489204407,-1.043532371520996,-9.708584785461426
1745729772.842547,0.005280505400151014,-0.023391226306557655,-0.2907086908817291,0.4672732353210449,-0.7052360773086548,-9.761751174926758
1745729772.8426769,0.0036468629259616137,-0.018827110528945923,-0.29147881269454956,0.3540836274623871,-0.9566394686698914,-9.910087585449219
1745729772.8434594,-0.002489025704562664,-0.01832299865782261,-0.2926222085952759,0.43901365995407104,-0.82940673828125,-9.622011184692383
1745729772.8819869,0.007247006054967642,-0.01887722685933113,-0.29581528902053833,0.3435661196708679,-0.6398311853408813,-9.548765182495117
1745729772.8840623,-0.006944366730749607,-0.023364147171378136,-0.29555803537368774,0.5237077474594116,-0.962863564491272,-9.863672256469727
1745729772.888031,0.007221202366054058,-0.022291233763098717,-0.29539793729782104,0.44705867767333984,-0.7007449269294739,-9.97601318359375
1745729772.895939,0.0005427889409475029,-0.016241129487752914,-0.29227739572525024,0.41746488213539124,-1.020366907119751,-9.8074951171875
1745729772.9254293,-0.0014392718439921737,-0.02736627124249935,-0.2913924753665924,0.3897920548915863,-0.7229996919631958,-9.552178382873535
1745729772.9271493,0.010163071565330029,-0.01899205520749092,-0.29120200872421265,0.3615473210811615,-0.813867449760437,-9.754920959472656
1745729772.929755,0.002258818596601486,-0.023364942520856857,-0.2909693121910095,0.47669777274131775,-0.8146185874938965,-9.882804870605469
1745729772.9333067,0.020614054054021835,-0.018923725932836533,-0.29183778166770935,0.3446454405784607,-0.6286417841911316,-9.65431022644043
1745729772.9363728,0.002432632027193904,-0.023388683795928955,-0.29407116770744324,0.4807569980621338,-0.8680082559585571,-9.617051124572754
1745729772.9702773,0.017601680010557175,-0.02293526567518711,-0.2948645055294037,0.3041365444660187,-0.748747706413269,-9.761392593383789
1745729772.9750602,0.005453346762806177,-0.016897164285182953,-0.2963350713253021,0.47098851203918457,-0.9209710955619812,-9.850034713745117
1745729772.9767244,0.0031833178363740444,-0.022637564688920975,-0.2931522727012634,0.4293544888496399,-0.8447140455245972,-9.739115715026855
1745729772.978715,0.008214907720685005,-0.01914362981915474,-0.29227951169013977,0.4059348702430725,-0.9210659265518188,-9.672048568725586
1745729773.0108232,0.002181599847972393,-0.021281512454152107,-0.29270151257514954,0.4583192467689514,-0.753059446811676,-9.753963470458984
1745729773.0178807,0.020032064989209175,-0.021084537729620934,-0.2934392988681793,0.34336861968040466,-0.8015907406806946,-9.738130569458008
1745729773.0179245,0.012218974530696869,-0.02142716944217682,-0.2933429181575775,0.46101808547973633,-0.8579373359680176,-9.766297340393066
1745729773.021691,0.013403129763901234,-0.020373130217194557,-0.29510733485221863,0.39146482944488525,-0.8371122479438782,-9.807029724121094
1745729773.0538228,0.011601226404309273,-0.019722748547792435,-0.2916715741157532,0.4363486170768738,-1.0039517879486084,-9.784479141235352
1745729773.0556176,0.001076950109563768,-0.02227105386555195,-0.29314154386520386,0.4491262435913086,-0.6879385113716125,-9.635473251342773
1745729773.0580556,0.007304771337658167,-0.019485434517264366,-0.2944146990776062,0.47811174392700195,-0.9748932123184204,-9.855908393859863
1745729773.060804,0.0032210745848715305,-0.02338208071887493,-0.2939870059490204,0.524559736251831,-0.6983842849731445,-9.79237174987793
1745729773.0947926,0.009788903407752514,-0.02315548248589039,-0.29516929388046265,0.3206051290035248,-0.7938388586044312,-9.795286178588867
1745729773.0996544,0.0016759434947744012,-0.02388596162199974,-0.29466143250465393,0.4716472625732422,-0.9453071355819702,-9.676080703735352
1745729773.100678,0.00966236274689436,-0.0218077190220356,-0.29424524307250977,0.32042020559310913,-0.621860146522522,-9.694005966186523
1745729773.1089256,0.00640044966712594,-0.02134263701736927,-0.29400479793548584,0.4828380048274994,-0.9908645749092102,-9.771127700805664
1745729773.111145,0.005409281700849533,-0.02457757666707039,-0.29183900356292725,0.4049817621707916,-0.6190130114555359,-9.708673477172852
1745729773.1386118,0.014708472415804863,-0.020413540303707123,-0.2949952483177185,0.4007488787174225,-0.9196289777755737,-9.801948547363281
1745729773.1431112,0.01802961528301239,-0.01915963739156723,-0.296320378780365,0.3579522669315338,-0.7369040250778198,-9.839225769042969
1745729773.1454334,0.016675740480422974,-0.015823308378458023,-0.29548007249832153,0.5482398271560669,-0.8541423082351685,-9.850520133972168
1745729773.1493955,0.025630120187997818,-0.016886532306671143,-0.2965707778930664,0.35589414834976196,-0.7038495540618896,-9.704641342163086
1745729773.1827836,0.016038723289966583,-0.01581963337957859,-0.29502299427986145,0.3827674984931946,-0.9584344625473022,-9.68921184539795
1745729773.1842144,0.022727446630597115,-0.021360525861382484,-0.29303690791130066,0.4382753372192383,-0.7593947649002075,-9.792287826538086
1745729773.1869671,0.022606510668992996,-0.015767864882946014,-0.2928890883922577,0.3502301275730133,-1.0383577346801758,-9.947700500488281
1745729773.1901112,0.02245992049574852,-0.016552913933992386,-0.28988927602767944,0.4220200181007385,-0.6525195837020874,-9.578413009643555
1745729773.2257123,0.023705927655100822,-0.018173497170209885,-0.29372525215148926,0.35870203375816345,-0.7921895980834961,-9.594673156738281
1745729773.2267315,0.017337441444396973,-0.019390026107430458,-0.29328063130378723,0.49586185812950134,-0.899150013923645,-9.821821212768555
1745729773.2301733,0.027484331279993057,-0.016682585701346397,-0.2949519753456116,0.37974485754966736,-0.6601265668869019,-9.8430814743042
1745729773.2326567,0.01300199143588543,-0.01692955568432808,-0.2957407832145691,0.42616647481918335,-1.0498265027999878,-9.773059844970703
1745729773.2328196,0.019354399293661118,-0.01790650002658367,-0.292855441570282,0.3793056011199951,-0.709416389465332,-9.592402458190918
1745729773.275958,0.02011822536587715,-0.013868356123566628,-0.29380351305007935,0.3751991391181946,-0.8935561180114746,-9.772699356079102
1745729773.2760751,0.014489434659481049,-0.02070619724690914,-0.29233962297439575,0.47344332933425903,-0.6632590293884277,-9.88056755065918
1745729773.276135,0.03268356993794441,-0.01405430119484663,-0.2939741313457489,0.40618306398391724,-0.7373949289321899,-9.79783821105957
1745729773.2761953,0.019113916903734207,-0.020604006946086884,-0.2946259379386902,0.4904891550540924,-0.9016286730766296,-9.705592155456543
1745729773.3109293,0.033277228474617004,-0.020871257409453392,-0.2929615080356598,0.29584604501724243,-0.7047678828239441,-9.662825584411621
1745729773.314405,0.01741187833249569,-0.01616266556084156,-0.292680561542511,0.4375295639038086,-0.9909701347351074,-9.796696662902832
1745729773.3183131,0.027324164286255836,-0.017110448330640793,-0.29231590032577515,0.3201647102832794,-0.7007681131362915,-9.693056106567383
1745729773.321703,0.025659998878836632,-0.01346391998231411,-0.29472675919532776,0.444286048412323,-0.8854894638061523,-9.6952486038208
1745729773.3257582,0.015324285253882408,-0.023157916963100433,-0.29491519927978516,0.48671358823776245,-0.755987823009491,-9.747736930847168
1745729773.3547494,0.02764185704290867,-0.015173058025538921,-0.29438334703445435,0.3661162257194519,-0.8779417872428894,-9.92170238494873
1745729773.3563728,0.01731155999004841,-0.017568476498126984,-0.2964375913143158,0.4581594467163086,-0.8706064224243164,-9.780110359191895
1745729773.3576531,0.026762444525957108,-0.02128683403134346,-0.29223600029945374,0.3575724959373474,-0.8341194987297058,-9.825946807861328
1745729773.3595464,0.022176172584295273,-0.013024273328483105,-0.2936985194683075,0.3880239725112915,-0.8511037826538086,-9.717050552368164
1745729773.3986158,0.017915481701493263,-0.02148829959332943,-0.29410508275032043,0.4164162278175354,-0.7083731889724731,-9.625353813171387
1745729773.4013524,0.031144503504037857,-0.01781243085861206,-0.2948523461818695,0.3723619878292084,-0.8220121264457703,-9.813142776489258
1745729773.4037147,0.017501240596175194,-0.021717898547649384,-0.2959740161895752,0.46947211027145386,-0.7094635963439941,-9.881714820861816
1745729773.4074743,0.028901169076561928,-0.017260393127799034,-0.2949172854423523,0.38351115584373474,-0.974230170249939,-9.884969711303711
1745729773.4433181,0.022295180708169937,-0.0183071531355381,-0.2932642102241516,0.45745643973350525,-0.8441218137741089,-9.594829559326172
1745729773.4434736,0.024069542065262794,-0.02345719374716282,-0.294217050075531,0.3506277799606323,-0.776917576789856,-9.657258987426758
1745729773.4435537,0.021581370383501053,-0.017291277647018433,-0.29476863145828247,0.5059849619865417,-0.9401516914367676,-9.82171630859375
1745729773.4436247,0.031468868255615234,-0.016364583745598793,-0.29408562183380127,0.4252926707267761,-0.5113520622253418,-9.79456615447998
1745729773.445371,0.0304716769605875,-0.021067647263407707,-0.2948145270347595,0.4367777407169342,-1.0308996438980103,-9.737390518188477
1745729773.4834745,0.0201566182076931,-0.024430861696600914,-0.2954186499118805,0.40917569398880005,-0.8472574353218079,-9.688170433044434
1745729773.486293,0.024808889254927635,-0.01932746358215809,-0.29325422644615173,0.3262913227081299,-1.0453048944473267,-9.89555835723877
1745729773.4905946,0.004926773719489574,-0.02118348702788353,-0.2936277389526367,0.45561733841896057,-0.8413545489311218,-9.86584758758545
1745729773.493058,0.0074342102743685246,-0.01906908117234707,-0.2949630320072174,0.28582626581192017,-0.7787076234817505,-9.720576286315918
1745729773.5264542,0.002735757501795888,-0.017114073038101196,-0.2945255637168884,0.4966656565666199,-0.9874221086502075,-9.596593856811523
1745729773.5300848,0.003287810366600752,-0.022350944578647614,-0.2931782305240631,0.46329212188720703,-0.747175395488739,-9.753751754760742
1745729773.5312068,0.006715369410812855,-0.016517246142029762,-0.2943894863128662,0.4294392466545105,-0.846096396446228,-9.949262619018555
1745729773.533992,0.008364258334040642,-0.020834583789110184,-0.2922820448875427,0.5600289106369019,-0.7679750323295593,-9.79114818572998
1745729773.5684142,0.010616211220622063,-0.020674772560596466,-0.29143890738487244,0.33047252893447876,-0.9269496202468872,-9.72187614440918
1745729773.570414,0.005779816769063473,-0.022423774003982544,-0.29293695092201233,0.4410570561885834,-0.7762455940246582,-9.645055770874023
1745729773.5719006,0.009289346635341644,-0.023439006879925728,-0.2926523685455322,0.28327348828315735,-0.7667617797851562,-9.795548439025879
1745729773.575252,0.005298440810292959,-0.01613864116370678,-0.29339027404785156,0.3861715793609619,-0.8595587015151978,-9.676984786987305
1745729773.577387,0.015338869765400887,-0.0216609388589859,-0.2947307229042053,0.4083777964115143,-0.5722489356994629,-9.513797760009766
1745729773.6171527,0.005938841495662928,-0.021789060905575752,-0.2951147258281708,0.44457849860191345,-1.000332236289978,-9.891523361206055
1745729773.6277528,0.0060672452673316,-0.019759269431233406,-0.2979527413845062,0.5055381059646606,-0.7820555567741394,-9.963011741638184
1745729773.6306152,0.014730249531567097,-0.014713795855641365,-0.2935146391391754,0.33883851766586304,-0.9317922592163086,-9.787679672241211
1745729773.6342528,-0.0023992641363292933,-0.023028146475553513,-0.2933909296989441,0.4665454924106598,-0.8625820875167847,-9.523964881896973
1745729773.6570008,0.013666832819581032,-0.020010631531476974,-0.293061226606369,0.3724620044231415,-0.7190920114517212,-9.697248458862305
1745729773.6584947,0.001170337782241404,-0.018409697338938713,-0.2912377119064331,0.49867159128189087,-0.9574117660522461,-9.961851119995117
1745729773.6595538,0.013832020573318005,-0.020105967298150063,-0.29368487000465393,0.31935617327690125,-0.5346983075141907,-9.695663452148438
1745729773.6603267,0.005430532619357109,-0.02042621374130249,-0.29671329259872437,0.41701430082321167,-0.910685658454895,-9.652761459350586
1745729773.6980658,0.007939864881336689,-0.02469269558787346,-0.2937539219856262,0.4168369174003601,-0.7275435924530029,-9.74479866027832
1745729773.7009933,0.012308650650084019,-0.016732152551412582,-0.2960992455482483,0.3727332055568695,-0.831911563873291,-9.900184631347656
1745729773.7018898,0.001422446221113205,-0.02078070305287838,-0.2958487570285797,0.503553032875061,-0.8790090680122375,-9.666821479797363
1745729773.7057192,0.016885777935385704,-0.01972801610827446,-0.2913432717323303,0.36646366119384766,-0.784544050693512,-9.572942733764648
1745729773.7058575,0.014737062156200409,-0.026244860142469406,-0.29466673731803894,0.40620478987693787,-0.785605788230896,-9.503087997436523
1745729773.7420866,0.014858892187476158,-0.019961263984441757,-0.2950528562068939,0.3745720088481903,-0.896048903465271,-9.77906608581543
1745729773.7439332,0.004876051098108292,-0.02331320010125637,-0.29573842883110046,0.47332867980003357,-0.889701247215271,-9.919205665588379
1745729773.745811,0.010275018401443958,-0.015783874318003654,-0.2943343222141266,0.3283936381340027,-0.8948769569396973,-9.728612899780273
1745729773.7469592,-0.003287383820861578,-0.021297311410307884,-0.29559630155563354,0.5110821723937988,-0.8487396240234375,-9.541044235229492
1745729773.7836957,0.006566728465259075,-0.026138972491025925,-0.29239898920059204,0.4254967272281647,-0.7665066719055176,-9.85396671295166
1745729773.7859259,0.005857507232576609,-0.016549445688724518,-0.29331859946250916,0.41288915276527405,-0.8239092826843262,-9.941442489624023
1745729773.7874057,0.019122513011097908,-0.0228946041315794,-0.2931903898715973,0.3608114719390869,-0.6092543601989746,-9.656803131103516
1745729773.7894278,0.01339855045080185,-0.02095395140349865,-0.2944853901863098,0.385715126991272,-0.8898204565048218,-9.539119720458984
1745729773.7924485,0.018342027440667152,-0.021306876093149185,-0.29544076323509216,0.42821645736694336,-0.52599036693573,-9.732503890991211
1745729773.8291187,0.02655046619474888,-0.021480511873960495,-0.29721909761428833,0.38331276178359985,-0.8974558711051941,-9.935284614562988
1745729773.8316057,0.012883375398814678,-0.020745810121297836,-0.2956037223339081,0.4926932752132416,-0.8855840563774109,-9.701635360717773
1745729773.8317828,0.02257392555475235,-0.021855536848306656,-0.2934909760951996,0.3801812529563904,-0.8827521204948425,-9.673944473266602
1745729773.8323534,0.016553644090890884,-0.016850728541612625,-0.293980211019516,0.4695352613925934,-0.8289545178413391,-9.710287094116211
1745729773.8720264,0.011599378660321236,-0.022824835032224655,-0.29005345702171326,0.3757876753807068,-0.7340863943099976,-9.774431228637695
1745729773.8724368,0.015564334578812122,-0.01940794847905636,-0.2931576669216156,0.4129861295223236,-0.8631289601325989,-9.792811393737793
1745729773.8751423,0.015478362329304218,-0.01754753105342388,-0.292178213596344,0.47747355699539185,-0.7526522874832153,-9.686800003051758
1745729773.876944,0.02179165557026863,-0.020130841061472893,-0.28987550735473633,0.3071613907814026,-0.8128734827041626,-9.727662086486816
1745729773.9123836,0.014306510798633099,-0.021464014425873756,-0.290921688079834,0.5521480441093445,-0.8436274528503418,-9.799264907836914
1745729773.9149709,0.017080629244446754,-0.02281828224658966,-0.2911432981491089,0.3388206362724304,-0.8762725591659546,-9.886209487915039
1745729773.9157805,0.01833459921181202,-0.01877797767519951,-0.2904469668865204,0.4411175847053528,-0.90159672498703,-9.704710006713867
1745729773.918589,0.008095793426036835,-0.022599825635552406,-0.28817424178123474,0.3826673626899719,-0.8342053294181824,-9.65494155883789
1745729773.9214928,0.007236815989017487,-0.018693430349230766,-0.2896869480609894,0.41421714425086975,-1.0179623365402222,-9.75050163269043
1745729773.9593813,0.010766373947262764,-0.02082773670554161,-0.2900567054748535,0.42001599073410034,-0.6138719320297241,-9.694029808044434
1745729773.9615042,0.007234728895127773,-0.01995665207505226,-0.29237985610961914,0.34732627868652344,-0.8784511685371399,-9.7656888961792
1745729773.9634638,0.006165343336760998,-0.022828439250588417,-0.28996542096138,0.545624852180481,-0.7892541885375977,-9.713384628295898
1745729773.9651186,0.01944549009203911,-0.018450379371643066,-0.2921919822692871,0.33393213152885437,-0.7158239483833313,-9.827619552612305
1745729774.008429,0.007856573909521103,-0.020938362926244736,-0.291285902261734,0.43426045775413513,-0.8549965620040894,-9.841073036193848
1745729774.0085628,0.02322274073958397,-0.020888200029730797,-0.29074740409851074,0.3588559031486511,-0.6384493708610535,-9.67494010925293
1745729774.0086253,0.01652376540005207,-0.01882936619222164,-0.2896280288696289,0.4685559868812561,-0.985325038433075,-9.721339225769043
1745729774.0086944,0.022613525390625,-0.024953225627541542,-0.2912774085998535,0.4600273072719574,-0.6234606504440308,-9.697334289550781
1745729774.0102398,0.019247159361839294,-0.020000386983156204,-0.29130253195762634,0.368735134601593,-0.9127228856086731,-9.844324111938477
1745729774.04353,0.018503617495298386,-0.020423179492354393,-0.29097262024879456,0.41759032011032104,-0.7658283710479736,-9.635946273803711
1745729774.0457234,0.025494281202554703,-0.017982788383960724,-0.29151448607444763,0.32434898614883423,-0.7327927350997925,-9.632015228271484
1745729774.04804,0.012802560813724995,-0.022849861532449722,-0.2910645604133606,0.4613679349422455,-0.9035847783088684,-9.809704780578613
1745729774.0512705,0.02464846894145012,-0.01840556226670742,-0.2909232974052429,0.3420850932598114,-0.6811636090278625,-9.847555160522461
1745729774.086997,0.018166977912187576,-0.02250286564230919,-0.2895328402519226,0.4705950617790222,-0.9481171369552612,-9.852775573730469
1745729774.0894327,0.025712545961141586,-0.015476813539862633,-0.2903565466403961,0.3048914968967438,-0.7956973314285278,-9.69171142578125
1745729774.0915692,0.005149316042661667,-0.0200108103454113,-0.29099011421203613,0.467887818813324,-0.9595854878425598,-9.625017166137695
1745729774.1006782,0.02382526360452175,-0.020004410296678543,-0.2903902530670166,0.29914113879203796,-0.7032932043075562,-9.757733345031738
1745729774.1293437,0.010466957464814186,-0.016616854816675186,-0.2922014594078064,0.4685269892215729,-0.791030764579773,-9.884002685546875
1745729774.1304781,0.02047656662762165,-0.019671594724059105,-0.29233241081237793,0.43602102994918823,-0.7174006700515747,-9.746561050415039
1745729774.1344655,0.024027859792113304,-0.017271820455789566,-0.2914927303791046,0.4435550570487976,-0.8462331891059875,-9.686521530151367
1745729774.1362076,0.023230742663145065,-0.020034590736031532,-0.29113227128982544,0.4030032157897949,-0.7799007892608643,-9.829289436340332
1745729774.1393356,0.03130003809928894,-0.016295257955789566,-0.291189044713974,0.29407232999801636,-0.8561537861824036,-9.758931159973145
1745729774.173727,0.02321024052798748,-0.015305355191230774,-0.29190048575401306,0.4711272120475769,-0.7434142231941223,-9.560400009155273
1745729774.1738544,0.03480754792690277,-0.02111738547682762,-0.2907834053039551,0.38031721115112305,-0.8262383341789246,-9.671403884887695
1745729774.1749954,0.019741173833608627,-0.01740110293030739,-0.2916905879974365,0.49067527055740356,-0.883697509765625,-9.90058708190918
1745729774.177087,0.025355752557516098,-0.01961376890540123,-0.291512668132782,0.34914135932922363,-0.8607460260391235,-9.898231506347656
1745729774.228925,0.0170457623898983,-0.019828204065561295,-0.2897369861602783,0.43146461248397827,-0.9324844479560852,-9.591468811035156
1745729774.229026,0.0009976476430892944,-0.023759575560688972,-0.2896100580692291,0.454374223947525,-0.7760554552078247,-9.77784538269043
1745729774.229092,0.00914712157100439,-0.02037080191075802,-0.2915722727775574,0.44770270586013794,-0.8935974836349487,-9.960991859436035
1745729774.2329047,0.007461224682629108,-0.020812533795833588,-0.2897334694862366,0.5505383014678955,-0.9287074208259583,-9.701417922973633
1745729774.2626,0.01002232264727354,-0.02275153622031212,-0.2863227128982544,0.2691388428211212,-0.7547402381896973,-9.612897872924805
1745729774.2661724,0.012828275561332703,-0.022453945130109787,-0.28594931960105896,0.4952244758605957,-0.8978222608566284,-9.84666919708252
1745729774.2662241,0.017037950456142426,-0.022857706993818283,-0.2852996587753296,0.33572664856910706,-0.6264330148696899,-9.8914794921875
1745729774.2662723,0.029309257864952087,-0.020745886489748955,-0.2860216796398163,0.3880774974822998,-0.7551599740982056,-9.666877746582031
1745729774.2997284,0.019752901047468185,-0.027918759733438492,-0.2894255220890045,0.44539523124694824,-0.7533608675003052,-9.603658676147461
1745729774.3011603,0.02517526224255562,-0.02464188262820244,-0.29023709893226624,0.3427380323410034,-0.9199274778366089,-9.842899322509766
1745729774.302881,0.017579210922122,-0.02404715120792389,-0.29226160049438477,0.4949246048927307,-0.8833274841308594,-9.771526336669922
1745729774.3029435,0.013043580576777458,-0.023911252617836,-0.28994613885879517,0.3386947214603424,-1.0060558319091797,-9.606566429138184
1745729774.3040109,-0.0017432303866371512,-0.024013103917241096,-0.2882668077945709,0.5732268691062927,-1.0418155193328857,-9.645781517028809
1745729774.3459451,0.00823806319385767,-0.022901851683855057,-0.28831666707992554,0.43472719192504883,-0.7794946432113647,-9.899999618530273
1745729774.3473737,0.0028830361552536488,-0.021814417093992233,-0.2862023711204529,0.39183640480041504,-0.8955124616622925,-9.911748886108398
1745729774.3496923,0.010954795405268669,-0.023183578625321388,-0.2886993885040283,0.384868860244751,-0.5914956331253052,-9.586668014526367
1745729774.3525913,0.017066363245248795,-0.022206658497452736,-0.2886848747730255,0.31719455122947693,-0.8870415687561035,-9.664541244506836
1745729774.3864694,0.01708550751209259,-0.027222570031881332,-0.28774887323379517,0.42283764481544495,-0.6573957204818726,-9.740066528320312
1745729774.389341,0.02082425355911255,-0.021690327674150467,-0.2907617688179016,0.33950287103652954,-0.9130827188491821,-9.883489608764648
1745729774.3926995,0.012777919881045818,-0.023873502388596535,-0.2870732843875885,0.48849883675575256,-0.9570974111557007,-9.659411430358887
1745729774.3942409,0.02153777703642845,-0.02314608544111252,-0.28723257780075073,0.3535592257976532,-0.6869707107543945,-9.600698471069336
1745729774.3965359,0.007896430790424347,-0.023440798744559288,-0.28815144300460815,0.5014274716377258,-1.0233491659164429,-9.818617820739746
1745729774.4327595,0.007507876958698034,-0.027538921684026718,-0.2863677144050598,0.48092469573020935,-0.97881680727005,-9.767936706542969
1745729774.4328341,0.025204980745911598,-0.026326756924390793,-0.2881268858909607,0.31741541624069214,-0.6920901536941528,-9.701972961425781
1745729774.4345858,0.005137792322784662,-0.024833688512444496,-0.28569793701171875,0.459071546792984,-0.9721657037734985,-9.762853622436523
1745729774.436185,0.02385910227894783,-0.024318739771842957,-0.28743892908096313,0.31453102827072144,-0.709302544593811,-9.691926956176758
1745729774.4731874,0.013278365135192871,-0.020873479545116425,-0.28700754046440125,0.43853893876075745,-0.8964837789535522,-9.688177108764648
1745729774.473708,0.008496993221342564,-0.027223149314522743,-0.2872715890407562,0.4988163411617279,-0.8328753709793091,-9.743021965026855
1745729774.477091,0.015350076369941235,-0.02234530821442604,-0.28626036643981934,0.40551385283470154,-0.9210497140884399,-9.918517112731934
1745729774.4792829,0.008394203148782253,-0.022224580869078636,-0.28813210129737854,0.4099598824977875,-0.8392694592475891,-9.831405639648438
1745729774.5191567,0.014739327132701874,-0.024084750562906265,-0.28797072172164917,0.2915419638156891,-0.7598991990089417,-9.529800415039062
1745729774.5233579,0.00859611015766859,-0.019885461777448654,-0.2874998152256012,0.5461791753768921,-0.771990954875946,-9.58434009552002
1745729774.526516,0.015475623309612274,-0.028412749990820885,-0.28578829765319824,0.43498486280441284,-0.8356830477714539,-9.966020584106445
1745729774.5299692,0.015156458131968975,-0.019220205023884773,-0.28700122237205505,0.4141872823238373,-0.9107378125190735,-9.914587020874023
1745729774.5598054,0.013042466714978218,-0.024898411706089973,-0.2856646180152893,0.3247113525867462,-0.7936896681785583,-9.577726364135742
1745729774.559884,0.016189709305763245,-0.022661730647087097,-0.2845086455345154,0.3090271055698395,-0.9317062497138977,-9.549829483032227
1745729774.563249,-0.0035132814664393663,-0.016812216490507126,-0.28524965047836304,0.40514740347862244,-0.8361360430717468,-9.873181343078613
1745729774.5636215,0.017141228541731834,-0.01466206181794405,-0.28576308488845825,0.3296026587486267,-0.6432266235351562,-9.824459075927734
1745729774.5663884,0.0062409862875938416,-0.013160442002117634,-0.28752630949020386,0.4910726547241211,-0.8756757974624634,-9.612963676452637
1745729774.6030445,0.01608976162970066,-0.018686816096305847,-0.2879781723022461,0.2867792248725891,-0.6540646553039551,-9.694036483764648
1745729774.6060483,0.01641387864947319,-0.015422540716826916,-0.28707966208457947,0.5030146241188049,-0.9752631187438965,-9.969369888305664
1745729774.608406,0.008920131251215935,-0.01772265136241913,-0.2845957279205322,0.436728298664093,-0.8368216753005981,-9.890214920043945
1745729774.6091988,0.019898133352398872,-0.014609319157898426,-0.2837967276573181,0.3563252389431,-0.8812774419784546,-9.63354778289795
1745729774.6456583,0.004016508348286152,-0.020215895026922226,-0.2856413424015045,0.48211780190467834,-0.8366166949272156,-9.621935844421387
1745729774.646854,0.016005832701921463,-0.018067222088575363,-0.2860451340675354,0.31998127698898315,-0.7410701513290405,-9.810249328613281
1745729774.6488762,0.011573235504329205,-0.01411006785929203,-0.286385715007782,0.5004835724830627,-0.7861430048942566,-9.77058219909668
1745729774.6513958,0.01510437298566103,-0.0189739428460598,-0.2879793643951416,0.29981550574302673,-0.7084234356880188,-9.68708324432373
1745729774.6568754,0.01337123941630125,-0.013706947676837444,-0.291464626789093,0.39501211047172546,-0.8942728042602539,-9.687257766723633
1745729774.6891215,0.016177259385585785,-0.013672210276126862,-0.28845852613449097,0.39765292406082153,-0.7770256996154785,-9.736504554748535
1745729774.6916091,0.01270690280944109,-0.013175496831536293,-0.2901330888271332,0.3723493218421936,-0.9301538467407227,-9.832768440246582
1745729774.694456,0.011251887306571007,-0.01916198618710041,-0.28708577156066895,0.531735897064209,-0.8538827896118164,-9.764394760131836
1745729774.695357,0.009988241828978062,-0.0168552715331316,-0.28680992126464844,0.376488596200943,-0.9876493215560913,-9.856433868408203
1745729774.7319272,0.008404177613556385,-0.016595609486103058,-0.2863728106021881,0.4877687096595764,-0.8038942217826843,-9.713346481323242
1745729774.735548,0.00512327766045928,-0.01824735663831234,-0.2874584496021271,0.36504098773002625,-0.838030219078064,-9.703651428222656
1745729774.7389052,-0.0012755971401929855,-0.015036744065582752,-0.28559941053390503,0.45808762311935425,-0.9651873707771301,-9.724161148071289
1745729774.7389622,0.010708608664572239,-0.01930774375796318,-0.28965044021606445,0.3645915687084198,-0.5699484944343567,-9.662223815917969
1745729774.7412689,-0.0019841273315250874,-0.014969182200729847,-0.2904656231403351,0.3458790183067322,-0.9429816007614136,-9.777315139770508
1745729774.7748368,0.0005047235754318535,-0.01942954584956169,-0.29041990637779236,0.4921497702598572,-0.7158993482589722,-9.714886665344238
1745729774.776683,0.009212210774421692,-0.01527616661041975,-0.2916177809238434,0.4102751612663269,-0.834637463092804,-9.883796691894531
1745729774.7787957,0.00026208945200778544,-0.017437564209103584,-0.2873430848121643,0.49172601103782654,-1.0611279010772705,-9.651847839355469
1745729774.77939,0.009260028600692749,-0.020577548071742058,-0.2841416299343109,0.353088915348053,-0.6265106797218323,-9.698110580444336
1745729774.8249147,0.0025912276469171047,-0.016985001042485237,-0.28765469789505005,0.4493318200111389,-0.9445241689682007,-9.926258087158203
1745729774.8250575,0.006923539098352194,-0.017995385453104973,-0.2882292866706848,0.35757818818092346,-0.6582446098327637,-9.762514114379883
1745729774.8326197,0.010831440798938274,-0.015862202271819115,-0.2882346212863922,0.36307090520858765,-0.7772004008293152,-9.612354278564453
1745729774.8348672,0.0022075423039495945,-0.02516840770840645,-0.29039615392684937,0.48461586236953735,-0.828105628490448,-9.702081680297852
1745729774.8619156,0.012190213426947594,-0.016646046191453934,-0.2893635630607605,0.38741394877433777,-0.8364076614379883,-9.90995979309082
1745729774.8676767,0.004863666836172342,-0.018293453380465508,-0.28825026750564575,0.4858263432979584,-0.9255236387252808,-9.826879501342773
1745729774.8697405,0.007296561263501644,-0.021066322922706604,-0.28748321533203125,0.3594270944595337,-0.7707311511039734,-9.60694408416748
1745729774.872112,0.005443730857223272,-0.017158979550004005,-0.2863398492336273,0.47652649879455566,-0.9074660539627075,-9.675935745239258
1745729774.9030724,0.0005275801522657275,-0.02322530373930931,-0.28548604249954224,0.44067731499671936,-0.8359435200691223,-9.886878967285156
1745729774.905452,0.004843249451369047,-0.016906913369894028,-0.28814253211021423,0.36306434869766235,-0.8352758288383484,-9.775548934936523
1745729774.9080846,-0.00680298637598753,-0.02361834980547428,-0.2865180969238281,0.44534769654273987,-0.8002117276191711,-9.59147834777832
1745729774.9119363,0.004157782532274723,-0.01387384720146656,-0.2824133336544037,0.43681859970092773,-0.9239805340766907,-9.796798706054688
1745729774.9189987,0.0029708649963140488,-0.02015521004796028,-0.2830502986907959,0.3560678958892822,-0.6459215879440308,-9.596879959106445
1745729774.9477167,0.01418084092438221,-0.019878868013620377,-0.28189557790756226,0.493198961019516,-0.9191465377807617,-9.79987621307373
1745729774.9487484,-0.002431976143270731,-0.02240569517016411,-0.28109797835350037,0.5161762237548828,-0.824679970741272,-9.981905937194824
1745729774.9504678,0.013660401105880737,-0.018525928258895874,-0.2790082097053528,0.34285491704940796,-0.8595641851425171,-9.864774703979492
1745729774.9519522,-0.005697209388017654,-0.020908577367663383,-0.27770063281059265,0.4438386857509613,-0.9324884414672852,-9.554149627685547
1745729774.9932675,0.00033512795926071703,-0.02337111160159111,-0.2797386050224304,0.2825299799442291,-0.6840880513191223,-9.576550483703613
1745729774.993396,-1.9601731764851138e-05,-0.01781739667057991,-0.28057441115379333,0.4628080725669861,-0.7998207211494446,-9.817169189453125
1745729774.9934585,-0.0015666935360059142,-0.021121416240930557,-0.2855519652366638,0.3552498519420624,-0.6424642205238342,-9.83191967010498
1745729774.9950607,0.0026422396767884493,-0.018705300986766815,-0.28334182500839233,0.4429406225681305,-0.804747462272644,-9.708033561706543
1745729774.99713,0.005894997622817755,-0.019019385799765587,-0.28115206956863403,0.4947347640991211,-0.7748147249221802,-9.656115531921387
1745729775.037292,0.008609985932707787,-0.017712684348225594,-0.28069549798965454,0.3101429343223572,-0.8035343289375305,-9.846806526184082
1745729775.0384676,0.008457820862531662,-0.016604747623205185,-0.27821725606918335,0.5089582204818726,-0.8982585072517395,-9.824360847473145
1745729775.0401661,0.01729939505457878,-0.01746463216841221,-0.2765618860721588,0.3135291039943695,-0.7339940071105957,-9.666509628295898
1745729775.0426037,0.013584740459918976,-0.018064389005303383,-0.2771785259246826,0.4484477937221527,-0.7705175876617432,-9.641639709472656
1745729775.091028,0.011838528327643871,-0.022322610020637512,-0.2774926722049713,0.38902854919433594,-0.6655181050300598,-9.868276596069336
1745729775.0912504,0.01339312456548214,-0.01400418858975172,-0.28215664625167847,0.3970364034175873,-0.8362784385681152,-9.828330993652344
1745729775.0913675,0.008448564447462559,-0.01662074401974678,-0.2843661904335022,0.42458057403564453,-0.6827367544174194,-9.544803619384766
1745729775.0914445,0.003884692210704088,-0.018803704530000687,-0.2835918962955475,0.3666265308856964,-0.9976709485054016,-9.65383243560791
1745729775.0915205,-0.007457264699041843,-0.01926339790225029,-0.28037741780281067,0.5857002139091492,-0.95550137758255,-9.883785247802734
1745729775.1319618,0.0010568919824436307,-0.014904742129147053,-0.279843807220459,0.357107013463974,-0.8843342065811157,-9.965642929077148
1745729775.1348155,-0.008147349581122398,-0.017564110457897186,-0.27727121114730835,0.4483194351196289,-0.8410794138908386,-9.67757511138916
1745729775.1384308,0.0056433239951729774,-0.0223044715821743,-0.27717161178588867,0.3818260729312897,-0.5791599154472351,-9.606918334960938
1745729775.1412432,0.003984038718044758,-0.017885956913232803,-0.2788951098918915,0.4307999610900879,-0.8258835077285767,-9.892507553100586
1745729775.1653693,0.013647164218127728,-0.02027827873826027,-0.2796218693256378,0.3936746120452881,-0.46999555826187134,-9.79841423034668
1745729775.1677406,0.009504185058176517,-0.017775949090719223,-0.28215330839157104,0.34082046151161194,-0.9484397768974304,-9.685040473937988
1745729775.17191,0.0038851939607411623,-0.02179296687245369,-0.27993491291999817,0.44167834520339966,-0.8407637476921082,-9.572474479675293
1745729775.1727643,0.009996667504310608,-0.019718822091817856,-0.27985328435897827,0.3431559205055237,-0.7712228298187256,-9.791821479797363
1745729775.2031758,-0.011167261749505997,-0.019082223996520042,-0.27985042333602905,0.5018945932388306,-0.9472392797470093,-9.865743637084961
1745729775.207509,0.004451612010598183,-0.01698215864598751,-0.27894824743270874,0.4375648498535156,-0.6975036859512329,-9.670003890991211
1745729775.2091491,-0.0009749567834660411,-0.017608365043997765,-0.2803354263305664,0.4639574885368347,-0.8455750346183777,-9.730634689331055
1745729775.2175577,0.0031846961937844753,-0.02266998589038849,-0.28154030442237854,0.37279197573661804,-0.6016885042190552,-9.814963340759277
1745729775.2176652,0.012417006306350231,-0.012080000713467598,-0.28045204281806946,0.35587558150291443,-0.7762869596481323,-9.80470085144043
1745729775.2558439,0.004489628132432699,-0.021267054602503777,-0.279599130153656,0.42473071813583374,-0.8155969381332397,-9.625268936157227
1745729775.2562368,0.016144875437021255,-0.018594976514577866,-0.2776179909706116,0.3134705424308777,-0.748341977596283,-9.606616020202637
1745729775.257883,0.00020751710690092295,-0.020261364057660103,-0.2799530625343323,0.47620829939842224,-0.8557099103927612,-9.885272026062012
1745729775.2620053,0.004689744673669338,-0.019090496003627777,-0.28122851252555847,0.4392812252044678,-0.6325989961624146,-9.693450927734375
1745729775.2929947,0.011692928150296211,-0.012110759504139423,-0.28079208731651306,0.3685137629508972,-0.9346086382865906,-9.654529571533203
1745729775.2940407,0.0009841505670920014,-0.01641366258263588,-0.2818848192691803,0.40973132848739624,-0.678764283657074,-9.693544387817383
1745729775.298021,0.017088357359170914,-0.01625952497124672,-0.2807197570800781,0.41643157601356506,-0.7994598746299744,-9.91019058227539
1745729775.3003368,0.003057742491364479,-0.016465680673718452,-0.2806209623813629,0.4806765615940094,-0.7679254412651062,-9.81993293762207
1745729775.332921,0.019783539697527885,-0.01825829967856407,-0.2807613015174866,0.37827444076538086,-0.7391716241836548,-9.69917106628418
1745729775.3377407,0.003029374871402979,-0.018804166465997696,-0.2789694666862488,0.4338546395301819,-0.9643405675888062,-9.777649879455566
1745729775.341666,0.006928164511919022,-0.02015737071633339,-0.2803371250629425,0.36271223425865173,-0.6523529887199402,-9.786911964416504
1745729775.3441334,0.012647191062569618,-0.013554230332374573,-0.278457909822464,0.3937634527683258,-0.8816335797309875,-9.6954984664917
1745729775.3472962,0.0016969958087429404,-0.020187219604849815,-0.28348344564437866,0.37324661016464233,-0.6991838216781616,-9.612431526184082
1745729775.3806682,0.010653872042894363,-0.01804560236632824,-0.28044092655181885,0.43313854932785034,-0.7219275236129761,-9.78665542602539
1745729775.3821325,0.0009205563110299408,-0.019694486632943153,-0.2840210795402527,0.5559931993484497,-0.8086636662483215,-9.854089736938477
1745729775.385957,0.013542371802031994,-0.019261721521615982,-0.28340452909469604,0.2774689197540283,-0.6786268949508667,-9.806416511535645
1745729775.3882585,0.006852901540696621,-0.01754961535334587,-0.2807976305484772,0.5670655965805054,-0.9744397401809692,-9.711042404174805
1745729775.4219604,0.006322138011455536,-0.023229721933603287,-0.2777999937534332,0.3725401759147644,-0.7806215286254883,-9.770292282104492
1745729775.4232202,0.01391911692917347,-0.017130468040704727,-0.27621737122535706,0.4028867781162262,-0.865948498249054,-9.793756484985352
1745729775.4261255,0.0066245319321751595,-0.021825388073921204,-0.2772206664085388,0.37469056248664856,-0.6530069708824158,-9.681670188903809
1745729775.4303367,0.014211339876055717,-0.017977047711610794,-0.279649555683136,0.33135348558425903,-0.7157789468765259,-9.619257926940918
1745729775.4629867,0.01308882050216198,-0.019382476806640625,-0.28146570920944214,0.4925073981285095,-0.5707052946090698,-9.67074203491211
1745729775.467741,0.01643308624625206,-0.01847442425787449,-0.28294700384140015,0.31921207904815674,-0.729232907295227,-9.880720138549805
1745729775.469594,0.007744145579636097,-0.01662568189203739,-0.28462153673171997,0.5359588861465454,-0.856608510017395,-9.792539596557617
1745729775.4724224,0.017286021262407303,-0.017600391060113907,-0.2833562195301056,0.3904840350151062,-0.7645631432533264,-9.672613143920898
1745729775.4746842,0.0021605673246085644,-0.019413094967603683,-0.28146910667419434,0.4488605558872223,-0.9588354825973511,-9.791169166564941
1745729775.5113223,0.0106197539716959,-0.015496419742703438,-0.27805382013320923,0.432339608669281,-0.9397786855697632,-9.920110702514648
1745729775.5141106,0.014571147970855236,-0.02076103910803795,-0.2772485613822937,0.40072017908096313,-0.5568283200263977,-9.622644424438477
1745729775.5173612,0.015433216467499733,-0.01985863968729973,-0.2815306782722473,0.2980068624019623,-0.7741881608963013,-9.685162544250488
1745729775.5215042,0.012260877527296543,-0.019693735986948013,-0.28039032220840454,0.4334791600704193,-0.7666155099868774,-9.761930465698242
1745729775.5521574,0.025850052013993263,-0.018073683604598045,-0.28419601917266846,0.31808990240097046,-0.6073942184448242,-9.726895332336426
1745729775.5537932,0.005889651365578175,-0.020167820155620575,-0.28157585859298706,0.476816326379776,-0.9828445315361023,-9.760554313659668
1745729775.5571086,0.01408614031970501,-0.021443551406264305,-0.28336936235427856,0.42463651299476624,-0.6473623514175415,-9.727112770080566
1745729775.5582213,0.016040422022342682,-0.014207310974597931,-0.2815236747264862,0.4569854140281677,-0.9287088513374329,-9.852215766906738
1745729775.591,0.01078891847282648,-0.023465339094400406,-0.2805984616279602,0.47877079248428345,-0.6877692937850952,-9.775386810302734
1745729775.5938962,0.020510975271463394,-0.01787514053285122,-0.2815198302268982,0.3754939138889313,-0.8048473596572876,-9.790706634521484
1745729775.596123,0.009436076506972313,-0.02153765596449375,-0.2799811363220215,0.4446769654750824,-0.8636778593063354,-9.758774757385254
1745729775.5972438,0.024938255548477173,-0.019995184615254402,-0.27974599599838257,0.2682887613773346,-0.5582097768783569,-9.657175064086914
1745729775.6015003,0.009959092363715172,-0.0191692803055048,-0.2821466326713562,0.4362363815307617,-0.8496736288070679,-9.75757884979248
1745729775.6362448,0.024858558550477028,-0.02186167985200882,-0.28770309686660767,0.3318053185939789,-0.8630771636962891,-9.823212623596191
1745729775.6389725,0.016540072858333588,-0.018864696845412254,-0.2869611084461212,0.41910094022750854,-0.6969417929649353,-9.782171249389648
1745729775.6402507,0.03243304044008255,-0.021069182083010674,-0.2870030701160431,0.41034799814224243,-0.7977924942970276,-9.647727012634277
1745729775.6437056,0.014305278658866882,-0.021845897659659386,-0.2843535840511322,0.451263427734375,-0.8842199444770813,-9.752199172973633
1745729775.67998,0.02575274370610714,-0.025138217955827713,-0.28634923696517944,0.4047831594944,-0.7421194314956665,-9.929916381835938
1745729775.6818151,0.01725884899497032,-0.015986140817403793,-0.28365030884742737,0.3853580355644226,-0.8504966497421265,-9.825136184692383
1745729775.6834948,0.01636716164648533,-0.02402273751795292,-0.2858787775039673,0.38271376490592957,-0.5797032117843628,-9.553492546081543
1745729775.686851,0.02944081649184227,-0.022081181406974792,-0.285560667514801,0.3877141773700714,-0.8627274632453918,-9.665314674377441
1745729775.7243268,0.01696048118174076,-0.023674415424466133,-0.28451210260391235,0.42866507172584534,-0.6852933168411255,-9.874320983886719
1745729775.7302923,0.03293011337518692,-0.01997179538011551,-0.28802984952926636,0.37197813391685486,-0.6998421549797058,-9.875216484069824
1745729775.730384,0.02790416218340397,-0.016406817361712456,-0.2863576412200928,0.45996513962745667,-0.8055664300918579,-9.55379581451416
1745729775.7327917,0.035084448754787445,-0.01929635740816593,-0.28501152992248535,0.2553328573703766,-0.6009317636489868,-9.578044891357422
1745729775.7372355,0.03828001394867897,-0.018808813765645027,-0.2856098711490631,0.5361493229866028,-0.8736432790756226,-9.896707534790039
1745729775.7657118,0.03280287981033325,-0.022958364337682724,-0.286151260137558,0.40608325600624084,-0.6959453821182251,-9.967727661132812
1745729775.767016,0.037930648773908615,-0.016406362876296043,-0.2857741713523865,0.409956157207489,-0.9819598197937012,-9.731952667236328
1745729775.7680752,0.018076954409480095,-0.02499629184603691,-0.28609803318977356,0.4028138518333435,-0.8443071246147156,-9.61279296875
1745729775.7704756,0.02299315854907036,-0.01983654499053955,-0.28470468521118164,0.29821085929870605,-0.8406798243522644,-9.775256156921387
1745729775.807111,0.018728554248809814,-0.018052905797958374,-0.2870882749557495,0.5509535670280457,-0.7744110226631165,-9.729252815246582
1745729775.8116279,0.020982271060347557,-0.019773639738559723,-0.28655487298965454,0.2998255491256714,-0.7323548197746277,-9.717744827270508
1745729775.8117247,0.019564302638173103,-0.01817885786294937,-0.28749510645866394,0.5102118849754333,-0.8166711926460266,-9.722223281860352
1745729775.8129532,0.026917342096567154,-0.02052239701151848,-0.2875599265098572,0.36946821212768555,-0.6950389742851257,-9.829984664916992
1745729775.815372,0.02658228576183319,-0.017851252108812332,-0.28490370512008667,0.3015040457248688,-0.872524082660675,-9.849363327026367
1745729775.8505392,0.03136007860302925,-0.020059820264577866,-0.28431883454322815,0.45825257897377014,-0.6528836488723755,-9.643996238708496
1745729775.85058,0.03400247171521187,-0.01692367158830166,-0.2850022315979004,0.3365989327430725,-0.8293193578720093,-9.75851821899414
1745729775.8530183,0.036712028086185455,-0.0191937405616045,-0.2841745615005493,0.48658138513565063,-0.681038498878479,-9.751662254333496
1745729775.8556032,0.0333537831902504,-0.01946914568543434,-0.2873278260231018,0.34932950139045715,-0.8593791723251343,-9.822423934936523
1745729775.8931627,0.02109735645353794,-0.01884661801159382,-0.28814971446990967,0.4500669836997986,-0.9112860560417175,-9.68683910369873
1745729775.8952105,0.030221667140722275,-0.018423357978463173,-0.28601309657096863,0.3499818742275238,-0.7273267507553101,-9.638167381286621
1745729775.8988924,0.014775445684790611,-0.017991913482546806,-0.2868179380893707,0.40844711661338806,-1.0540064573287964,-9.810914993286133
1745729775.9055812,0.016705278307199478,-0.016310766339302063,-0.2853353023529053,0.4361637234687805,-0.669994592666626,-9.744253158569336
1745729775.9067917,0.022226525470614433,-0.011866239830851555,-0.2851322889328003,0.381702721118927,-0.8603800535202026,-9.77917766571045
1745729775.9366298,0.014852357096970081,-0.019994478672742844,-0.28746968507766724,0.4056781232357025,-0.6333742141723633,-9.73180103302002
1745729775.9379332,0.036256711930036545,-0.01754346862435341,-0.28667986392974854,0.3543625771999359,-0.7320946455001831,-9.811610221862793
1745729775.9379823,0.017512746155261993,-0.017686525359749794,-0.285871684551239,0.46290603280067444,-0.9960651397705078,-9.866671562194824
1745729775.9391708,0.0371551476418972,-0.01954861544072628,-0.28301236033439636,0.31609904766082764,-0.7048710584640503,-9.662007331848145
1745729775.9823587,0.014589821919798851,-0.018175801262259483,-0.2821703553199768,0.45493483543395996,-1.0221786499023438,-9.702131271362305
1745729775.9851599,0.012544390745460987,-0.021086489781737328,-0.2818002998828888,0.46535593271255493,-0.6954027414321899,-9.810931205749512
1745729775.9877963,0.023448795080184937,-0.014746208675205708,-0.28041571378707886,0.31518372893333435,-0.8573839068412781,-9.807168006896973
1745729775.9898555,0.016657676547765732,-0.01447683572769165,-0.2818736433982849,0.4177236557006836,-0.705396831035614,-9.592828750610352
1745729776.0239823,0.02738420106470585,-0.01969807781279087,-0.2822437286376953,0.3854581117630005,-0.7667005062103271,-9.648534774780273
1745729776.0255227,0.016530901193618774,-0.015214428305625916,-0.2797016203403473,0.43628019094467163,-0.9472988247871399,-9.874929428100586
1745729776.027578,0.021062729880213737,-0.018404055386781693,-0.27954527735710144,0.3677601218223572,-0.8257728815078735,-9.845128059387207
1745729776.0308678,0.021371839568018913,-0.014804999344050884,-0.28055211901664734,0.3664848208427429,-0.9512569308280945,-9.663036346435547
1745729776.0728898,0.006421451922506094,-0.018161315470933914,-0.2788253426551819,0.44691529870033264,-0.6915703415870667,-9.61337947845459
1745729776.0730386,0.026328766718506813,-0.01699439063668251,-0.2801665961742401,0.4073150157928467,-0.904414176940918,-9.880467414855957
1745729776.0731163,0.014950725249946117,-0.015213193371891975,-0.2796541452407837,0.45941781997680664,-0.7006288766860962,-9.842399597167969
1745729776.0751295,0.02997455559670925,-0.01484477985650301,-0.2814936637878418,0.3334062695503235,-0.6949673891067505,-9.617424011230469
1745729776.0752566,0.019630953669548035,-0.017832178622484207,-0.27823179960250854,0.496773898601532,-0.9965928196907043,-9.595273971557617
1745729776.1145923,0.029132599011063576,-0.01610150747001171,-0.2786346673965454,0.2531901001930237,-0.6258912086486816,-9.811582565307617
1745729776.1174333,0.028646346181631088,-0.013425839133560658,-0.2804107666015625,0.47870150208473206,-0.9897359609603882,-9.871068954467773
1745729776.117599,0.026121601462364197,-0.01772206462919712,-0.27757471799850464,0.410714715719223,-0.6716315150260925,-9.656283378601074
1745729776.1176634,0.03611641377210617,-0.01673271879553795,-0.2770032584667206,0.4061814248561859,-0.9170546531677246,-9.765042304992676
1745729776.1517994,0.02204282581806183,-0.02004436030983925,-0.2795707583427429,0.4685346186161041,-0.7966797351837158,-9.881956100463867
1745729776.1542141,0.027466794475913048,-0.014371627941727638,-0.2802271246910095,0.2895132601261139,-0.7846639752388,-9.774300575256348
1745729776.1555545,0.02167576178908348,-0.01425531692802906,-0.2777000069618225,0.5197930335998535,-0.9892410039901733,-9.506016731262207
1745729776.1584878,0.023302068933844566,-0.021446656435728073,-0.27981477975845337,0.35156363248825073,-0.8144785761833191,-9.717844009399414
