timestamp,angular_vel_x,angular_vel_y,angular_vel_z,linear_acc_x,linear_acc_y,linear_acc_z
1745650294.5304866,0.02391575090587139,-0.006392184644937515,0.011800842359662056,0.2664327025413513,0.08206667006015778,-9.776241302490234
1745650294.532706,0.02379806712269783,-0.0024449469055980444,0.012834806926548481,0.28150877356529236,-0.07775610685348511,-9.830209732055664
1745650294.533872,0.021137936040759087,-0.007047688122838736,0.01199569832533598,0.32817989587783813,0.05939457565546036,-9.761711120605469
1745650294.5362856,0.026542246341705322,-0.002418521558865905,0.011058911681175232,0.24133506417274475,-0.032626233994960785,-9.789237022399902
1745650294.5374296,0.02090192772448063,-0.005858966149389744,0.013279507867991924,0.379253089427948,-0.01610676571726799,-9.776232719421387
1745650294.5749469,0.026859719306230545,-0.004281730856746435,0.012343177571892738,0.1889423429965973,0.04229859635233879,-9.836276054382324
1745650294.5760758,0.021340858191251755,-0.002409107517451048,0.012437041848897934,0.35413026809692383,-0.08753380179405212,-9.774467468261719
1745650294.5787039,0.02445577085018158,-0.0059151314198970795,0.012521155178546906,0.24052640795707703,0.05691147968173027,-9.742045402526855
1745650294.5820103,0.02359156124293804,-0.003763905493542552,0.012177852913737297,0.2838574945926666,-0.08230576664209366,-9.826709747314453
1745650294.6174088,0.02270573191344738,-0.005999269895255566,0.011535938829183578,0.33153286576271057,0.03877697139978409,-9.77945327758789
1745650294.6199129,0.02584122121334076,-0.003972228616476059,0.010862735100090504,0.22384019196033478,-0.04041076451539993,-9.80529499053955
1745650294.6238136,0.022119130939245224,-0.0053509194403886795,0.014174001291394234,0.37537938356399536,-0.026265989989042282,-9.742770195007324
1745650294.62513,0.025991911068558693,-0.00598556362092495,0.009590258821845055,0.20692820847034454,0.04281795024871826,-9.815911293029785
1745650294.6272397,0.02240113355219364,-0.0040791453793644905,0.013127060607075691,0.34832796454429626,-0.0823955163359642,-9.782121658325195
1745650294.6686838,0.029185045510530472,-0.0013822566252201796,0.01178022101521492,0.21771307289600372,-0.06057138368487358,-9.839489936828613
1745650294.668752,0.0207575224339962,-0.0038346215151250362,0.012860330753028393,0.37969809770584106,-0.05368439108133316,-9.730895042419434
1745650294.6738312,0.028633106499910355,-0.005784844979643822,0.012332739308476448,0.19816595315933228,0.014488765969872475,-9.792661666870117
1745650294.6789768,0.022128069773316383,-0.0025848313234746456,0.012344606220722198,0.37101563811302185,-0.08516640961170197,-9.813093185424805
1745650294.7035856,0.025016751140356064,-0.006121406797319651,0.011995060369372368,0.24225015938282013,0.03536834567785263,-9.79798698425293
1745650294.7069473,0.025775248184800148,-0.0011072863126173615,0.012296436354517937,0.29315346479415894,-0.09972010552883148,-9.769857406616211
1745650294.7110507,0.022105325013399124,-0.006974434945732355,0.012813028879463673,0.3178846836090088,0.014870216138660908,-9.777351379394531
1745650294.7144992,0.027626067399978638,-0.00057216826826334,0.011944323778152466,0.2153923511505127,-0.07555131614208221,-9.867362976074219
1745650294.7177668,0.02096603438258171,-0.001996014267206192,0.012849712744355202,0.35159802436828613,-0.04383580759167671,-9.755474090576172
1745650294.7477694,0.02572278119623661,-0.004812380764633417,0.012178972363471985,0.18838317692279816,0.005445136222988367,-9.782403945922852
1745650294.750884,0.02238321676850319,-0.002734674606472254,0.012783726677298546,0.36657634377479553,-0.10590889304876328,-9.794035911560059
1745650294.7526374,0.02335350215435028,-0.0045633683912456036,0.011452892795205116,0.23280903697013855,0.039277028292417526,-9.797648429870605
1745650294.7539022,0.02408408746123314,0.00042748675332404673,0.012543397024273872,0.301849901676178,-0.12489231675863266,-9.794709205627441
1745650294.7912624,0.013303294777870178,0.0035759389866143465,0.013799531385302544,0.366566926240921,-0.13340719044208527,-9.772713661193848
1745650294.7939923,0.015625979751348495,0.00101111875846982,0.014302712865173817,0.2328449785709381,-0.011786197312176228,-9.786928176879883
1745650294.8006296,0.013322887942194939,0.0046522971242666245,0.01587415300309658,0.30327078700065613,-0.1590094268321991,-9.812885284423828
1745650294.8026156,0.012789254076778889,-0.00033149399678222835,0.014158114790916443,0.3041229844093323,-0.012683202512562275,-9.75092601776123
1745650294.8372147,0.01377695333212614,0.005738662555813789,0.014740163460373878,0.23706400394439697,-0.13042154908180237,-9.794111251831055
1745650294.8416524,0.011168382130563259,0.0016245052684098482,0.01422494649887085,0.3717690110206604,-0.07186323404312134,-9.763595581054688
1745650294.8448305,0.016334231942892075,0.002951276022940874,0.014411458745598793,0.2040269374847412,-0.04695142060518265,-9.816668510437012
1745650294.8495831,0.009580985642969608,0.0036343007814139128,0.014921200461685658,0.37258097529411316,-0.14278185367584229,-9.776060104370117
1745650294.8778734,0.01316909771412611,0.001977920066565275,0.013477797619998455,0.22810570895671844,-0.0014393851161003113,-9.770830154418945
1745650294.8825839,0.009862015023827553,0.005023098085075617,0.01497411448508501,0.3202217221260071,-0.14881323277950287,-9.789497375488281
1745650294.8876314,0.009496046230196953,-3.697567080962472e-05,0.015054332092404366,0.29223114252090454,-0.03405853360891342,-9.759342193603516
1745650294.8943462,0.014162683859467506,0.0046539767645299435,0.014897791668772697,0.23178167641162872,-0.14157207310199738,-9.810638427734375
1745650294.9268847,0.007117425557225943,0.0006206667749211192,0.01316819153726101,0.3640068471431732,-0.07571855932474136,-9.770702362060547
1745650294.9269602,0.011752896010875702,0.0030511762015521526,0.015595218166708946,0.1909746527671814,-0.054382242262363434,-9.807164192199707
1745650294.9270062,0.007908150553703308,0.0023251124657690525,0.013985979370772839,0.3814271092414856,-0.1368211805820465,-9.780853271484375
1745650294.9301972,0.011227080598473549,0.0023944531567394733,0.014030198566615582,0.22071154415607452,-0.012784583494067192,-9.780519485473633
1745650294.9346414,0.0071039339527487755,0.003167756600305438,0.01421370543539524,0.34240785241127014,-0.16489461064338684,-9.764413833618164
1745650294.9638083,0.004889806266874075,-0.0009034298127517104,0.016073845326900482,0.30166250467300415,-0.017738549038767815,-9.74836540222168
1745650294.964843,0.00885553378611803,0.005237508099526167,0.013318449258804321,0.23795828223228455,-0.12478262186050415,-9.831497192382812
1745650294.9678493,0.0029537761583924294,-0.00046172281145118177,0.013090941123664379,0.36969155073165894,-0.08332553505897522,-9.739587783813477
1745650294.9690762,0.010141412727534771,0.0007184697315096855,0.013910770416259766,0.20387621223926544,-0.05776089429855347,-9.775736808776855
1745650295.0073707,0.0038238049019128084,0.001976384548470378,0.013758795335888863,0.3849656283855438,-0.13955965638160706,-9.784820556640625
1745650295.0092418,0.0024518240243196487,-0.00193758902605623,0.013387140817940235,0.36092042922973633,-0.0701909214258194,-9.747740745544434
1745650295.010999,0.00527730118483305,0.0012027366319671273,0.014078100211918354,0.21303284168243408,-0.0569622702896595,-9.778399467468262
1745650295.0138109,0.0017491342732682824,0.0002248404489364475,0.014679020270705223,0.3858015835285187,-0.15651890635490417,-9.762063026428223
1745650295.0481215,0.005296661518514156,-0.0020058066584169865,0.012903126887977123,0.22965209186077118,-0.005134447477757931,-9.801264762878418
1745650295.0493746,0.001061869552358985,0.002492354717105627,0.014086814597249031,0.3374585211277008,-0.16559524834156036,-9.775546073913574
1745650295.0523016,0.0002336353500140831,-0.0032584003638476133,0.014615404419600964,0.2833411693572998,-0.01280859112739563,-9.743790626525879
1745650295.0544662,0.003712958889082074,0.0008808944257907569,0.013524012640118599,0.2486805021762848,-0.12416062504053116,-9.814783096313477
1745650295.0566502,-0.00252556917257607,-0.0023352657444775105,0.013118770904839039,0.3596419095993042,-0.07228639721870422,-9.756346702575684
1745650295.0926433,0.0060553178191185,0.0005338120390661061,0.013388889841735363,0.2283674031496048,-0.08013708889484406,-9.780881881713867
1745650295.0946918,-0.0024806479923427105,-0.0009165092487819493,0.012282992713153362,0.3865300714969635,-0.12381576001644135,-9.747420310974121
1745650295.0983331,0.00023432653688360006,-0.0019933576695621014,0.01323620229959488,0.23779554665088654,-0.028273481875658035,-9.788594245910645
1745650295.101776,-0.0019346537301316857,0.0005604738253168762,0.013699891977012157,0.3328372538089752,-0.15725760161876678,-9.789978981018066
1745650295.1343107,-0.0008682309417054057,-0.004327801056206226,0.012334520928561687,0.28251156210899353,-0.011825395748019218,-9.746316909790039
1745650295.1370413,0.0004131435416638851,-0.00028825225308537483,0.013112696819007397,0.26671868562698364,-0.1408156007528305,-9.808533668518066
1745650295.1384094,-0.018260981887578964,-0.004382445476949215,0.016608988866209984,0.37729835510253906,-0.11513379961252213,-9.771114349365234
1745650295.1399968,-0.013408428058028221,-0.004891973454505205,0.014336647465825081,0.20822696387767792,-0.025642191991209984,-9.779363632202148
1745650295.14217,-0.01925784721970558,-0.0027369593735784292,0.01370609737932682,0.34687191247940063,-0.14893412590026855,-9.792901992797852
1745650295.1767967,-0.01644832268357277,-0.006089158821851015,0.014455136843025684,0.2602161467075348,0.005783704109489918,-9.800790786743164
1745650295.179623,-0.014547792263329029,-0.0015690557193011045,0.016002994030714035,0.27697664499282837,-0.13082364201545715,-9.813283920288086
1745650295.1821408,-0.019192958250641823,-0.0069364747032523155,0.014298727735877037,0.3440103828907013,-0.03071041963994503,-9.734657287597656
1745650295.1916828,-0.014387840405106544,-0.002381284022703767,0.014856343157589436,0.2180100977420807,-0.08589855581521988,-9.807882308959961
1745650295.2203693,-0.019951866939663887,-0.004897390492260456,0.01581730507314205,0.35951849818229675,-0.07319517433643341,-9.774913787841797
1745650295.2216895,-0.014789683744311333,-0.00396777642890811,0.015543593093752861,0.1912260800600052,-0.014161905273795128,-9.786300659179688
1745650295.2237146,-0.01967085711658001,-0.0018931524828076363,0.016700366511940956,0.3331459164619446,-0.1338529884815216,-9.774245262145996
1745650295.2261903,-0.015601021237671375,-0.003979274071753025,0.015104740858078003,0.24784493446350098,0.011500688269734383,-9.796192169189453
1745650295.22772,-0.018036099150776863,-0.001492908108048141,0.015831757336854935,0.276218444108963,-0.11698678880929947,-9.817788124084473
1745650295.2661064,-0.0205130185931921,-0.004171055741608143,0.016534917056560516,0.31358593702316284,0.008770941756665707,-9.747498512268066
1745650295.270001,-0.01658160425722599,-0.0008428188739344478,0.01357702910900116,0.20214100182056427,-0.07241277396678925,-9.824217796325684
1745650295.2721071,-0.020189572125673294,-0.002193968975916505,0.01700535975396633,0.3544171452522278,-0.05336309224367142,-9.793946266174316
1745650295.2749412,-0.01613679528236389,-0.0026391870342195034,0.014223645441234112,0.19923758506774902,-0.005303576588630676,-9.801763534545898
1745650295.3086982,-0.020080722868442535,-0.00039812643080949783,0.014516273513436317,0.3588727116584778,-0.11687998473644257,-9.753039360046387
1745650295.3139806,-0.018985021859407425,-0.0046132756397128105,0.015684140846133232,0.23361054062843323,0.041320860385894775,-9.777563095092773
1745650295.3152869,-0.018133467063307762,0.0015302086248993874,0.01667165569961071,0.2838156819343567,-0.11887960135936737,-9.827316284179688
1745650295.3171847,-0.020586175844073296,-0.0035598084796220064,0.014515342190861702,0.3128815293312073,0.000329756730934605,-9.76136589050293
1745650295.3490012,-0.01557015161961317,0.0005639391019940376,0.01666191779077053,0.21134670078754425,-0.05528979375958443,-9.804457664489746
1745650295.352964,-0.022985391318798065,-0.0022422841284424067,0.014928614720702171,0.3505982756614685,-0.04034440219402313,-9.78328800201416
1745650295.3583984,-0.014451351948082447,0.0014352541184052825,0.01541182678192854,0.21818165481090546,-0.06359028071165085,-9.800822257995605
1745650295.3611867,-0.02217544987797737,-0.000920036225579679,0.015815814957022667,0.3662736415863037,-0.046137191355228424,-9.746294975280762
1745650295.3927057,-0.01299362163990736,0.0010737909469753504,0.014823690056800842,0.19216135144233704,0.03063306212425232,-9.835771560668945
1745650295.3950052,-0.019545843824744225,0.0027022927533835173,0.014446958899497986,0.3551563322544098,-0.09583286941051483,-9.779688835144043
1745650295.3989978,-0.01701495610177517,-0.001261616125702858,0.013721225783228874,0.23293015360832214,0.055376313626766205,-9.754781723022461
1745650295.4014146,-0.016003642231225967,0.0041273790411651134,0.01462786179035902,0.2860395312309265,-0.09550736099481583,-9.799173355102539
1745650295.4050324,-0.018892521038651466,-0.0007244828157126904,0.013595735654234886,0.3090938627719879,0.04314239323139191,-9.799205780029297
1745650295.4368417,-0.013225710019469261,0.0024293032474815845,0.013484174385666847,0.224776029586792,-0.0549100860953331,-9.805256843566895
1745650295.4415038,-0.019165176898241043,0.0021533570252358913,0.015414993278682232,0.36312705278396606,0.006641651503741741,-9.739255905151367
1745650295.4438496,-0.013004569336771965,0.0016980038490146399,0.01328866183757782,0.19012555480003357,0.006908416748046875,-9.806985855102539
1745650295.4472156,-0.019275197759270668,0.003001624485477805,0.013389021158218384,0.3478454053401947,-0.080030657351017,-9.788755416870117
1745650295.481517,-0.014275622554123402,0.0015784302959218621,0.014816817827522755,0.23422200977802277,0.06373178213834763,-9.782326698303223
1745650295.4827049,-0.015220241621136665,0.006113891024142504,0.013465521857142448,0.3186020851135254,-0.08807159960269928,-9.788728713989258
1745650295.4936063,-0.016578340902924538,-0.00016376859275624156,0.014340835623443127,0.3204839825630188,0.055675726383924484,-9.75682258605957
1745650295.4936955,0.0016979448264464736,0.0011472201440483332,0.013555417768657207,0.2121964693069458,0.013531172648072243,-9.81067180633545
1745650295.4937477,-0.006722929421812296,0.0005871589528396726,0.013270263560116291,0.3856546878814697,-0.05427304655313492,-9.758350372314453
1745650295.52196,-0.0007169119780883193,-0.0010388900991529226,0.013965162448585033,0.2240372598171234,0.07417349517345428,-9.756139755249023
1745650295.5241907,-0.0032335363794118166,0.0036252469290047884,0.012357261031866074,0.33106178045272827,-0.08152416348457336,-9.79824161529541
1745650295.5256903,-0.003121808171272278,0.0002890395116992295,0.014324349351227283,0.29250583052635193,0.06951974332332611,-9.745451927185059
1745650295.527269,0.0010320076253265142,0.0037448059301823378,0.014922643080353737,0.25604453682899475,-0.053880076855421066,-9.802953720092773
1745650295.5648532,-0.003464416367933154,1.435140165995108e-05,0.01302442979067564,0.3458063006401062,0.030288714915513992,-9.762231826782227
1745650295.5680103,0.0010224704165011644,0.004235026892274618,0.013058677315711975,0.2213643491268158,0.005802415311336517,-9.808415412902832
1745650295.5725057,-0.0032368723768740892,7.64345022616908e-05,0.013498464599251747,0.36749330163002014,-0.01609729789197445,-9.749841690063477
1745650295.5775678,0.0028336800169199705,-0.00040807807818055153,0.01445203460752964,0.22050583362579346,0.058910928666591644,-9.803022384643555
1745650295.5874643,-0.0017804426606744528,0.0017073980998247862,0.013045607134699821,0.33173462748527527,-0.06502881646156311,-9.778443336486816
1745650295.6098077,0.0002491766063030809,-0.0016053899889811873,0.012801083736121655,0.2611333131790161,0.09642871469259262,-9.735453605651855
1745650295.61346,0.0022917084861546755,0.003431758377701044,0.014808163046836853,0.2692977488040924,-0.06680941581726074,-9.791406631469727
1745650295.6140423,-0.0017133591463789344,-0.0040468694642186165,0.013124734163284302,0.3404895067214966,0.03941503167152405,-9.764495849609375
1745650295.6162777,0.005465100985020399,0.00309770368039608,0.014673247933387756,0.21323294937610626,0.0013217211235314608,-9.813810348510742
1745650295.6509078,-0.0010240094270557165,-0.0002771989966277033,0.014720305800437927,0.3811742663383484,-0.03813672065734863,-9.732047080993652
1745650295.6591065,0.004588079638779163,-0.0004840764158871025,0.013522620312869549,0.21435518562793732,0.050416745245456696,-9.78466510772705
1745650295.6593072,0.0012067409697920084,0.003212227253243327,0.014355691149830818,0.330422580242157,-0.07686907798051834,-9.786273002624512
1745650295.6593628,0.004024868365377188,-0.0038607106544077396,0.014583190903067589,0.25971314311027527,0.07684586197137833,-9.760519981384277
1745650295.6932719,0.0024701084475964308,0.0013438558671623468,0.014366298913955688,0.2670361399650574,-0.07249011099338531,-9.791046142578125
1745650295.694561,0.0020210628863424063,-0.004323034547269344,0.014659447595477104,0.3423985540866852,0.03650297969579697,-9.761711120605469
1745650295.6967096,0.00688456604257226,8.868053669175424e-07,0.014733622781932354,0.22168239951133728,-0.016514306887984276,-9.806947708129883
1745650295.7013988,0.003068655962124467,-0.0034888708032667637,0.01553459744900465,0.33228620886802673,0.04685651510953903,-9.740018844604492
1745650295.705042,0.00877702422440052,0.0011423202231526375,0.01541982777416706,0.2140548676252365,-0.023530613631010056,-9.78986930847168
1745650295.7380164,0.0034372652880847454,-0.0022033199202269316,0.014005124568939209,0.3785317540168762,-0.02169194631278515,-9.763465881347656
1745650295.7426245,0.008610364980995655,-0.001937446417286992,0.015239760279655457,0.191452294588089,0.029971439391374588,-9.810229301452637
1745650295.7519524,0.005822509527206421,0.0006022801389917731,0.014620885252952576,0.36419081687927246,-0.08526886254549026,-9.767827033996582
1745650295.7520418,0.007475701160728931,-0.005316730123013258,0.013827299699187279,0.2490481585264206,0.06771238148212433,-9.753023147583008
1745650295.780556,0.009279964491724968,0.0004565587732940912,0.014816196635365486,0.28904104232788086,-0.07909348607063293,-9.804162979125977
1745650295.7837985,0.0058217039331793785,-0.004961004480719566,0.015118015930056572,0.32091110944747925,0.05709317326545715,-9.76523494720459
1745650295.7878041,0.013797822408378124,0.0006062782485969365,0.01289000641554594,0.22820845246315002,-0.036152079701423645,-9.805912971496582
1745650295.788604,0.004705474711954594,-0.003769154893234372,0.016044916585087776,0.38371142745018005,0.00243827560916543,-9.739712715148926
1745650295.8243215,0.011325579136610031,-0.00128269474953413,0.014238739386200905,0.19312790036201477,0.038833122700452805,-9.808477401733398
1745650295.828044,0.006319107953459024,-0.00301590608432889,0.014776907861232758,0.3650444447994232,-0.07843653112649918,-9.784685134887695
1745650295.8330197,0.011602048762142658,-0.001349810161627829,0.015165211632847786,0.24063357710838318,0.05589519068598747,-9.776440620422363
1745650295.8363254,0.011667720973491669,6.797075911890715e-05,0.01606661267578602,0.31451892852783203,-0.09032406657934189,-9.780401229858398
1745650295.866529,0.020732099190354347,-0.00011828248534584418,0.011631137691438198,0.26124224066734314,-0.08826927095651627,-9.813488960266113
1745650295.8712556,0.014732100069522858,-0.006304632872343063,0.012942303903400898,0.3678354322910309,-0.007439338602125645,-9.75976276397705
1745650295.876118,0.02146061696112156,-0.0005185115151107311,0.01091090776026249,0.21199849247932434,-0.023233922198414803,-9.804006576538086
1745650295.8769767,0.014838648028671741,-0.002882611006498337,0.011130591854453087,0.3808073103427887,-0.061377037316560745,-9.769025802612305
1745650295.88071,0.019931692630052567,-0.0037534027360379696,0.013095980510115623,0.2174438238143921,0.024037610739469528,-9.804571151733398
1745650295.9119322,0.017782900482416153,-0.0005624538753181696,0.01173476129770279,0.34673449397087097,-0.1121186837553978,-9.798056602478027
1745650295.9143634,0.01823825016617775,-0.0054436130449175835,0.011185669340193272,0.28165292739868164,0.04517583176493645,-9.75114917755127
1745650295.9159,0.021318653598427773,-0.001866096630692482,0.011504488065838814,0.28124088048934937,-0.097531259059906,-9.783721923828125
1745650295.9171858,0.013096573762595654,-0.003454887541010976,0.01227294746786356,0.3436773419380188,0.009376001544296741,-9.784507751464844
1745650295.952978,0.022266091778874397,-0.0005591642111539841,0.012114619836211205,0.21129760146141052,-0.05145842581987381,-9.823434829711914
1745650295.954932,0.015820328146219254,-0.005774438381195068,0.01189061626791954,0.3644886612892151,-0.060645539313554764,-9.766107559204102
1745650295.9579256,0.020689208060503006,-0.0031549253035336733,0.010582364164292812,0.2205938845872879,0.011889067478477955,-9.78618335723877
1745650295.958967,0.01838826760649681,-0.00012565520592033863,0.012073352001607418,0.34795284271240234,-0.11523205041885376,-9.805781364440918
1745650295.961144,0.01776311919093132,-0.006185623351484537,0.011691795662045479,0.27092546224594116,0.05534278228878975,-9.760236740112305
1745650295.9975407,0.018141554668545723,0.0011181395966559649,0.010257989168167114,0.2763078808784485,-0.12257429212331772,-9.782262802124023
1745650296.003019,0.015057285316288471,-0.00452794786542654,0.011540345847606659,0.35072237253189087,-1.797377990442328e-05,-9.755159378051758
1745650296.008204,0.0220076534897089,-0.0016808286309242249,0.010274586267769337,0.21233849227428436,-0.04039182513952255,-9.799860000610352
1745650296.0083942,0.013577908277511597,-0.0024211991112679243,0.010718544013798237,0.3750579059123993,-0.07504694163799286,-9.744440078735352
1745650296.0459867,0.019428588449954987,-0.0047094328328967094,0.010898357257246971,0.20902928709983826,0.010049579665064812,-9.794790267944336
1745650296.0461516,0.016314726322889328,-0.0016569107538089156,0.010411995463073254,0.36102229356765747,-0.12035670131444931,-9.790412902832031
1745650296.0464478,0.01679575815796852,-0.004082336090505123,0.012768578715622425,0.26921191811561584,0.03861430659890175,-9.772858619689941
1745650296.046539,0.018704261630773544,-0.0005991526995785534,0.01110110990703106,0.2851274609565735,-0.11103188991546631,-9.794158935546875
1745650296.048303,0.015841614454984665,0.0006523007759824395,0.011591257527470589,0.2741308808326721,-0.12839694321155548,-9.815443992614746
1745650296.081548,0.013103107921779156,-0.0035717778373509645,0.011331561021506786,0.3365245461463928,-0.008017845451831818,-9.730013847351074
1745650296.0857835,0.017094386741518974,-0.002954627852886915,0.011508036404848099,0.2246118038892746,-0.07840637862682343,-9.785563468933105
1745650296.0949798,0.01171293668448925,-0.0037632561288774014,0.012080254033207893,0.3847918212413788,-0.06466232985258102,-9.763359069824219
1745650296.0998604,0.018017861992120743,-0.002814111765474081,0.012191560119390488,0.1946648210287094,0.0003386095049791038,-9.803789138793945
1745650296.1257656,0.013811210170388222,0.001348458812572062,0.011479003354907036,0.36704549193382263,-0.12537039816379547,-9.76598072052002
1745650296.1295128,0.015455858781933784,-0.0038907609414309263,0.01199138630181551,0.23976977169513702,0.02477503940463066,-9.761903762817383
1745650296.1316962,0.013198912143707275,0.0011612519156187773,0.012459242716431618,0.2841621935367584,-0.14175571501255035,-9.82299518585205
1745650296.1341193,0.013141835108399391,-0.003510258626192808,0.012456798925995827,0.3133532404899597,-0.02271406352519989,-9.748860359191895
1745650296.1659484,0.015805181115865707,0.0008142230799421668,0.011573171243071556,0.21993620693683624,-0.08802293241024017,-9.790112495422363
1745650296.1676884,0.008630882948637009,-0.0033041872084140778,0.012706289067864418,0.37208905816078186,-0.06646402180194855,-9.755807876586914
1745650296.1699402,0.017276322469115257,-0.0005698412423953414,0.011929715983569622,0.18708693981170654,-0.0300777405500412,-9.820929527282715
1745650296.1722734,0.009832450188696384,-0.00014722552441526204,0.010375800542533398,0.34568896889686584,-0.12738510966300964,-9.776053428649902
1745650296.1743088,0.013087543658912182,-0.0024452656507492065,0.011527673341333866,0.23545488715171814,0.0008746780222281814,-9.766402244567871
1745650296.2136147,0.0026679798029363155,0.0012076696148142219,0.011184929870069027,0.28213009238243103,0.011042715981602669,-9.749086380004883
1745650296.2168832,0.0037412806414067745,0.0014985848683863878,0.012016328051686287,0.2661512792110443,-0.13884034752845764,-9.82161808013916
1745650296.2195005,-0.0009126304648816586,0.0017317153979092836,0.012482971884310246,0.36584702134132385,-0.05512503907084465,-9.778918266296387
1745650296.2216866,0.005214267875999212,0.002529120072722435,0.012426333501935005,0.2106817662715912,-0.06837163865566254,-9.804019927978516
1745650296.2549906,-0.0009352805209346116,0.0016048627439886332,0.011564770713448524,0.39289945363998413,-0.09728072583675385,-9.757804870605469
1745650296.2599027,0.0027362897526472807,0.0015720796072855592,0.013277320191264153,0.211707204580307,-0.012220494449138641,-9.817212104797363
1745650296.2634969,-0.0018267675768584013,0.004582350142300129,0.011826361529529095,0.32576900720596313,-0.1415213793516159,-9.807561874389648
1745650296.267957,7.68188401707448e-05,-0.0002493828651495278,0.013352101668715477,0.27551355957984924,0.003961334004998207,-9.756749153137207
1745650296.297097,0.0010056337341666222,0.004300212953239679,0.010684341192245483,0.259392112493515,-0.13901443779468536,-9.797601699829102
1745650296.3005192,-0.003985402174293995,0.00043091614497825503,0.013165432028472424,0.348123699426651,-0.02069024369120598,-9.796260833740234
1745650296.3019962,0.0019890940748155117,0.0039862459525465965,0.012474698014557362,0.21847239136695862,-0.07919993251562119,-9.814066886901855
1745650296.3055341,-0.004465841688215733,-3.3276435715379193e-05,0.010943720117211342,0.3951647877693176,-0.10990820080041885,-9.737464904785156
1745650296.307857,0.0014348055701702833,0.0009083134937100112,0.012754596769809723,0.2201421707868576,-0.02341446653008461,-9.808601379394531
1745650296.3420982,-0.00324905663728714,0.0023658336140215397,0.013005214743316174,0.3438988924026489,-0.13198480010032654,-9.831624031066895
1745650296.345306,-0.0003406489850021899,0.0007673524087294936,0.013685166835784912,0.25501975417137146,0.00856757815927267,-9.769963264465332
1745650296.347629,-0.00140207854565233,0.0023722003679722548,0.012664946727454662,0.28667572140693665,-0.13722293078899384,-9.789182662963867
1745650296.3504844,-0.0041784681379795074,-0.000635558448266238,0.011867466382682323,0.3417183756828308,-0.013513818383216858,-9.765237808227539
1745650296.384831,0.002158496994525194,0.00405599782243371,0.01354827918112278,0.2280304878950119,-0.0920129269361496,-9.828802108764648
1745650296.3856633,-0.0048070126213133335,0.0005652614054270089,0.012069051153957844,0.3775908648967743,-0.08950336277484894,-9.779669761657715
1745650296.3887033,-0.0027371214237064123,0.00025127045228146017,0.010606453754007816,0.21544504165649414,-0.008256669156253338,-9.78538703918457
1745650296.3918498,-0.006445600185543299,0.003867868334054947,0.014188061468303204,0.35203757882118225,-0.14576217532157898,-9.782503128051758
1745650296.4280136,-0.0042322552762925625,0.0003582081408239901,0.012493900023400784,0.25187861919403076,0.0327763557434082,-9.8087739944458
1745650296.430284,-0.004806171171367168,0.00315435160882771,0.01170774269849062,0.3043043911457062,-0.14886394143104553,-9.817132949829102
1745650296.4334164,-0.006297960877418518,-0.002943656872957945,0.012398246675729752,0.3370438516139984,-0.006751840002834797,-9.736058235168457
1745650296.4351394,-0.0034320931881666183,0.000983222620561719,0.012244462966918945,0.2517140507698059,-0.09835229068994522,-9.814332008361816
1745650296.4691997,-0.007666523102670908,-0.00022059152252040803,0.013420586474239826,0.3815035820007324,-0.06988827884197235,-9.768383979797363
1745650296.4779835,-0.0023035709746181965,6.123818457126617e-05,0.011368542909622192,0.21986731886863708,-0.03758464381098747,-9.807659149169922
1745650296.4789479,-0.008374473080039024,0.000994520727545023,0.012718811631202698,0.3647940754890442,-0.12005654722452164,-9.777412414550781
1745650296.479412,-0.007192762102931738,3.835510142380372e-05,0.01124400645494461,0.23903509974479675,0.0071812705136835575,-9.79680347442627
1745650296.4819338,-0.004753044806420803,0.0007365766796283424,0.012149746529757977,0.32465115189552307,-0.14058227837085724,-9.8070068359375
1745650296.512536,-0.007465535309165716,-0.0017665524501353502,0.012192655354738235,0.3238496780395508,0.014078766107559204,-9.742386817932129
1745650296.5163472,-0.005584784783422947,0.002334179123863578,0.012334195896983147,0.24143913388252258,-0.11361812055110931,-9.794412612915039
1745650296.518228,-0.009563257917761803,-0.002924955915659666,0.013696213252842426,0.37571409344673157,-0.04428413137793541,-9.76533031463623
1745650296.5219152,-0.0033018975518643856,-0.0005733444122597575,0.010052250698208809,0.20272943377494812,-0.03497695177793503,-9.833663940429688
1745650296.5531447,-0.011936893686652184,0.0004853049758821726,0.013208320364356041,0.3761856257915497,-0.12371577322483063,-9.75316047668457
1745650296.555393,-0.004135542549192905,-0.0036906388122588396,0.01264401338994503,0.2512837052345276,0.025400478392839432,-9.791377067565918
1745650296.5575495,-0.007681737188249826,-0.0038671058136969805,0.013360408134758472,0.20763178169727325,0.0009361848351545632,-9.778261184692383
1745650296.5587914,-0.010822239331901073,0.0001368090306641534,0.013998349197208881,0.3402940332889557,-0.1109771579504013,-9.778036117553711
1745650296.5621226,-0.010340126231312752,-0.0052719153463840485,0.013350838795304298,0.2724936902523041,0.02749638818204403,-9.765432357788086
1745650296.601218,-0.01069281529635191,0.0004607883165590465,0.013932527974247932,0.2546987235546112,-0.10419048368930817,-9.812493324279785
1745650296.6023352,-0.011562899686396122,-0.0042602866888046265,0.013856420293450356,0.3403048515319824,-0.014911981299519539,-9.7544584274292
1745650296.611032,-0.008040378801524639,-0.0011595470132306218,0.01412923913449049,0.20244240760803223,-0.03772609680891037,-9.804122924804688
1745650296.6111307,-0.015168030746281147,-0.00269537721760571,0.014756838791072369,0.3811945617198944,-0.08022071421146393,-9.766584396362305
1745650296.6443586,-0.008092019706964493,-0.0021107872016727924,0.014168228022754192,0.2083476036787033,0.02818717435002327,-9.787931442260742
1745650296.6481817,-0.011398447677493095,0.0005105468444526196,0.013156600296497345,0.3362082242965698,-0.11748609691858292,-9.787263870239258
1745650296.65032,-0.008841157890856266,-0.0036015238147228956,0.015188473276793957,0.2532583773136139,0.03322929888963699,-9.752092361450195
1745650296.653763,-0.010247871279716492,0.0010553747415542603,0.013671765103936195,0.28279805183410645,-0.10325531661510468,-9.7814359664917
1745650296.683036,-0.013226221315562725,-0.0046146102249622345,0.013612322509288788,0.33822837471961975,0.01456150971353054,-9.76548957824707
1745650296.6851723,-0.007695232518017292,-1.769261507433839e-05,0.013272630982100964,0.19021064043045044,-0.03180216997861862,-9.802838325500488
1745650296.6873007,-0.013022939674556255,0.00020078681700397283,0.013696378096938133,0.35992369055747986,-0.06200072169303894,-9.740680694580078
1745650296.6910133,-0.006499326787889004,-0.003120291978120804,0.014755725860595703,0.1949847936630249,0.025020550936460495,-9.806230545043945
1745650296.6943724,-0.01367075927555561,0.002941521815955639,0.015480510890483856,0.33880680799484253,-0.11428914964199066,-9.795748710632324
1745650296.7285697,-0.009551607072353363,-0.004732214845716953,0.014877344481647015,0.25557175278663635,0.059648770838975906,-9.74760913848877
1745650296.7291465,-0.007405800279229879,0.0016311835497617722,0.014076678082346916,0.2760821282863617,-0.08820150792598724,-9.778829574584961
1745650296.7308407,-0.013638244941830635,-0.003926553763449192,0.014574545435607433,0.330187052488327,0.019183699041604996,-9.770204544067383
1745650296.7344513,-0.00481946486979723,0.0007440267945639789,0.014244036749005318,0.1994219869375229,-0.043273020535707474,-9.818086624145508
1745650296.7763603,-0.01481626182794571,-0.001250561443157494,0.013471457175910473,0.379449725151062,-0.052733808755874634,-9.738031387329102
1745650296.776447,-0.010561124421656132,0.0012334807543084025,0.013458983972668648,0.3526485860347748,-0.1041736826300621,-9.766460418701172
1745650296.7764971,-0.006867557764053345,-0.001240647747181356,0.014982223510742188,0.246821328997612,0.06621971726417542,-9.796758651733398
1745650296.776933,-0.007135405205190182,0.004205407574772835,0.014169697649776936,0.27634748816490173,-0.08376369625329971,-9.8075590133667
1745650296.8129692,-0.008786512538790703,-0.0006478160503320396,0.014265002682805061,0.3281710743904114,0.030786599963903427,-9.753183364868164
1745650296.8148973,-0.006716116331517696,0.003608809318393469,0.0123751787468791,0.21919627487659454,-0.06408558040857315,-9.815767288208008
1745650296.818853,-0.01022382639348507,-0.0005028062732890248,0.014922909438610077,0.38331276178359985,-0.009926791302859783,-9.765748977661133
1745650296.823138,-0.0031708194874227047,0.0009951458778232336,0.013751864433288574,0.20162324607372284,0.02230408415198326,-9.799535751342773
1745650296.8261557,-0.00884932465851307,0.003420987632125616,0.013391761109232903,0.36185508966445923,-0.06808434426784515,-9.764017105102539
1745650296.856171,-0.003840790595859289,0.00028422242030501366,0.014101497828960419,0.2497892677783966,0.06326518207788467,-9.787858009338379
1745650296.8594372,-0.005905927158892155,0.0035986974835395813,0.0145637271925807,0.3112214207649231,-0.09056559950113297,-9.809785842895508
1745650296.8689094,-0.008060764521360397,-0.00037395948311313987,0.01471101026982069,0.3049393594264984,0.052044857293367386,-9.769322395324707
1745650296.868944,-0.002997532021254301,0.004482191987335682,0.011921769008040428,0.22690144181251526,-0.04232504963874817,-9.81591796875
1745650296.9009311,-0.009663434699177742,0.00014920048124622554,0.013684812001883984,0.3750840425491333,-0.028748463839292526,-9.752766609191895
1745650296.9060414,-0.0028595514595508575,0.0022385036572813988,0.01427476666867733,0.21639545261859894,0.02269628457725048,-9.805374145507812
1745650296.9107926,-0.010088126175105572,0.003940687049180269,0.01255265437066555,0.37966278195381165,-0.07851828634738922,-9.773500442504883
1745650296.914699,0.0013060115743428469,0.0008636975544504821,0.012188481166958809,0.38182517886161804,-0.04047432169318199,-9.75855827331543
1745650296.9193037,0.007910827174782753,-0.0011341383215039968,0.011134190484881401,0.2184259593486786,0.0567459762096405,-9.807973861694336
1745650296.9448318,0.003141252789646387,0.0031099787447601557,0.012697647325694561,0.35387924313545227,-0.0793803483247757,-9.813464164733887
1745650296.9458911,0.006447148509323597,-0.003416751278564334,0.011190889403223991,0.2879442274570465,0.0658772736787796,-9.753561019897461
1745650296.9482646,0.008613145910203457,0.0028468219097703695,0.009625956416130066,0.2891477942466736,-0.0873834490776062,-9.808042526245117
1745650296.9510486,0.0042884438298642635,-0.003484392073005438,0.011559741571545601,0.35142993927001953,0.03142156824469566,-9.787225723266602
1745650296.98541,0.010720903053879738,0.0008781523210927844,0.011514431796967983,0.21903228759765625,0.004187226295471191,-9.821106910705566
1745650296.9907782,0.005033549852669239,-0.0023980638943612576,0.012059340253472328,0.3851858079433441,-0.029048273339867592,-9.739030838012695
1745650296.993692,0.01214764267206192,-0.002933261916041374,0.011805661022663116,0.2224661111831665,0.03841335326433182,-9.791013717651367
1745650296.9979472,0.006102826911956072,0.0009106198558583856,0.008641894906759262,0.3547804355621338,-0.06278571486473083,-9.827040672302246
1745650297.0339193,0.009808915667235851,-0.003980562556535006,0.0136078130453825,0.27348142862319946,0.07902900129556656,-9.768263816833496
1745650297.034042,0.008671103045344353,0.00030057161347940564,0.010341429151594639,0.3029481768608093,-0.07580439746379852,-9.761435508728027
1745650297.0341244,0.0068906210362911224,-0.0036568022333085537,0.011994975619018078,0.35605067014694214,0.041793473064899445,-9.768255233764648
1745650297.034179,0.011560913175344467,0.00039879349060356617,0.01029993500560522,0.210701584815979,-0.008782589808106422,-9.853228569030762
1745650297.0350127,0.008217556402087212,-0.0011145814787596464,0.01183742843568325,0.38047999143600464,-0.006248010788112879,-9.747125625610352
1745650297.0726824,0.012339453212916851,-0.0027193292044103146,0.011332504451274872,0.20377826690673828,0.039189789444208145,-9.780960083007812
1745650297.0787861,0.009311825968325138,-0.0002642459294293076,0.011460185050964355,0.37189242243766785,-0.08119368553161621,-9.803719520568848
1745650297.0788512,0.0111807556822896,-0.00529085099697113,0.012739400379359722,0.2662143111228943,0.08189696073532104,-9.795738220214844
1745650297.078897,0.012770223431289196,0.0011911450419574976,0.00963552761822939,0.3038032650947571,-0.0989382416009903,-9.790882110595703
1745650297.1155758,0.009485051035881042,-0.008111661300063133,0.013808583840727806,0.33666643500328064,0.031322646886110306,-9.724737167358398
1745650297.1181176,0.013637213036417961,-0.0021750391460955143,0.01173541322350502,0.24846747517585754,-0.027784550562500954,-9.837199211120605
1745650297.1217756,0.01651032455265522,-0.0039881509728729725,0.01133524440228939,0.20946887135505676,0.016586579382419586,-9.771305084228516
1745650297.124231,0.010520106181502342,-0.004766831640154123,0.013051612302660942,0.3762771189212799,-0.09048792719841003,-9.759166717529297
1745650297.155847,0.015025680884718895,-0.007215791381895542,0.011905779130756855,0.24608571827411652,0.059807758778333664,-9.79393482208252
1745650297.1588724,0.015736091881990433,-0.0007473056321032345,0.012970218434929848,0.30678707361221313,-0.08244200050830841,-9.820340156555176
1745650297.1609476,0.013222748413681984,-0.0071939872577786446,0.012865973636507988,0.3277356028556824,0.0433303602039814,-9.746986389160156
1745650297.1651402,0.01928214728832245,-0.004143469501286745,0.01346172858029604,0.2322668582201004,-0.08164435625076294,-9.787382125854492
1745650297.1678925,0.010253407061100006,-0.007066934369504452,0.01269996352493763,0.3841533064842224,-0.016271406784653664,-9.794450759887695
1745650297.2023668,0.01827402040362358,-0.005186729598790407,0.012474050745368004,0.2108391523361206,-0.00028858333826065063,-9.822171211242676
1745650297.2059634,0.011211330071091652,-0.00390068581327796,0.013617640361189842,0.3669520616531372,-0.07677029073238373,-9.739975929260254
1745650297.2120035,0.016348006203770638,-0.008343962952494621,0.013041329570114613,0.23961885273456573,0.0367593839764595,-9.78232192993164
1745650297.2175107,0.015274325385689735,-0.0042715733870863914,0.012721767649054527,0.3146663010120392,-0.11445609480142593,-9.822137832641602
1745650297.245321,0.014079779386520386,-0.00713014230132103,0.014646361581981182,0.304259717464447,0.035110972821712494,-9.742171287536621
1745650297.250451,0.01743442751467228,-0.003157200990244746,0.012170069850981236,0.24077419936656952,-0.07176271826028824,-9.784070014953613
1745650297.255998,0.010661071166396141,-0.006432350724935532,0.013513302430510521,0.38033467531204224,-0.030085885897278786,-9.783197402954102
1745650297.2598264,0.019930239766836166,-0.0035110176540911198,0.014651315286755562,0.18435978889465332,-0.010171353816986084,-9.813044548034668
1745650297.315614,0.014628326520323753,-0.002846833085641265,0.011534182354807854,0.21099185943603516,0.006512162741273642,-9.786367416381836
1745650297.3494892,0.009263744577765465,2.5394978365511633e-05,0.011975228786468506,0.33869895339012146,-0.12776526808738708,-9.785057067871094
1745650297.3495312,0.010707145556807518,-0.0044513787142932415,0.01166540291160345,0.25672489404678345,0.01774994097650051,-9.769000053405762
1745650297.3547115,0.012223741039633751,-0.00032339085009880364,0.010678657330572605,0.27897483110427856,-0.11911316961050034,-9.804014205932617
1745650297.381871,0.007780673913657665,-0.0020207043271511793,0.012748491950333118,0.3358655571937561,-0.018349003046751022,-9.761320114135742
1745650297.3822706,0.013852233067154884,0.0012106734793633223,0.010438894852995872,0.21043221652507782,-0.07798037678003311,-9.792642593383789
1745650297.3852596,0.006959844380617142,-0.0010320269502699375,0.009993961080908775,0.3806086778640747,-0.07734321057796478,-9.752511024475098
1745650297.386012,0.01329801231622696,-0.00032206933246925473,0.01122912485152483,0.20624513924121857,-0.002180531620979309,-9.792306900024414
1745650297.3882992,0.0074751973152160645,0.0013464790536090732,0.010985122062265873,0.3536543548107147,-0.14132380485534668,-9.750955581665039
1745650297.391803,0.010113483294844627,-0.0048448191955685616,0.012330899015069008,0.2643422484397888,0.034308262169361115,-9.768073081970215
1745650297.393534,0.010620377026498318,0.002701221965253353,0.009289169684052467,0.2769182622432709,-0.1504661738872528,-9.825431823730469
1745650297.420552,0.006615905556827784,-0.0027445335872471333,0.011465167626738548,0.31707626581192017,-0.019650565460324287,-9.729471206665039
1745650297.4367864,0.01094780396670103,0.0002525769523344934,0.012140130624175072,0.22466449439525604,-0.07826901972293854,-9.785161018371582
1745650297.4368496,0.005230372305959463,-0.0001656335371080786,0.012742502614855766,0.37083059549331665,-0.07816731929779053,-9.772010803222656
1745650297.4372406,0.010017653927206993,0.00025396523415111005,0.01074741967022419,0.2047334909439087,-0.022427743300795555,-9.818314552307129
1745650297.437289,0.0038852847646921873,0.0013270856579765677,0.013298082165420055,0.35055071115493774,-0.13740859925746918,-9.779620170593262
1745650297.4373198,0.00830855779349804,-0.0005704103386960924,0.012726637534797192,0.24437478184700012,0.0031906645745038986,-9.756085395812988
1745650297.4405434,0.007343029137700796,0.0014848584542050958,0.010172931477427483,0.28832224011421204,-0.152492493391037,-9.793543815612793
1745650297.460861,0.006344898138195276,-0.0031717773526906967,0.011542284861207008,0.318563848733902,-0.012479022145271301,-9.767672538757324
1745650297.4625738,0.010758036747574806,0.003851843997836113,0.012868264690041542,0.21630772948265076,-0.0915483757853508,-9.790460586547852
1745650297.4684124,0.0008850760641507804,-0.0004670036432798952,0.01104595698416233,0.36283332109451294,-0.05109264701604843,-9.7282075881958
1745650297.4716136,0.00935131311416626,0.0020487881265580654,0.012660403735935688,0.18923942744731903,-0.019970158115029335,-9.821925163269043
1745650297.5006688,0.0017284121131524444,0.0013802613830193877,0.01390855573117733,0.3644202947616577,-0.06088750436902046,-9.730487823486328
1745650297.5020463,0.008106262423098087,0.0008647927897982299,0.01187426783144474,0.19986507296562195,-0.03752546012401581,-9.78259563446045
1745650297.50361,0.002590784803032875,0.00377254793420434,0.012898956425487995,0.3530324101448059,-0.12208138406276703,-9.791275024414062
1745650297.5064044,0.005713372956961393,-0.0005798750789836049,0.01263784896582365,0.21293362975120544,-0.005636236164718866,-9.77672004699707
1745650297.506473,0.003937019966542721,0.006486900150775909,0.011712027713656425,0.3266003429889679,-0.14592687785625458,-9.762939453125
1745650297.5440295,0.0011193635873496532,-0.0005937701789662242,0.013463189825415611,0.30238038301467896,-0.0023396171163767576,-9.749114036560059
1745650297.5483968,0.0044761402532458305,0.0042971475049853325,0.012312004342675209,0.23992511630058289,-0.11229346692562103,-9.827083587646484
1745650297.5484538,0.00032705446938052773,0.0005013301852159202,0.012539982795715332,0.36849889159202576,-0.06105848029255867,-9.743406295776367
1745650297.5495796,0.00518733449280262,0.0026642654556781054,0.011506550014019012,0.1977538764476776,-0.05350680276751518,-9.784785270690918
1745650297.58696,-0.00034544250229373574,0.0033256944734603167,0.013571852818131447,0.37125152349472046,-0.1203121542930603,-9.77055549621582
1745650297.5899553,0.004675944335758686,0.0015654839808121324,0.012412318028509617,0.20520523190498352,0.007147917989641428,-9.787449836730957
1745650297.5911293,0.0007528014248237014,0.006740669719874859,0.011598872020840645,0.316171258687973,-0.1418471485376358,-9.759004592895508
1745650297.6034188,-0.00020301197946537286,-0.00010217600356554613,0.013960009440779686,0.2957810163497925,0.00377160613425076,-9.752702713012695
1745650297.6067412,0.004170088097453117,0.006544816307723522,0.013073461130261421,0.24798214435577393,-0.11010780185461044,-9.819039344787598
1745650297.6332138,-0.002125535625964403,0.002747266087681055,0.01401238888502121,0.21224136650562286,0.02174018695950508,-9.774083137512207
1745650297.634606,-0.0069207800552248955,0.005199954845011234,0.013727670535445213,0.3467673659324646,-0.11031484603881836,-9.793251991271973
1745650297.6357253,-0.006003552582114935,0.0002266856172354892,0.012137362733483315,0.29588785767555237,0.009293652139604092,-9.786235809326172
1745650297.6379395,-0.002539456821978092,0.006557391490787268,0.013141682371497154,0.2710111737251282,-0.10116010904312134,-9.78907585144043
1745650297.6758034,-0.00952378660440445,0.001710190437734127,0.013996352441608906,0.3733788728713989,-0.029589619487524033,-9.732400894165039
1745650297.6794517,-0.00247994065284729,0.00228066835552454,0.01283456664532423,0.21056994795799255,-0.061801083385944366,-9.817771911621094
1745650297.680512,-0.008880577981472015,0.003919166978448629,0.014513574540615082,0.38448408246040344,-0.06255166232585907,-9.795648574829102
1745650297.681854,-0.004346896894276142,0.002179762115702033,0.014815357513725758,0.2143346518278122,-0.006011728197336197,-9.797700881958008
1745650297.7178361,-0.007165782153606415,0.004275183193385601,0.013915175572037697,0.35945388674736023,-0.1320345103740692,-9.781455993652344
1745650297.7227216,-0.005801204591989517,1.1562928193598054e-05,0.01476573757827282,0.2966408133506775,0.022320851683616638,-9.757868766784668
1745650297.7249968,-0.004958160221576691,0.0035239222925156355,0.013359415344893932,0.2591477334499359,-0.10479910671710968,-9.817961692810059
1745650297.7288435,-0.00903032161295414,0.0015472921077162027,0.013662928715348244,0.3739475607872009,-0.009315019473433495,-9.752667427062988
1745650297.7303758,-0.002040466759353876,0.004068599548190832,0.012913377955555916,0.21011194586753845,-0.043818529695272446,-9.797744750976562
1745650297.7657595,-0.009962734766304493,0.002568962750956416,0.014046499505639076,0.39411988854408264,-0.08623705059289932,-9.775686264038086
1745650297.7658,-0.00423030648380518,-0.00023319324827753007,0.013362194411456585,0.221316859126091,0.01587943732738495,-9.80467700958252
1745650297.7693,-0.0066329361870884895,0.00317537528462708,0.013009761460125446,0.35046905279159546,-0.12150762230157852,-9.775445938110352
1745650297.7733123,-0.007408744655549526,-0.00045644957572221756,0.0121272848919034,0.2950041890144348,0.006685897707939148,-9.777099609375
1745650297.8033462,-0.004679637961089611,0.004516089800745249,0.014492889866232872,0.2767764925956726,-0.09570786356925964,-9.825902938842773
1745650297.8061411,-0.011138604953885078,-0.0006957564037293196,0.013170127756893635,0.37201252579689026,-0.015991132706403732,-9.759037971496582
1745650297.8083663,-0.003943091258406639,0.0025021876208484173,0.013711896724998951,0.22384652495384216,-0.057995833456516266,-9.797930717468262
1745650297.8117664,-0.010180017910897732,-0.0004901632783003151,0.016460342332720757,0.4010435938835144,-0.07241214066743851,-9.75870132446289
1745650297.844823,-0.004408049397170544,-0.00011741360503947362,0.012845201417803764,0.22894874215126038,0.003135253209620714,-9.812743186950684
1745650297.8493607,-0.012807704508304596,0.002863870235159993,0.012826375663280487,0.3118925988674164,-0.13687272369861603,-9.798855781555176
1745650297.8561513,0.011491606011986732,0.004119877703487873,0.01555235218256712,0.5268567204475403,-0.2871980667114258,-9.07319450378418
1745650297.8562307,-0.014162227511405945,-0.018327634781599045,0.014102590270340443,0.49763861298561096,-0.20569105446338654,-9.975774765014648
1745650297.8592932,-0.03394010290503502,-0.004374129697680473,0.012772644869983196,-0.1062098890542984,-0.1056111678481102,-10.79945182800293
1745650297.8970122,0.0069918399676680565,0.026750927790999413,0.004687095992267132,0.20406313240528107,0.35104548931121826,-9.212484359741211
1745650297.8997097,-0.05342894047498703,-0.00585353747010231,-0.0013582338578999043,0.6975728273391724,-0.06386782228946686,-8.601531982421875
1745650297.9025927,-0.00485597550868988,-0.02225218154489994,0.002456593792885542,1.2380850315093994,-0.3330475687980652,-10.527021408081055
1745650297.9041784,-0.01974940299987793,-0.0006725530838593841,0.0031491380650550127,0.3414692282676697,0.44745683670043945,-11.443510055541992
1745650297.9322104,0.025151574984192848,0.026350874453783035,0.006606954149901867,-0.0005029894527979195,-0.3053228259086609,-9.227401733398438
1745650297.9337456,0.02595607005059719,0.006959571503102779,0.011806510388851166,0.6649956703186035,0.08782310038805008,-7.538508415222168
1745650297.9354134,-0.015696341171860695,-0.02109021693468094,0.005370670929551125,0.7646233439445496,0.19889813661575317,-10.59645938873291
1745650297.9371674,0.08028858155012131,0.014633707702159882,-0.006062904838472605,0.521625816822052,0.6610139608383179,-11.953760147094727
1745650297.9747972,0.029458677396178246,0.03209340572357178,-0.017133492976427078,0.043502673506736755,0.33097004890441895,-9.177812576293945
1745650297.977352,0.06501583009958267,0.00994863361120224,-0.019035786390304565,0.5941498875617981,-0.5792981386184692,-7.4700164794921875
1745650297.9804099,0.02111940085887909,0.054072149097919464,0.14800477027893066,0.8195779919624329,-0.7077032327651978,-9.138212203979492
1745650297.9840467,-0.03559469059109688,0.05109358951449394,0.1545834094285965,0.8093574643135071,-1.0013259649276733,-10.464143753051758
1745650297.987158,-0.044353604316711426,0.06763376295566559,0.16223274171352386,0.5695611238479614,-1.0335371494293213,-10.173237800598145
1745650298.0203588,-0.11704250425100327,0.07438434660434723,0.17175757884979248,0.7652708292007446,-0.7630670070648193,-8.881307601928711
1745650298.0239587,-0.14666573703289032,0.052700258791446686,0.17721675336360931,0.7420600652694702,-0.5070552825927734,-9.318942070007324
1745650298.024032,-0.1428777128458023,0.06377541273832321,0.1809370517730713,0.8950728178024292,-0.159880131483078,-10.473668098449707
1745650298.025408,-0.15050971508026123,0.07506316155195236,0.18659481406211853,0.852217972278595,0.14028732478618622,-10.24998664855957
1745650298.0622463,-0.12750382721424103,0.06900350004434586,0.19134172797203064,0.7036463022232056,0.21137695014476776,-9.203043937683105
1745650298.064576,-0.11542423069477081,0.05513599514961243,0.19817766547203064,0.8230127096176147,0.339998334646225,-9.283531188964844
1745650298.0665174,-0.08429558575153351,0.06560306251049042,0.21147489547729492,0.8029094934463501,0.4682392179965973,-10.27563762664795
1745650298.067785,-0.06930583715438843,0.07307016849517822,0.21464791893959045,0.9513972997665405,0.4890654683113098,-10.150324821472168
1745650298.1036787,-0.03128591924905777,0.060340516269207,0.21295496821403503,0.8200454711914062,0.6403312087059021,-9.309149742126465
1745650298.106868,-0.03718896955251694,0.057044558227062225,0.21758994460105896,0.981757640838623,0.3055416941642761,-9.498282432556152
1745650298.110881,-0.027268463745713234,0.05907792970538139,0.2171611785888672,0.9127081036567688,0.25090518593788147,-10.245539665222168
1745650298.1163218,-0.02988279238343239,0.06322155147790909,0.2208266705274582,0.8695806264877319,-0.14083006978034973,-9.987966537475586
1745650298.1205091,-0.0462263785302639,0.057027410715818405,0.23029367625713348,0.9473956823348999,-0.25636762380599976,-9.33003044128418
1745650298.1476607,-0.05727463215589523,0.055921636521816254,0.23654203116893768,0.7855004072189331,-0.2253599911928177,-9.630071640014648
1745650298.1499128,-0.06548765301704407,0.05797352269291878,0.2435605227947235,0.878315269947052,-0.2662338316440582,-9.964831352233887
1745650298.152292,-0.0779830738902092,0.060972243547439575,0.2481638640165329,0.7445300221443176,-0.1047997921705246,-9.770843505859375
1745650298.1537776,-0.0815029963850975,0.06101369857788086,0.25448232889175415,0.907082200050354,-0.2558571994304657,-9.46683406829834
1745650298.1913893,-0.08717949688434601,0.05523204803466797,0.2611014246940613,0.7449964284896851,0.011155212298035622,-9.674237251281738
1745650298.1937385,-0.09928293526172638,0.0613187775015831,0.26388120651245117,0.7035735845565796,-0.20936378836631775,-9.990283012390137
1745650298.1948404,-0.09871838241815567,0.05809802934527397,0.27120059728622437,0.9687314033508301,-0.04109586402773857,-9.65134334564209
1745650298.1975985,-0.10521167516708374,0.051393378525972366,0.2804860770702362,0.9595630764961243,0.3166690766811371,-9.749910354614258
1745650298.2523782,-0.1148039698600769,0.051945894956588745,0.2821388840675354,1.0799833536148071,0.16571572422981262,-9.804340362548828
1745650298.2537525,-0.1021263375878334,0.0379527285695076,0.28549307584762573,0.9016355276107788,0.3596983551979065,-9.875133514404297
1745650298.2564137,-0.09035049378871918,0.045018088072538376,0.2910258173942566,0.8167487978935242,0.2017395794391632,-9.861775398254395
1745650298.2598155,-0.07976710051298141,0.04510911554098129,0.29912319779396057,0.8963920474052429,0.4025403559207916,-9.51030445098877
1745650298.2598634,-0.07134941965341568,0.038198791444301605,0.303028404712677,0.8190021514892578,0.2562871277332306,-9.71262264251709
1745650298.2800176,-0.053972817957401276,0.029084524139761925,0.3066104054450989,1.0073814392089844,0.3430778682231903,-10.012414932250977
1745650298.2853925,-0.049032699316740036,0.03324919193983078,0.3073645234107971,0.7981829643249512,0.29069915413856506,-9.915003776550293
1745650298.290472,-0.05688391998410225,0.03586927801370621,0.31182777881622314,0.8263962864875793,-0.029314493760466576,-9.47720718383789
1745650298.2951126,-0.06781481951475143,0.02363121137022972,0.31467923521995544,0.8639734387397766,-0.07223404198884964,-9.563199043273926
1745650298.3246343,-0.07635177671909332,0.02510736510157585,0.3201776444911957,0.9589182138442993,-0.1691601574420929,-9.967889785766602
1745650298.3259747,-0.1031988263130188,0.023961294442415237,0.3241592049598694,0.9310800433158875,-0.15614533424377441,-9.97572135925293
1745650298.3305936,-0.1008005365729332,0.023619135841727257,0.32719680666923523,0.737738311290741,-0.06395046412944794,-9.512713432312012
1745650298.3306396,-0.12359808385372162,-0.04800402373075485,0.42051324248313904,0.7485026121139526,0.14039483666419983,-9.796327590942383
1745650298.3613956,-0.12308182567358017,-0.05819191783666611,0.41833043098449707,0.8388683199882507,0.49715080857276917,-9.811639785766602
1745650298.3643165,-0.12671677768230438,-0.05236576870083809,0.42019566893577576,0.7175784111022949,0.28511807322502136,-9.909202575683594
1745650298.368401,-0.13121351599693298,-0.05426392704248428,0.42082005739212036,0.8012493252754211,0.39602333307266235,-9.671438217163086
1745650298.3717165,-0.1310586929321289,-0.05526580289006233,0.42168959975242615,0.5732016563415527,0.3473803699016571,-9.676604270935059
1745650298.3749785,-0.1287970393896103,-0.05365180969238281,0.4238501489162445,0.8445066213607788,0.32518520951271057,-9.651333808898926
1745650298.4081814,-0.13834699988365173,-0.05671657249331474,0.42933234572410583,0.7472623586654663,0.481367290019989,-9.837316513061523
1745650298.4117274,-0.12839718163013458,-0.05311489850282669,0.42980265617370605,0.6827082633972168,0.3898349404335022,-9.926338195800781
1745650298.4171476,-0.12169160693883896,-0.06129731610417366,0.4321724474430084,0.7197388410568237,0.5105770826339722,-9.66077995300293
1745650298.421393,-0.11781257390975952,-0.04949089512228966,0.43411773443222046,0.606139063835144,0.5224874019622803,-9.609265327453613
1745650298.4481783,-0.12381394952535629,-0.05837579444050789,0.4344128668308258,0.8179826736450195,0.40809258818626404,-9.824661254882812
1745650298.4525533,-0.11335738003253937,-0.061063945293426514,0.4348379969596863,0.620503306388855,0.5667554140090942,-9.968090057373047
1745650298.458474,-0.12214336544275284,-0.05501558259129524,0.4354066252708435,0.7705128192901611,0.2744511067867279,-9.81086540222168
1745650298.461892,-0.12979631125926971,-0.05825796723365784,0.43869155645370483,0.6685255169868469,0.5067203640937805,-9.573256492614746
1745650298.4676864,-0.13446460664272308,-0.0629529356956482,0.4385640621185303,0.7216418981552124,0.20410382747650146,-9.81549072265625
1745650298.49211,-0.13026252388954163,-0.0618935227394104,0.438336044549942,0.8355699777603149,0.5431822538375854,-9.93547534942627
1745650298.495445,-0.14313235878944397,-0.05659074708819389,0.4397434592247009,0.6411269307136536,0.39379051327705383,-9.927267074584961
1745650298.4970214,-0.13341210782527924,-0.06720253080129623,0.44207563996315,0.7387803196907043,0.42689427733421326,-9.555570602416992
1745650298.499837,-0.13369551301002502,-0.06476059556007385,0.44414418935775757,0.5777332186698914,0.5068833231925964,-9.703409194946289
1745650298.5353565,-0.1390424370765686,-0.05705530196428299,0.4478047788143158,0.7074310183525085,0.4389144480228424,-9.865236282348633
1745650298.5386622,-0.12877872586250305,-0.0605521984398365,0.44833603501319885,0.6069504618644714,0.5686131119728088,-9.819504737854004
1745650298.5393462,-0.12281682342290878,-0.061213184148073196,0.4492863714694977,0.6673339605331421,0.5989730954170227,-9.68155574798584
1745650298.541897,-0.1308959275484085,-0.06311451643705368,0.4482058882713318,0.7192667722702026,0.6058911681175232,-9.825078964233398
1745650298.5772495,-0.13891258835792542,-0.05767076089978218,0.45205482840538025,0.7408851981163025,0.43083637952804565,-9.838305473327637
1745650298.5827582,-0.13466402888298035,-0.06045892834663391,0.4510060250759125,0.5654220581054688,0.6253747344017029,-9.87949275970459
1745650298.5925844,-0.1353071928024292,-0.05402519553899765,0.45649203658103943,0.6422210931777954,0.4529326558113098,-9.752469062805176
1745650298.5957265,-0.13277612626552582,-0.057849086821079254,0.45379552245140076,0.6767643690109253,0.6648738384246826,-9.578901290893555
1745650298.6011353,-0.1303798109292984,-0.054479967802762985,0.4554575979709625,0.5415602922439575,0.49847596883773804,-9.890581130981445
1745650298.6248372,-0.12993523478507996,-0.058739542961120605,0.45631638169288635,0.6975269317626953,0.6482123136520386,-9.891356468200684
1745650298.6268556,-0.12381508201360703,-0.051956407725811005,0.45679888129234314,0.5349124670028687,0.5522778630256653,-9.787068367004395
1745650298.6301887,-0.1287423074245453,-0.053697578608989716,0.4600333273410797,0.6793897747993469,0.5395700335502625,-9.59778881072998
1745650298.632211,-0.13673798739910126,-0.0571630597114563,0.45644551515579224,0.5824463367462158,0.5942743420600891,-9.803820610046387
1745650298.6669383,-0.12642861902713776,-0.05350876972079277,0.458016574382782,0.704969048500061,0.5363198518753052,-9.888257026672363
1745650298.66999,-0.1395384520292282,-0.05224529653787613,0.4584749639034271,0.7127081155776978,0.6565499901771545,-9.77788257598877
1745650298.6746092,-0.13676033914089203,-0.053135909140110016,0.4572213590145111,0.5033301115036011,0.5197476148605347,-9.746867179870605
1745650298.6770515,-0.13556499779224396,-0.05665610358119011,0.4598165452480316,0.6598552465438843,0.5692873597145081,-9.683149337768555
1745650298.7062075,-0.08954284340143204,-0.029976457357406616,0.46940311789512634,0.5762282609939575,1.0299772024154663,-9.863454818725586
1745650298.7107522,-0.09643928706645966,-0.02075183391571045,0.4669423997402191,0.5151271224021912,0.7534944415092468,-9.815496444702148
1745650298.715573,-0.088486447930336,-0.026401197537779808,0.46655502915382385,0.6002064347267151,0.8906927108764648,-9.549528121948242
1745650298.7178082,-0.09989967197179794,-0.024559831246733665,0.4640081524848938,0.43924760818481445,0.8051639795303345,-9.733728408813477
1745650298.7202415,-0.09539272636175156,-0.024769214913249016,0.4641086459159851,0.6989074945449829,0.6800915002822876,-9.786630630493164
1745650298.751933,-0.0973861962556839,-0.02030980959534645,0.4632486402988434,0.5280975699424744,0.8989694714546204,-9.729429244995117
1745650298.7530956,-0.10274408012628555,-0.020013485103845596,0.4661358892917633,0.5031693577766418,0.6480735540390015,-9.718528747558594
1745650298.7564895,-0.09606008231639862,-0.022954409942030907,0.4673073887825012,0.5422821044921875,0.8674752116203308,-9.648006439208984
1745650298.7579014,-0.09634377807378769,-0.015552831813693047,0.46712231636047363,0.5976201295852661,0.8226022720336914,-9.686226844787598
1745650298.794397,-0.10209419578313828,-0.021138995885849,0.46737685799598694,0.6403921842575073,0.8767611384391785,-9.83276653289795
1745650298.7971945,-0.08265061676502228,-0.01825670339167118,0.4670542776584625,0.4701476991176605,0.9611620903015137,-9.808601379394531
1745650298.7987976,-0.09211830794811249,-0.017820915207266808,0.46532076597213745,0.6077698469161987,0.8153303265571594,-9.632519721984863
1745650298.800412,-0.08255323022603989,-0.017607346177101135,0.46460333466529846,0.449537992477417,1.0029923915863037,-9.609286308288574
1745650298.8119986,-0.09572738409042358,-0.016787972301244736,0.4634483754634857,0.613974392414093,0.7515963315963745,-9.796077728271484
1745650298.836437,-0.08661496639251709,-0.02093888446688652,0.4622008204460144,0.5891515612602234,0.9453749656677246,-9.780234336853027
1745650298.8416417,-0.09111732989549637,-0.01243494637310505,0.46112823486328125,0.5437235832214355,0.8447889089584351,-9.717923164367676
1745650298.8436277,-0.0910935252904892,-0.019904274493455887,0.4625421464443207,0.568828284740448,0.8747536540031433,-9.66582202911377
1745650298.847845,-0.08199802786111832,-0.01544242538511753,0.4624593257904053,0.4865490794181824,0.8794760704040527,-9.73537826538086
1745650298.8839016,-0.08845607191324234,-0.01586495339870453,0.46387195587158203,0.7035614848136902,0.8345759510993958,-9.653301239013672
1745650298.883976,-0.07922539860010147,-0.01380050741136074,0.4661749005317688,0.5134512782096863,0.9490132331848145,-9.78014087677002
1745650298.8855224,-0.07669921219348907,-0.012738315388560295,0.4653044641017914,0.5919758081436157,0.948566734790802,-9.769343376159668
1745650298.8886418,-0.07576808333396912,-0.019565120339393616,0.4638947546482086,0.535709023475647,0.9294086694717407,-9.719167709350586
1745650298.888718,-0.06647341698408127,-0.01211477629840374,0.46283164620399475,0.5484108924865723,0.9276778101921082,-9.71182632446289
1745650298.9233127,-0.07753179967403412,-0.015246154740452766,0.46111544966697693,0.4420696198940277,0.9144136309623718,-9.868008613586426
1745650298.9266207,-0.07644607871770859,-0.013072294183075428,0.46218934655189514,0.5864909887313843,0.7913028001785278,-9.679252624511719
1745650298.930522,-0.0697159618139267,-0.01993997022509575,0.4624353349208832,0.6467389464378357,1.0780006647109985,-9.490041732788086
1745650298.9329045,-0.06982305645942688,-0.013055915012955666,0.46402329206466675,0.594516932964325,0.9534394145011902,-9.891118049621582
1745650298.9661465,-0.05918208882212639,-0.01931636594235897,0.4624583125114441,0.5805019736289978,1.0581072568893433,-9.909675598144531
1745650298.9769025,-0.05193835496902466,-0.013661178760230541,0.45998072624206543,0.47997555136680603,0.9635802507400513,-9.576310157775879
1745650298.9770496,-0.05416534096002579,-0.016597460955381393,0.46038752794265747,0.6494981646537781,0.9852904081344604,-9.50440502166748
1745650298.9771678,-0.059661686420440674,-0.01706608012318611,0.46206584572792053,0.4681648313999176,0.9823845624923706,-9.901573181152344
1745650299.0117075,-0.053009700030088425,-0.01607697084546089,0.4590938091278076,0.6569764018058777,0.8165976405143738,-9.87862777709961
1745650299.01432,-0.05645594000816345,-0.02014877460896969,0.4580388069152832,0.6085668802261353,1.0533419847488403,-9.556074142456055
1745650299.0162203,-0.05603811889886856,-0.015184318646788597,0.4576214849948883,0.5585296154022217,0.813173770904541,-9.675662994384766
1745650299.0171008,-0.058416932821273804,-0.02031337283551693,0.46080154180526733,0.5681655406951904,0.9203224182128906,-9.814813613891602
1745650299.019753,-0.046779703348875046,-0.017715465277433395,0.4587026536464691,0.5472087860107422,0.9596719741821289,-9.740511894226074
1745650299.0541112,-0.060689158737659454,-0.04310363531112671,0.38778138160705566,0.29817482829093933,0.38486188650131226,-10.378530502319336
1745650299.0602846,-0.07285430282354355,-0.07006409019231796,0.37826651334762573,0.2294471710920334,0.2083214968442917,-9.446109771728516
1745650299.0615337,-0.04755828529596329,-0.06762804836034775,0.37363871932029724,0.17318549752235413,0.7959574460983276,-8.899088859558105
1745650299.0641656,-0.1426653265953064,-0.07547489553689957,0.36364150047302246,0.07540740817785263,1.2013092041015625,-10.190305709838867
1745650299.096316,-0.08536172658205032,-0.06540124118328094,0.35363250970840454,0.02396538108587265,0.9373821020126343,-10.438509941101074
1745650299.099634,-0.04297453537583351,-0.06789602339267731,0.3479596972465515,0.18737712502479553,1.8493778705596924,-9.033672332763672
1745650299.0999749,-0.053973931819200516,-0.0859716460108757,0.3432310223579407,0.14463838934898376,1.7413575649261475,-9.461568832397461
1745650299.1013618,0.03774423897266388,-0.08101652562618256,0.3381512761116028,0.30457428097724915,1.5468690395355225,-10.589848518371582
1745650299.14282,0.0887499675154686,-0.07220860570669174,0.33968693017959595,0.13372096419334412,1.7548277378082275,-10.062185287475586
1745650299.1430132,0.0980803444981575,-0.07363331317901611,0.3378662168979645,0.040421657264232635,1.2144893407821655,-9.063203811645508
1745650299.149213,0.11667247116565704,-0.09215838462114334,0.3322084844112396,0.3381320834159851,1.0025774240493774,-9.28415584564209
1745650299.149786,0.11809321492910385,-0.08860688656568527,0.3243638873100281,0.24030189216136932,0.942845344543457,-10.43161392211914
1745650299.18166,0.10285967588424683,-0.06809629499912262,0.3200918734073639,-0.16271397471427917,0.8313409686088562,-10.459264755249023
1745650299.185722,0.10598020255565643,-0.07927204668521881,0.3110514283180237,0.07832720130681992,0.49970483779907227,-8.776473999023438
1745650299.1901443,0.05844948813319206,-0.0878359004855156,0.30650782585144043,0.21203453838825226,0.33955270051956177,-9.186729431152344
1745650299.1939838,-0.012477799318730831,-0.10094474256038666,0.3028373122215271,0.028773969039320946,-0.040076471865177155,-10.979251861572266
1745650299.1985643,-0.005490289535373449,-0.06752101331949234,0.2962384819984436,-0.25478410720825195,0.2606148421764374,-10.105186462402344
1745650299.228535,-0.06772001087665558,-0.07961444556713104,0.2961192727088928,0.191742941737175,0.6271505355834961,-8.411813735961914
1745650299.2293365,-0.040098004043102264,-0.10023073852062225,0.2926903963088989,0.4551324248313904,0.621820330619812,-9.610819816589355
1745650299.2296152,-0.015848327428102493,-0.07782670110464096,0.2881411015987396,0.5970739722251892,1.9609897136688232,-10.939998626708984
1745650299.2322433,0.027131419628858566,-0.0896795243024826,0.28170540928840637,0.4124605655670166,1.170392394065857,-10.334409713745117
1745650299.2665753,0.11796058714389801,-0.0735103040933609,0.2827483117580414,0.04219586402177811,1.6587718725204468,-8.65503215789795
1745650299.2702806,0.0703824982047081,-0.090908482670784,0.28419822454452515,-0.006526005454361439,1.1971256732940674,-9.307222366333008
1745650299.2734807,0.1320190727710724,-0.08291161060333252,0.23138053715229034,0.5920557975769043,1.1080529689788818,-9.505293846130371
1745650299.278616,0.11525914818048477,-0.0769290179014206,0.2243964672088623,0.43038231134414673,0.3635717034339905,-10.491567611694336
1745650299.2806177,0.10861416161060333,-0.06458516418933868,0.22865955531597137,0.3825189173221588,0.2708553373813629,-10.0469388961792
1745650299.3124566,0.08264578878879547,-0.07150201499462128,0.23578882217407227,0.18742603063583374,-0.0501001700758934,-9.21762466430664
1745650299.3138747,0.09753723442554474,-0.06636431068181992,0.24060575664043427,-0.09515155851840973,0.749751091003418,-9.331304550170898
1745650299.3149345,0.07485467940568924,-0.06598321348428726,0.23584787547588348,0.05474955961108208,0.891893208026886,-10.222495079040527
1745650299.3188639,0.12544317543506622,-0.05449111387133598,0.22717423737049103,0.0539589524269104,1.151082158088684,-10.100726127624512
1745650299.3540113,0.1278502494096756,-0.05685747414827347,0.22040343284606934,-0.06021946668624878,1.1949068307876587,-9.641562461853027
1745650299.3560514,0.09408500045537949,-0.06277258694171906,0.21390953660011292,-0.0363374724984169,0.6041887998580933,-9.614057540893555
1745650299.3582811,0.14239417016506195,-0.04691055417060852,0.21568700671195984,0.40768489241600037,0.3983965516090393,-9.608922958374023
1745650299.3622937,0.05288689211010933,-0.054591573774814606,0.21544794738292694,0.45348063111305237,0.5972087979316711,-9.942116737365723
1745650299.36702,0.0939619392156601,-0.0566527433693409,0.21766957640647888,0.5671482682228088,0.3000488877296448,-10.177164077758789
1745650299.3989942,0.07444076240062714,-0.05084026977419853,0.21581336855888367,0.4604407250881195,1.2712147235870361,-9.730270385742188
1745650299.4042203,0.15898531675338745,0.013015888631343842,0.14058932662010193,0.23796936869621277,0.6189879179000854,-9.680021286010742
1745650299.4090285,0.14379355311393738,0.022019769996404648,0.1366071254014969,0.3452075123786926,0.29530221223831177,-9.783149719238281
1745650299.4372375,0.14572007954120636,0.014082382433116436,0.13632825016975403,0.5272576212882996,0.4525044560432434,-9.798787117004395
1745650299.4422727,0.13564464449882507,0.020608458667993546,0.13392652571201324,0.07514418661594391,0.24416697025299072,-10.0460205078125
1745650299.445089,0.14679212868213654,0.02419169433414936,0.1419278383255005,-0.022164031863212585,0.16669930517673492,-9.64132308959961
1745650299.4482691,0.12933652102947235,0.030134642496705055,0.15380558371543884,0.38852956891059875,-0.11620676517486572,-9.120138168334961
1745650299.449316,0.12532468140125275,0.0226551853120327,0.16785995662212372,0.293060839176178,0.12244626134634018,-10.063227653503418
1745650299.4848053,0.09712754189968109,0.03603265434503555,0.1751677691936493,0.37977826595306396,0.011808914132416248,-10.152417182922363
1745650299.4868884,0.12485527992248535,0.04780222102999687,0.17782212793827057,0.8438526391983032,0.22004631161689758,-9.311229705810547
1745650299.4887133,0.027699584141373634,0.02209720015525818,0.1826326549053192,0.9630266427993774,0.4447977542877197,-9.598406791687012
1745650299.4899387,0.08498425781726837,0.019192403182387352,0.1806725561618805,0.8623968362808228,0.04638701677322388,-10.513572692871094
1745650299.5244327,0.043542034924030304,0.03925057500600815,0.1876157820224762,0.632354199886322,0.8263012170791626,-9.996309280395508
1745650299.5285213,0.05050965026021004,0.04302666708827019,0.19217327237129211,0.20155926048755646,0.6045424342155457,-9.24475383758545
1745650299.5341856,0.07607831060886383,0.02177676372230053,0.19503778219223022,0.5493764877319336,1.0363689661026,-9.091436386108398
1745650299.5363512,0.12783057987689972,0.037350110709667206,0.19971707463264465,0.2922961115837097,1.3338273763656616,-10.278853416442871
1745650299.5397832,0.16911068558692932,0.05371676757931709,0.2005712240934372,0.21810901165008545,1.49332594871521,-10.157527923583984
1745650299.5701714,0.19411909580230713,0.046679604798555374,0.19991478323936462,0.24702711403369904,0.6384717226028442,-9.101739883422852
1745650299.5722978,0.25795796513557434,0.046471018344163895,0.20821218192577362,0.35605350136756897,0.5652000904083252,-9.052247047424316
1745650299.5727916,0.18344983458518982,0.05093279480934143,0.21545760333538055,0.5527335405349731,-0.09853283315896988,-10.45209789276123
1745650299.5742652,0.21216359734535217,0.05662645027041435,0.22163236141204834,0.34664133191108704,-0.5573619604110718,-10.321013450622559
1745650299.61262,0.14975115656852722,0.061266589909791946,0.22651803493499756,0.48478537797927856,-0.5153374075889587,-8.882776260375977
1745650299.61656,0.07201065123081207,0.048173688352108,0.23091816902160645,0.4970262944698334,-0.6521878242492676,-9.272501945495605
1745650299.6231816,-0.0029411478899419308,0.04866615682840347,0.2427801787853241,0.23966455459594727,0.6568304300308228,-10.096166610717773
1745650299.6258454,0.0032038777135312557,0.05723533034324646,0.24878785014152527,0.36829128861427307,0.8422018885612488,-10.064824104309082
1745650299.6544304,0.06339184939861298,0.050764553248882294,0.25280019640922546,0.3115618824958801,1.0340471267700195,-9.27531623840332
1745650299.6569066,0.10155947506427765,0.050473641604185104,0.2511897683143616,0.3522284924983978,1.0136113166809082,-9.402745246887207
1745650299.660394,0.11340521275997162,0.04830668121576309,0.25177642703056335,0.5085844397544861,0.9780324697494507,-10.101707458496094
1745650299.6638393,0.13287153840065002,0.05075562000274658,0.24650898575782776,0.4067968428134918,0.3452436029911041,-10.16480827331543
1745650299.7008345,0.12607161700725555,0.051656030118465424,0.24807175993919373,0.5047746300697327,0.12412106990814209,-9.395262718200684
1745650299.7093215,0.07643986493349075,0.05025138705968857,0.25052762031555176,0.44232144951820374,-0.11361587047576904,-9.362165451049805
1745650299.7094722,0.05745447799563408,0.04222686216235161,0.25047367811203003,0.6865652799606323,-0.3762974739074707,-9.913461685180664
1745650299.7095866,0.03409694507718086,0.045132510364055634,0.25395795702934265,0.5778785943984985,0.045592017471790314,-9.992097854614258
1745650299.709665,0.004654924385249615,0.052295707166194916,0.25338679552078247,0.484261691570282,-0.25714483857154846,-9.791388511657715
1745650299.7436173,0.004803132265806198,0.04073089361190796,0.2597191333770752,0.4304839074611664,0.1786169707775116,-9.368647575378418
1745650299.7448597,-0.0012428057380020618,0.041844189167022705,0.26306894421577454,0.25175681710243225,0.04249457269906998,-9.741103172302246
1745650299.7500958,0.005233984440565109,0.042091451585292816,0.2685284912586212,0.4130752682685852,0.27130356431007385,-9.905529022216797
1745650299.750966,-0.03434981405735016,0.0003572494606487453,0.3324893116950989,0.6332505941390991,0.40501102805137634,-9.689359664916992
1745650299.783583,-0.048968829214572906,0.003333199769258499,0.3332686424255371,0.6598585247993469,0.1180175393819809,-9.975296020507812
1745650299.7856224,-0.04396369680762291,-0.004544622730463743,0.33701595664024353,0.5755837559700012,0.2647069990634918,-9.853058815002441
1745650299.787293,-0.05440486595034599,0.0006957355071790516,0.3407002389431,0.5285583734512329,0.06630805134773254,-9.67048454284668
1745650299.7899363,-0.061679501086473465,-0.0043194531463086605,0.34418267011642456,0.5886869430541992,0.2631187438964844,-9.609965324401855
1745650299.7918267,-0.06157466769218445,-0.0032072197645902634,0.34453850984573364,0.4718729853630066,0.29335397481918335,-9.828274726867676
1745650299.826215,-0.06178448721766472,-0.005988688208162785,0.3447941839694977,0.7287626266479492,0.33214884996414185,-9.853569030761719
1745650299.8287342,-0.06038426235318184,-0.006406418979167938,0.34659522771835327,0.5438534617424011,0.4904429316520691,-9.792027473449707
1745650299.8317502,-0.06722726672887802,-0.0067500704899430275,0.34439772367477417,0.5024117827415466,0.19406133890151978,-9.774335861206055
1745650299.832261,-0.06818483769893646,-0.010667495429515839,0.3469976782798767,0.5514148473739624,0.3556637465953827,-9.691719055175781
1745650299.8754945,-0.07260545343160629,-0.006571877747774124,0.34905198216438293,0.6119732856750488,0.3039005398750305,-9.731821060180664
1745650299.8802555,-0.08197478950023651,-0.012954714708030224,0.35398897528648376,0.6806536912918091,0.3104988932609558,-9.899503707885742
1745650299.8869843,-0.06679333746433258,-0.013637861236929893,0.3524248003959656,0.4833219647407532,0.5238927602767944,-9.857104301452637
1745650299.8918428,-0.06537960469722748,-0.017170894891023636,0.3590840995311737,0.779260516166687,0.4051351547241211,-9.692618370056152
1745650299.9161782,-0.044089339673519135,-0.02550516463816166,0.35055336356163025,0.5626707077026367,1.1712948083877563,-9.814358711242676
1745650299.9180455,-0.047865644097328186,-0.0427914559841156,0.33049267530441284,-0.09376729279756546,0.8746898770332336,-10.410212516784668
1745650299.9204247,-0.0014471408212557435,-0.02788456715643406,0.3165912628173828,-0.3668821454048157,1.1007869243621826,-9.427446365356445
1745650299.9244947,0.009447097778320312,-0.040973130613565445,0.301913857460022,-0.36691874265670776,0.9411633610725403,-9.187453269958496
1745650299.9535897,-0.0012141189072281122,-0.057612426578998566,0.2915448546409607,-0.7141623497009277,0.3797096014022827,-10.110613822937012
1745650299.9572196,0.05108312889933586,-0.030640607699751854,0.29036349058151245,-0.35917407274246216,-0.3653201460838318,-10.051688194274902
1745650299.9680593,0.010196755640208721,-0.013830535113811493,0.2973702847957611,-0.12916839122772217,-0.17470549046993256,-8.822755813598633
1745650299.968236,-0.20214228332042694,-0.059122949838638306,0.2584804892539978,0.04075309634208679,0.8442886471748352,-10.845697402954102
1745650299.9962077,-0.14513641595840454,-0.06613948196172714,0.25118646025657654,-0.03314176946878433,1.6991517543792725,-8.878122329711914
1745650300.0002728,-0.12175372987985611,-0.09178817272186279,0.24719619750976562,0.3336331844329834,1.5282665491104126,-9.095385551452637
1745650300.0023122,-0.0376804880797863,-0.09531466662883759,0.2472858726978302,0.3211057782173157,1.2324974536895752,-11.04901123046875
1745650300.0065024,0.056379783898591995,-0.06357080489397049,0.25147685408592224,0.12289974838495255,1.1688998937606812,-10.49485969543457
1745650300.0084424,0.030698448419570923,-0.07901722937822342,0.25455325841903687,0.11693744361400604,0.8046354055404663,-8.720663070678711
1745650300.0436337,0.07963193953037262,-0.09958599507808685,0.2479284554719925,0.12446818500757217,0.3733660578727722,-8.99817943572998
1745650300.0513735,0.04740855097770691,-0.08856131136417389,0.2352835237979889,0.3506702780723572,0.4798756241798401,-10.673994064331055
1745650300.051434,0.0009457729756832123,-0.076657235622406,0.22371049225330353,0.06820637732744217,0.1491471230983734,-10.817506790161133
1745650300.053827,0.03210794925689697,-0.08387619256973267,0.2187524288892746,0.12404737621545792,-0.16688187420368195,-8.835321426391602
1745650300.085942,-0.036959029734134674,-0.07938487082719803,0.21641556918621063,-0.16512618958950043,0.035830091685056686,-8.745590209960938
1745650300.088413,-0.08462981134653091,-0.09541665017604828,0.2182479202747345,0.6792517900466919,-1.0392401218414307,-10.386250495910645
1745650300.092988,-0.09596608579158783,-0.101352259516716,0.23012880980968475,-0.39743226766586304,-0.46261006593704224,-11.217331886291504
1745650300.095984,-0.16736334562301636,-0.0582435317337513,0.22657088935375214,-0.7299052476882935,0.012320280075073242,-9.094935417175293
1745650300.1321313,0.04159824550151825,-0.03152966499328613,0.1311200112104416,0.3043729066848755,-0.44188833236694336,-9.155252456665039
1745650300.1325245,0.00959748588502407,-0.03417861461639404,0.13747526705265045,0.6101924777030945,-0.6580977439880371,-9.93067455291748
1745650300.1358087,-0.012460531666874886,-0.03170968219637871,0.14307339489459991,0.25022003054618835,0.005640207789838314,-10.491874694824219
1745650300.1381109,-0.03202744200825691,-0.019426776096224785,0.14188924431800842,-0.03972787410020828,0.0036917359102517366,-9.870010375976562
1745650300.1698139,-0.027317393571138382,-0.02520933374762535,0.1411522626876831,-0.27711957693099976,0.635683536529541,-9.007657051086426
1745650300.1738825,-0.024983320385217667,-0.02462811954319477,0.13589391112327576,-0.4705788493156433,0.7647108435630798,-9.60676383972168
1745650300.1792357,0.0036577775608748198,-0.01546509750187397,0.12790243327617645,-0.19782109558582306,1.0366790294647217,-10.296923637390137
1745650300.1815078,0.040719613432884216,-0.009479029104113579,0.12032759189605713,-0.18353399634361267,1.0467088222503662,-9.87132453918457
1745650300.1856186,0.0599527470767498,-0.011062448844313622,0.12245877832174301,0.19826221466064453,0.6210452318191528,-9.359147071838379
1745650300.2138846,0.07388245314359665,-0.01842162385582924,0.12533161044120789,0.3229702115058899,0.48306918144226074,-9.818536758422852
1745650300.2178805,0.08357079327106476,-0.010782688856124878,0.13094697892665863,0.4507130980491638,0.08363685011863708,-10.41512393951416
1745650300.2222283,0.07289670407772064,-0.010277792811393738,0.13554058969020844,0.31677156686782837,0.20089168846607208,-9.971158027648926
1745650300.2258718,0.06964509934186935,-0.011674517765641212,0.13497792184352875,0.08376161754131317,0.21549680829048157,-9.397890090942383
1745650300.2568352,0.05165248364210129,-0.020479796454310417,0.13119415938854218,0.04525809735059738,0.5137812495231628,-9.629791259765625
1745650300.2599454,0.04915408417582512,-0.010538540780544281,0.11716203391551971,-0.1453847736120224,0.5547412633895874,-10.18476390838623
1745650300.2633767,0.04839744418859482,-0.006260453257709742,0.109599769115448,-0.05720550939440727,0.36539438366889954,-9.866589546203613
1745650300.2665892,0.036644816398620605,-0.004298584070056677,0.10759898275136948,-0.19162902235984802,0.28342756628990173,-9.398659706115723
1745650300.2703092,0.037922002375125885,-0.0048562316223979,0.11192262172698975,0.06965839862823486,-0.15671849250793457,-9.578912734985352
1745650300.3002043,0.03413327783346176,0.0056745512410998344,0.12562420964241028,0.27374014258384705,0.007842900231480598,-9.948111534118652
1745650300.30402,0.05508348345756531,0.010130215436220169,0.13787080347537994,0.36383309960365295,0.08277680724859238,-9.994311332702637
1745650300.3052685,0.05673009157180786,-0.0014680458698421717,0.13973510265350342,0.4492209851741791,0.5385589599609375,-9.732410430908203
1745650300.3079221,0.08046320825815201,-0.005724200047552586,0.12656329572200775,-0.13152094185352325,0.9061975479125977,-9.88859748840332
1745650300.3414035,0.07090473920106888,0.0005320810014382005,0.11154862493276596,0.785746693611145,0.601751446723938,-10.777140617370605
1745650300.3436985,0.09693892300128937,0.03397392854094505,0.11238642036914825,0.2231067717075348,0.4588189721107483,-10.793866157531738
1745650300.3458996,0.088889941573143,0.03179391473531723,0.10864318907260895,-0.2275683879852295,0.7044846415519714,-8.764325141906738
1745650300.3485436,0.11620668321847916,0.014530548825860023,0.10112886130809784,0.11066995561122894,0.23292195796966553,-8.567678451538086
1745650300.3519258,0.08942455053329468,0.013077495619654655,0.0947638750076294,0.011433036997914314,0.9068574905395508,-10.57955551147461
1745650300.386785,0.09739591181278229,0.04514038562774658,0.08293456584215164,0.024929149076342583,0.1908026784658432,-10.912144660949707
1745650300.3885822,0.11410852521657944,0.04006047174334526,0.07691862434148788,0.48906460404396057,0.39275115728378296,-8.55463981628418
1745650300.391563,0.061260808259248734,0.017402077093720436,0.07711928337812424,0.6163707971572876,-0.21656720340251923,-9.068811416625977
1745650300.3930094,0.07584753632545471,0.019155684858560562,0.08639213442802429,0.7670697569847107,-0.43242335319519043,-11.165468215942383
1745650300.4293582,0.057063035666942596,0.04588912054896355,0.09930829703807831,0.3253060579299927,-0.2824825346469879,-10.557489395141602
1745650300.431673,0.06375767290592194,0.04679931327700615,0.10731065273284912,0.10365355014801025,-0.15764576196670532,-8.5291748046875
1745650300.434562,0.026188278570771217,0.018981803208589554,0.1119009256362915,0.1307326853275299,0.48060980439186096,-8.70874309539795
1745650300.438662,0.07321681082248688,0.03728361427783966,0.10414932668209076,0.09153721481561661,0.6056491136550903,-10.814305305480957
1745650300.472719,0.061955489218235016,0.05171028524637222,0.09081029891967773,0.15667666494846344,1.1273938417434692,-10.399773597717285
1745650300.477732,0.1115163192152977,0.06897548586130142,0.1998598873615265,0.5968044400215149,-1.0751804113388062,-10.710810661315918
1745650300.4803443,0.01769041083753109,0.0712936669588089,0.2088591307401657,0.43379703164100647,-0.9507654905319214,-8.611997604370117
1745650300.4832165,-0.031217407435178757,0.047331441193819046,0.21981005370616913,0.7569960951805115,-1.2556769847869873,-8.72840690612793
1745650300.5156534,-0.06659088283777237,0.05130961537361145,0.22091969847679138,0.6919268369674683,-0.09001465886831284,-10.649572372436523
1745650300.518516,-0.10405858606100082,0.07156261056661606,0.2231452912092209,0.5372797250747681,-0.3898150622844696,-10.952003479003906
1745650300.519871,-0.08051162958145142,0.06349615752696991,0.22207407653331757,0.48778629302978516,0.47237053513526917,-8.739290237426758
1745650300.522035,-0.09399526566267014,0.04764198511838913,0.2252233773469925,0.38453760743141174,0.38698238134384155,-8.779359817504883
1745650300.5235865,-0.06433234363794327,0.049170851707458496,0.23568971455097198,0.595192551612854,0.4564991891384125,-10.722189903259277
1745650300.5593915,-0.017831310629844666,0.0659547746181488,0.23920102417469025,0.4818609654903412,0.870710551738739,-10.542478561401367
1745650300.561693,0.010885665193200111,0.06387729197740555,0.24379265308380127,0.6298176646232605,0.6185712814331055,-8.837789535522461
1745650300.564415,0.022124454379081726,0.04168146103620529,0.24646811187267303,0.6147045493125916,0.8514245748519897,-8.976219177246094
1745650300.5668464,0.04479937627911568,0.047120507806539536,0.24696023762226105,0.9000037908554077,0.46287673711776733,-10.690221786499023
1745650300.6019328,0.06056647375226021,0.052321869879961014,0.24428293108940125,0.7976557016372681,0.44199809432029724,-10.513976097106934
1745650300.6075861,0.04079047217965126,0.05523332208395004,0.24729104340076447,0.43319258093833923,-0.05004417896270752,-9.145242691040039
1745650300.6143994,0.022330408915877342,0.0350240021944046,0.25312384963035583,0.7198750376701355,-0.24806956946849823,-8.930097579956055
1745650300.6161656,0.0029551524203270674,0.03852329030632973,0.25759273767471313,0.5995932817459106,-0.02300800010561943,-10.157559394836426
1745650300.6211548,-0.008209733292460442,0.05021211504936218,0.2612069547176361,0.685799241065979,-0.2475060224533081,-10.47349739074707
1745650300.6457095,-0.015375057235360146,0.04130610451102257,0.26507219672203064,0.535309910774231,0.0528339259326458,-9.328499794006348
1745650300.6478417,-0.026815110817551613,0.03803325444459915,0.26724088191986084,0.49685564637184143,-0.18361014127731323,-9.165619850158691
1745650300.6518598,-0.03915175050497055,0.03251703828573227,0.27239444851875305,0.6007217764854431,0.00801868550479412,-9.962148666381836
1745650300.6554527,-0.03915155678987503,0.0424497127532959,0.2784433662891388,0.4687173366546631,-0.1620074212551117,-10.398039817810059
1745650300.6873884,0.005816770251840353,-0.03357113152742386,0.2554079592227936,-1.0063494443893433,0.4715186059474945,-10.143534660339355
1745650300.6885717,0.003535289317369461,-0.0008279837784357369,0.24474875628948212,-1.2547149658203125,0.1679697036743164,-11.092890739440918
1745650300.6905828,0.049429722130298615,0.011584377847611904,0.24303343892097473,-0.8462207913398743,-0.15146788954734802,-8.463409423828125
1745650300.6918063,-0.04511589556932449,-0.00281691737473011,0.25697746872901917,-0.29829856753349304,-1.1434149742126465,-8.396042823791504
1745650300.7306395,0.023642703890800476,-0.024573473259806633,0.2613859474658966,0.9594147801399231,0.06810493767261505,-10.356013298034668
1745650300.7346363,-0.08980032056570053,-0.04464363306760788,0.26068931818008423,0.6591700315475464,-1.2137348651885986,-11.892192840576172
1745650300.7374935,-0.007339580915868282,-0.009175809100270271,0.27017098665237427,-0.10287310183048248,-0.9232791662216187,-9.786377906799316
1745650300.7400167,-0.22055253386497498,-0.04812898114323616,0.2810825705528259,-0.3563704490661621,-1.3391224145889282,-8.049211502075195
1745650300.771152,-0.20955488085746765,-0.07456253468990326,0.2775035798549652,0.11219684034585953,-0.5537216663360596,-9.421548843383789
1745650300.7734532,-0.22782859206199646,-0.04233579337596893,0.2673245072364807,-0.138356015086174,0.8310864567756653,-11.332666397094727
1745650300.775992,-0.25107383728027344,-0.04680918902158737,0.24773910641670227,-0.5250712633132935,1.297050952911377,-9.918676376342773
1745650300.778737,-0.15132129192352295,-0.06309168040752411,0.23230798542499542,0.06130450218915939,1.22047758102417,-8.116120338439941
1745650300.7836099,-0.15538908541202545,-0.10109364986419678,0.24138669669628143,-0.029783081263303757,1.073167085647583,-9.91609001159668
1745650300.8166354,-0.10347117483615875,-0.07658275216817856,0.2614230513572693,-0.39974483847618103,-0.018639206886291504,-12.027134895324707
1745650300.8212404,0.11749352514743805,-0.05535953491926193,0.16391220688819885,1.9657363891601562,0.9347896575927734,-10.17919921875
1745650300.8253496,-0.10379008203744888,-0.050122905522584915,0.13103868067264557,1.3625479936599731,3.1079154014587402,-10.590861320495605
1745650300.8591537,0.00854413490742445,-0.06944248080253601,0.1206204891204834,1.3629982471466064,-1.690053939819336,-11.668566703796387
1745650300.86261,0.12577752768993378,-0.032214827835559845,0.13950996100902557,0.4548425078392029,1.8820841312408447,-8.08071517944336
1745650300.8670428,-0.09828231483697891,-0.04345450550317764,0.16237565875053406,-0.07570946961641312,-2.513712167739868,-9.586029052734375
1745650300.8694818,0.20700116455554962,-0.01748400367796421,0.16772104799747467,1.1408921480178833,1.8074748516082764,-9.56783390045166
1745650300.900671,-0.07637108862400055,-0.012890544719994068,0.14645612239837646,0.27546507120132446,0.6348908543586731,-10.932364463806152
1745650300.9033816,0.2404119223356247,-0.009633354842662811,0.11008013784885406,0.4986911416053772,1.6267340183258057,-9.69492244720459
1745650300.906164,0.04472256451845169,-0.005769575014710426,0.07955582439899445,0.3914650082588196,1.9288322925567627,-8.863370895385742
1745650300.9101603,0.09942944347858429,-0.022142790257930756,0.06747041642665863,0.5506854057312012,-2.1297059059143066,-11.088470458984375
1745650300.9189491,0.0865308865904808,0.025930916890501976,0.07331974804401398,0.33184942603111267,0.6315010786056519,-9.697638511657715
1745650300.9461174,-0.0862615555524826,0.012467305175960064,0.09007640928030014,0.4257503151893616,-2.561450481414795,-9.806096076965332
1745650300.9496799,0.06682698428630829,0.026004880666732788,0.09705661237239838,1.0008383989334106,0.3778185248374939,-8.543478012084961
1745650300.9535081,-0.117479607462883,0.010562491603195667,0.09208961576223373,1.003948450088501,0.5826119780540466,-10.686094284057617
1745650300.9571815,0.062363386154174805,0.007107542362064123,0.07572156190872192,0.7123576402664185,0.7838435173034668,-11.647234916687012
1745650300.9928534,0.034179363399744034,0.050697553902864456,0.05297796055674553,-0.04847608134150505,2.160292625427246,-9.156386375427246
1745650300.9929247,0.06726771593093872,0.022480543702840805,0.04429155960679054,0.19889488816261292,-0.26673945784568787,-8.752069473266602
1745650300.9943044,0.09688876569271088,0.028813153505325317,0.039610229432582855,0.1315585821866989,1.4818488359451294,-9.687021255493164
1745650300.9973555,0.07575292140245438,0.04069921746850014,0.03541376441717148,0.5070654153823853,-0.6077121496200562,-11.072853088378906
1745650301.0012674,0.1404259353876114,0.06357055902481079,0.0358746275305748,0.47651442885398865,1.0644340515136719,-9.408609390258789
1745650301.0333433,0.04975242167711258,0.05560515075922012,0.024958766996860504,0.9227722883224487,-0.14322800934314728,-9.031837463378906
1745650301.036443,0.12683549523353577,0.08071738481521606,-0.03252917900681496,0.3943406045436859,-0.21091309189796448,-9.813136100769043
1745650301.0392196,0.1690359115600586,0.0944511815905571,-0.027825798839330673,0.854432225227356,0.004171788692474365,-10.357638359069824
1745650301.0423887,0.1298348307609558,0.10532933473587036,-0.025657683610916138,0.5617383718490601,-0.012918579392135143,-9.700148582458496
1745650301.0847752,0.148038849234581,0.09766293317079544,-0.027624621987342834,0.6209007501602173,0.02120358683168888,-9.05412483215332
1745650301.084919,0.13991861045360565,0.09389535337686539,-0.039719581604003906,0.5314804315567017,0.7806823253631592,-9.581719398498535
1745650301.084992,0.1453312784433365,0.09259559214115143,-0.05476635694503784,0.5242869257926941,0.3029794692993164,-10.528375625610352
1745650301.0879364,0.15263797342777252,0.10299007594585419,-0.06516950577497482,0.48782387375831604,0.6290718913078308,-10.008308410644531
1745650301.0887692,0.15017667412757874,0.08986635506153107,-0.07486815750598907,0.3716551661491394,-0.08593472093343735,-9.398699760437012
1745650301.1164403,0.15997636318206787,0.08855170011520386,-0.06820284575223923,0.642819344997406,-0.010850382037460804,-9.443495750427246
1745650301.1180344,0.1498473584651947,0.0910978764295578,-0.054230619221925735,0.2673483192920685,-0.4047057628631592,-10.137957572937012
1745650301.1203516,0.18575003743171692,0.09787501394748688,-0.049584805965423584,0.14228062331676483,-0.32029658555984497,-9.759557723999023
1745650301.1215675,0.13527917861938477,0.06984556466341019,-0.037288472056388855,0.280042827129364,-0.325982004404068,-9.165323257446289
1745650301.162494,0.12797951698303223,0.08118936419487,-0.035127680748701096,-0.5078222155570984,-0.1525006890296936,-10.249159812927246
1745650301.1664016,0.10786750167608261,0.07673032581806183,-0.04641391709446907,-0.2542226314544678,0.15220484137535095,-9.779759407043457
1745650301.1698596,0.10578372329473495,0.07879118621349335,-0.054969627410173416,0.006812036037445068,0.26340577006340027,-9.138148307800293
1745650301.1737933,0.10010256618261337,-0.024126004427671432,0.0018289450090378523,0.4003511071205139,0.08093249052762985,-10.361028671264648
1745650301.2013452,0.12041546404361725,-0.028337767347693443,0.009379321709275246,0.6365648508071899,-0.048973292112350464,-9.0681734085083
1745650301.2046385,0.10689620673656464,-0.042561061680316925,0.021047279238700867,0.4555605947971344,-0.39208659529685974,-9.395072937011719
1745650301.208734,0.11766950786113739,-0.03328589349985123,0.0322151854634285,0.5835415124893188,-0.6324751973152161,-10.367403030395508
1745650301.2139978,0.08539362251758575,-0.03060433827340603,0.038662318140268326,0.3830289840698242,-0.49027758836746216,-10.085004806518555
1745650301.2180936,0.05681346729397774,-0.027048170566558838,0.0467691496014595,0.25479722023010254,-0.7887400984764099,-9.07396411895752
1745650301.2496765,0.007849677465856075,-0.03995385020971298,0.047093551605939865,0.4974580705165863,-0.32714229822158813,-9.225655555725098
1745650301.2497947,-0.024877822026610374,-0.04826844483613968,0.03416600078344345,0.2974982261657715,-0.21670326590538025,-10.454545974731445
1745650301.2505226,-0.06669209897518158,-0.05710394307971001,0.03280849754810333,-0.2877369523048401,-0.6047436594963074,-10.628850936889648
1745650301.2543967,-0.05440635606646538,-0.05184045433998108,0.04646853730082512,-0.6450177431106567,-0.1113610714673996,-9.338236808776855
1745650301.2898874,-0.07848447561264038,-0.06091333553195,0.05948920175433159,-1.2450811862945557,-0.15426665544509888,-9.163732528686523
1745650301.2929835,-0.028105774894356728,-0.07147588580846786,0.08481045067310333,-1.0025169849395752,-0.6381585001945496,-9.79654598236084
1745650301.2984612,-0.032626379281282425,-0.045450031757354736,0.0932554304599762,-0.532024085521698,1.0779677629470825,-9.787298202514648
1745650301.300964,-0.03401079773902893,-0.07083843648433685,0.07196172326803207,-0.27576830983161926,0.35259002447128296,-10.030386924743652
1745650301.3039217,0.10675092786550522,-0.06750190258026123,0.05875876545906067,0.9578655362129211,1.1811779737472534,-8.939945220947266
1745650301.334859,-0.04405755549669266,-0.08562487363815308,0.059517987072467804,0.5234766602516174,-0.2256467640399933,-10.78049087524414
1745650301.3396678,0.09551320970058441,-0.01921854354441166,0.054041288793087006,0.6005710363388062,-0.3528905212879181,-10.50312614440918
1745650301.3397486,0.0072334520518779755,-0.13093876838684082,0.0627613514661789,1.1892368793487549,-0.9321540594100952,-8.369454383850098
1745650301.3398027,0.013434654101729393,-0.04073364660143852,0.08402026444673538,0.9038448333740234,-1.340188980102539,-10.406189918518066
1745650301.379171,-0.04794791340827942,-0.07391971349716187,0.08122102916240692,-1.0793631076812744,0.44892507791519165,-10.947622299194336
1745650301.3807993,0.023099759593605995,-0.09128961712121964,0.07201594114303589,1.3854033946990967,-0.9438408017158508,-7.914167881011963
1745650301.3827,-0.05072823166847229,-0.026485512033104897,0.06520316749811172,-1.5908987522125244,2.647521495819092,-9.7789306640625
1745650301.3860352,0.10555066913366318,-0.05790078639984131,0.023017624393105507,2.462197780609131,-2.3400938510894775,-11.875986099243164
1745650301.4190118,0.0990816280245781,-0.02162291668355465,0.009481883607804775,0.9552130699157715,3.5183863639831543,-10.23819351196289
1745650301.4216545,0.020982077345252037,-0.03642251342535019,-0.004054542630910873,0.3528462052345276,-2.1570987701416016,-10.102384567260742
1745650301.42246,0.18708646297454834,-0.020007949322462082,-0.004614976700395346,-0.3070956766605377,1.6125566959381104,-7.759194374084473
1745650301.4245064,-0.11657436937093735,-0.0503254234790802,-0.017743399366736412,-0.15252366662025452,-2.063201427459717,-10.592496871948242
1745650301.4288144,0.21060514450073242,0.0018959182780236006,-0.037960655987262726,0.6735866665840149,2.0589728355407715,-10.723676681518555
1745650301.4649496,-0.11567772924900055,0.01551046036183834,-0.06381288915872574,-0.048681654036045074,-0.4126106798648834,-9.806196212768555
1745650301.468264,0.171978160738945,-0.021512789651751518,-0.06509344279766083,1.455435872077942,-1.285931944847107,-8.802678108215332
1745650301.471617,-0.06298862397670746,-0.03159148618578911,-0.06377622485160828,1.3236027956008911,1.0072942972183228,-9.875741958618164
1745650301.4757698,0.005871182773262262,-0.003963404335081577,-0.05048835277557373,0.7770313024520874,-3.4204115867614746,-12.932853698730469
1745650301.5086222,0.09176121652126312,0.0256977342069149,-0.03642415255308151,0.3331865668296814,2.0020806789398193,-8.062002182006836
1745650301.5088081,-0.11169175803661346,-0.009376589208841324,-0.046977028250694275,0.6493763327598572,-1.8501012325286865,-8.66944694519043
1745650301.5121436,0.17798754572868347,-0.019220435991883278,-0.05951704829931259,0.6127476692199707,1.6838067770004272,-10.252914428710938
1745650301.518003,-0.07901132106781006,0.022205211222171783,-0.0818084329366684,0.157446026802063,0.6355120539665222,-11.824543952941895
1745650301.54938,0.04908871278166771,0.03590557724237442,0.09561872482299805,0.9280555844306946,-1.424600601196289,-10.562763214111328
1745650301.5533144,0.01587897539138794,0.053436316549777985,0.11140938103199005,1.2174017429351807,-1.2240898609161377,-10.926162719726562
1745650301.5575175,-0.06199319288134575,0.04623759165406227,0.12243308126926422,0.5522316694259644,-0.8766902089118958,-9.518905639648438
1745650301.5616207,-0.061764705926179886,0.032184161245822906,0.12522602081298828,0.15595456957817078,-0.859840989112854,-8.60858154296875
1745650301.5928369,-0.12791793048381805,0.044329989701509476,0.12507788836956024,0.34748896956443787,-0.030306071043014526,-9.516256332397461
1745650301.5959554,-0.12981657683849335,0.040114860981702805,0.11973528563976288,0.5394214391708374,-0.15941281616687775,-10.756457328796387
1745650301.5974634,-0.09612672030925751,0.04746481031179428,0.11933523416519165,0.46458759903907776,0.2076650857925415,-9.87867259979248
1745650301.5981724,-0.11212797462940216,0.04760189354419708,0.1312672346830368,0.1982513964176178,-0.061716288328170776,-8.96833324432373
1745650301.6003332,-0.08197803795337677,0.046240344643592834,0.14283961057662964,0.6483564376831055,-0.10486440360546112,-9.143277168273926
1745650301.6346593,-0.07281135022640228,0.04111240431666374,0.1555718630552292,0.8543586730957031,0.041799396276474,-10.182165145874023
1745650301.636324,-0.037874624133110046,0.05509753152728081,0.16538944840431213,0.8413054347038269,0.16886062920093536,-10.404003143310547
1745650301.6391075,-0.03648846223950386,0.05331633239984512,0.16798441112041473,0.6145405769348145,0.4323248267173767,-9.447622299194336
1745650301.6392064,-0.00838373601436615,0.03754458203911781,0.1702108383178711,0.4032444357872009,0.23004181683063507,-9.02735710144043
1745650301.6764219,-0.010595154948532581,0.039411600679159164,0.17293882369995117,0.7183374166488647,0.18398144841194153,-9.840936660766602
1745650301.6799405,-0.005584812723100185,0.03274894505739212,0.16932430863380432,0.24958404898643494,0.47144708037376404,-10.556025505065918
1745650301.6817734,-2.1286867195158266e-05,0.02699044719338417,0.15360420942306519,-0.32682695984840393,0.26297563314437866,-9.823205947875977
1745650301.685397,-0.024222511798143387,0.026385363191366196,0.14760009944438934,-0.8084636926651001,-0.051845066249370575,-8.747949600219727
1745650301.6863437,-0.016811233013868332,-0.0028408276848495007,0.1487147957086563,-0.5651459693908691,-0.3899012804031372,-9.563082695007324
1745650301.7327964,-0.047565311193466187,-0.007401217706501484,0.15623758733272552,-1.3269991874694824,-0.6332381963729858,-10.941407203674316
1745650301.7446008,-0.03250826522707939,0.0073382435366511345,0.17532281577587128,-1.3420956134796143,-1.5172911882400513,-9.803117752075195
1745650301.7469823,-0.08015153557062149,0.004535146057605743,0.1966322958469391,-0.8359966278076172,-1.1603518724441528,-8.230074882507324
1745650301.7499466,-0.16136352717876434,-0.017501715570688248,0.204237699508667,-0.3071504533290863,-1.279627799987793,-8.960164070129395
1745650301.7637253,-0.11259718239307404,-0.03332992643117905,0.19217370450496674,0.5703179836273193,-0.19633439183235168,-10.714037895202637
1745650301.7685637,-0.3580920696258545,-0.0691186785697937,0.2135017365217209,0.19607272744178772,-0.9950249791145325,-10.909189224243164
1745650301.7728,-0.21386297047138214,-0.021840732544660568,0.2001039981842041,-0.8425753712654114,1.992178201675415,-10.409414291381836
1745650301.774359,-0.21269884705543518,-0.04086096212267876,0.1686759740114212,1.056438684463501,2.1024022102355957,-7.456353664398193
1745650301.7766368,-0.11077824980020523,-0.060789357870817184,0.15033170580863953,0.8413982391357422,2.5931925773620605,-9.55027961730957
1745650301.8072984,0.014687436632812023,-0.07058969885110855,0.14635272324085236,0.22158780694007874,1.1422590017318726,-12.357196807861328
1745650301.812704,0.11172689497470856,-0.04112594947218895,0.1549226939678192,-0.08190102875232697,0.7193909883499146,-9.937406539916992
1745650301.8180413,0.018171582370996475,-0.024495858699083328,0.17676326632499695,-0.6135593056678772,-1.26021146774292,-7.890005588531494
1745650301.824876,0.09201117604970932,-0.06197626516222954,0.1774006485939026,0.1319262981414795,-0.48516398668289185,-8.83930778503418
1745650301.8525052,0.01789969764649868,-0.06687802076339722,0.16184870898723602,1.4173214435577393,0.7079779505729675,-10.71257495880127
1745650301.8559496,-0.02702252008020878,-0.005103880073875189,0.13825459778308868,-0.31694915890693665,0.4233762323856354,-12.102148056030273
1745650301.8583086,0.06432264298200607,-0.05057626962661743,0.10549874603748322,1.192793846130371,-1.2515145540237427,-7.392580986022949
1745650301.8621836,-0.13696220517158508,-0.06740903854370117,0.09995533525943756,0.5036694407463074,-0.2382618933916092,-8.365961074829102
1745650301.8911352,-0.28328683972358704,-0.11022712290287018,0.12744338810443878,0.3580682873725891,-3.987076997756958,-13.490547180175781
1745650301.89506,-0.07608644664287567,0.0017824869137257338,0.013900515623390675,-0.057951342314481735,-0.5680786371231079,-10.379820823669434
1745650301.8988018,-0.09264442324638367,-0.004750977735966444,0.014543989673256874,0.20142221450805664,-0.028033196926116943,-8.38557243347168
1745650301.9029875,-0.10567432641983032,-0.03496775031089783,0.020952235907316208,0.3458358943462372,-0.14590802788734436,-9.502413749694824
1745650301.9350536,-0.07612815499305725,-0.024683039635419846,0.028089869767427444,0.1854678839445114,0.48996829986572266,-11.502604484558105
1745650301.939882,-0.020771829411387444,0.004484327044337988,0.032145172357559204,-0.4721096158027649,0.6628744602203369,-10.376582145690918
1745650301.9427874,0.026003580540418625,-0.007301848381757736,0.03908265382051468,-0.0387570858001709,0.43626150488853455,-7.952236175537109
1745650301.9463341,0.02694515511393547,-0.04402073472738266,0.02667822316288948,0.20062656700611115,1.1352565288543701,-8.968803405761719
1745650301.9497445,0.03136780858039856,-0.029097706079483032,0.0053165932185947895,-0.6270559430122375,0.2759164571762085,-11.994621276855469
1745650301.9808848,0.045468010008335114,0.03494943678379059,0.009292783215641975,-0.4807129502296448,-0.14809031784534454,-9.48771858215332
1745650301.984032,0.013966700062155724,-0.017481332644820213,0.02699945867061615,1.1544350385665894,-0.5722542405128479,-7.193320274353027
1745650301.9867191,-0.02278127335011959,-0.05167953297495842,0.03346509486436844,0.6759728193283081,-0.6563493013381958,-11.12695026397705
1745650301.9897263,-0.037924401462078094,0.0076145208440721035,0.03561609983444214,0.2811133563518524,-0.8405033946037292,-12.397970199584961
1745650302.021288,-0.07652181386947632,0.002454077359288931,0.033910203725099564,0.7573086023330688,0.26212626695632935,-8.293035507202148
1745650302.0232449,-0.07805512845516205,-0.04684434458613396,0.02196950651705265,-0.007244238164275885,0.5833274126052856,-7.914068698883057
1745650302.0253224,-0.051350466907024384,-0.048804473131895065,0.02501221001148224,0.08580446988344193,-0.013013357296586037,-11.323561668395996
1745650302.0272636,-0.05111454054713249,0.008766703307628632,0.02951507829129696,-0.718126118183136,0.7106612920761108,-11.807441711425781
1745650302.0295315,-0.0008503400022163987,0.014583230018615723,0.027234459295868874,-0.4217642843723297,0.027184853330254555,-7.782905578613281
1745650302.074134,0.011342277750372887,-0.04098261520266533,0.04154285043478012,0.5696882009506226,0.426430881023407,-7.369861602783203
1745650302.0743058,0.0023253969848155975,-0.02984921634197235,0.040323927998542786,0.5374070405960083,0.4847434163093567,-12.42371654510498
1745650302.0768175,0.0740220695734024,0.005724717862904072,0.03901192918419838,0.6751357913017273,0.01788765750825405,-12.193388938903809
1745650302.0827425,0.040988899767398834,0.004931874573230743,0.04542229697108269,0.2354268729686737,-0.13971510529518127,-7.476199150085449
1745650302.1066062,-0.006619629915803671,-0.034097980707883835,0.056005291640758514,0.7041959762573242,-0.9400936365127563,-7.829286098480225
1745650302.109447,-0.051709242165088654,-0.04121481999754906,0.05957644060254097,0.560727596282959,-0.2522757649421692,-12.018396377563477
1745650302.111873,-0.08278482407331467,-0.0500914566218853,0.03361494094133377,0.8310311436653137,0.5156980752944946,-8.206452369689941
1745650302.112677,-0.033359594643116,-0.022519439458847046,0.021957339718937874,0.25828447937965393,1.1682255268096924,-12.265250205993652
1745650302.150602,0.03513823822140694,0.03181116655468941,0.013339979574084282,0.8580794334411621,0.912445068359375,-10.708500862121582
1745650302.1530135,0.09503231197595596,0.005200027488172054,0.01388248335570097,0.7539911270141602,0.785834550857544,-7.568499565124512
1745650302.1555655,0.12493401765823364,-0.024906819686293602,0.016942353919148445,0.7412232160568237,0.36266905069351196,-8.845739364624023
1745650302.1587863,0.184422105550766,0.022874411195516586,0.014672902412712574,0.6208450794219971,0.4480432868003845,-11.563323020935059
1745650302.1917348,0.15511071681976318,0.03897548466920853,0.008800429292023182,0.41504421830177307,-0.36389774084091187,-10.334162712097168
1745650302.1977558,0.18892768025398254,0.02737312950193882,0.0025510278064757586,0.6590825319290161,-0.558567225933075,-7.9342241287231445
1745650302.197861,0.033337902277708054,-0.0007308328640647233,-0.010341556742787361,0.6118892431259155,-0.5907226204872131,-9.577539443969727
1745650302.1994426,0.04565664008259773,0.03064192458987236,-0.030337894335389137,0.4367729127407074,-0.8343889117240906,-11.589142799377441
1745650302.2043178,-0.013483052141964436,0.05369574949145317,-0.045336224138736725,0.7225548624992371,-0.30391982197761536,-9.540834426879883
1745650302.2394075,-0.09777973592281342,0.021774709224700928,-0.05226241424679756,0.9603484272956848,-0.9649316668510437,-8.359113693237305
1745650302.240184,-0.06619085371494293,0.013209628872573376,-0.04899539053440094,1.0033296346664429,-0.1600596010684967,-10.208878517150879
1745650302.2440171,0.06994457542896271,0.050756800919771194,-0.1786452978849411,0.6804779767990112,-0.6065927743911743,-9.370439529418945
1745650302.2477725,0.07511290162801743,0.037707455456256866,-0.18213173747062683,0.5831714868545532,-0.21071259677410126,-9.581720352172852
1745650302.2814484,0.06168783828616142,0.047680873423814774,-0.18438702821731567,0.5902575850486755,-0.2826942801475525,-10.144707679748535
1745650302.2837582,0.09717802703380585,0.04287724941968918,-0.18400171399116516,0.5749721527099609,0.0009509414667263627,-9.923084259033203
1745650302.2869823,0.11356648057699203,0.04553963616490364,-0.18096131086349487,0.5880974531173706,0.18596966564655304,-9.441019058227539
1745650302.2900217,0.13502630591392517,0.029595667496323586,-0.18295887112617493,0.7343366146087646,-0.03304063528776169,-9.717838287353516
1745650302.293109,0.18337643146514893,0.039081767201423645,-0.18242546916007996,0.498127281665802,0.294357568025589,-10.09731388092041
1745650302.3231099,0.17348727583885193,0.03941037878394127,-0.18680402636528015,0.6028765439987183,-0.02029428817331791,-9.705469131469727
1745650302.3255224,0.1928224116563797,0.027785087004303932,-0.1914844959974289,0.6067474484443665,-0.16449181735515594,-9.278989791870117
1745650302.3274546,0.17143401503562927,0.033903636038303375,-0.19774365425109863,0.6308689713478088,-0.31809061765670776,-9.781010627746582
1745650302.3296475,0.14812232553958893,0.022117916494607925,-0.20390936732292175,0.8160821795463562,-0.5387887358665466,-10.174846649169922
1745650302.3657303,0.13631731271743774,0.029957491904497147,-0.20586276054382324,0.6721844673156738,-0.6333421468734741,-9.792600631713867
1745650302.3676581,0.10316978394985199,0.018154853954911232,-0.20842058956623077,0.8548320531845093,-0.7705758810043335,-9.4029541015625
1745650302.3695893,0.10262534767389297,0.016072407364845276,-0.20506128668785095,0.6489068865776062,-0.47896915674209595,-9.74608039855957
1745650302.3728366,0.08199074119329453,0.019871169701218605,-0.20471720397472382,0.6192124485969543,-0.5220119953155518,-10.009462356567383
1745650302.4090261,0.1152583584189415,0.02025652676820755,-0.20513884723186493,0.45070528984069824,-0.13067524135112762,-9.510575294494629
1745650302.413441,0.11448755115270615,0.02176300436258316,-0.20490209758281708,0.3708227872848511,-0.10187558084726334,-9.321706771850586
1745650302.4173641,0.12447510659694672,0.013516848906874657,-0.20936021208763123,0.5029494762420654,-0.06189630553126335,-9.801515579223633
1745650302.4207358,0.1564183235168457,0.022494608536362648,-0.2110455483198166,0.4844886362552643,-0.07043236494064331,-9.976715087890625
1745650302.4256139,0.13620564341545105,0.01645173504948616,-0.21710887551307678,0.6783238649368286,-0.3310841917991638,-9.748941421508789
1745650302.4526124,0.15759696066379547,0.009941615164279938,-0.21886932849884033,0.684909462928772,-0.44891971349716187,-9.5907564163208
1745650302.4559526,0.12072546780109406,0.00990834180265665,-0.21697787940502167,0.8862403035163879,-0.6727609634399414,-9.793615341186523
1745650302.4597473,0.11954110860824585,0.003354552434757352,-0.2189767062664032,0.8662428855895996,-0.5504668951034546,-9.919272422790527
1745650302.463182,0.08651340007781982,-0.0072838785126805305,-0.22699710726737976,0.4811691343784332,-0.2865782082080841,-9.915156364440918
1745650302.4968352,0.13044990599155426,-0.0029636763501912355,-0.2273668348789215,0.35074323415756226,-0.1099826842546463,-9.626813888549805
1745650302.497797,0.12377061694860458,-0.004977915436029434,-0.2312816083431244,0.49572595953941345,-0.17993488907814026,-9.524615287780762
1745650302.4992921,0.14033213257789612,-0.014372211880981922,-0.23076105117797852,0.5632947683334351,-0.3568848669528961,-9.699023246765137
1745650302.5016649,0.1428789496421814,-0.0039123124442994595,-0.23221226036548615,0.7053061723709106,-0.539971649646759,-9.87773323059082
1745650302.5365024,0.1236991286277771,-0.013900689780712128,-0.22764869034290314,0.7763603329658508,-0.6525233387947083,-9.741113662719727
1745650302.5383234,0.11267086118459702,-0.011686218902468681,-0.23071670532226562,0.6467345952987671,-0.8666898012161255,-9.720004081726074
1745650302.541249,0.09568426758050919,-0.016653040423989296,-0.22758106887340546,0.8598501086235046,-0.7062408328056335,-9.766714096069336
1745650302.5425467,0.08619161695241928,-0.022557346150279045,-0.22583088278770447,0.2506832480430603,-0.7476707696914673,-9.92542839050293
1745650302.5457962,0.06518985331058502,-0.009351113811135292,-0.21692685782909393,-0.31101545691490173,-0.921888530254364,-9.730525970458984
1745650302.5848844,0.07423839718103409,-0.015940506011247635,-0.19562149047851562,0.5903335213661194,-1.0234464406967163,-8.650530815124512
1745650302.5861347,0.023754745721817017,-0.049155429005622864,-0.18154504895210266,-0.061401236802339554,-0.2863713502883911,-10.449201583862305
1745650302.5906534,0.0337400957942009,-0.02860349416732788,-0.19878360629081726,-0.33739525079727173,-0.2004096955060959,-10.710773468017578
1745650302.5989301,-0.05777739733457565,-0.012950293719768524,0.07523456960916519,0.542854905128479,0.05842537805438042,-10.04096794128418
1745650302.6272192,-0.06742098927497864,-0.015954844653606415,0.07521983236074448,0.4628429412841797,-0.08882381021976471,-9.304479598999023
1745650302.62989,-0.07080946862697601,-0.021057097241282463,0.0767921581864357,0.41869863867759705,-0.3047497272491455,-9.522804260253906
1745650302.6328356,-0.08275184780359268,-0.009619669988751411,0.07925324887037277,0.5804712176322937,-0.4837368130683899,-10.213471412658691
1745650302.6356676,-0.09739921987056732,-0.014651204459369183,0.08487306535243988,0.47721976041793823,-0.6154532432556152,-10.183866500854492
1745650302.6372912,-0.1049317717552185,-0.004672500304877758,0.09222298860549927,0.2821500301361084,-0.5729371309280396,-9.445487976074219
1745650302.6675498,-0.1276794821023941,-0.008762390352785587,0.10155699402093887,0.6069483757019043,-0.7153741121292114,-9.339198112487793
1745650302.669491,-0.1216740608215332,-0.011749623343348503,0.11079076677560806,0.5289907455444336,-0.3231138586997986,-10.078034400939941
1745650302.67219,-0.13353316485881805,-0.005647676531225443,0.11094009876251221,0.5636194348335266,-0.5917178988456726,-10.434530258178711
1745650302.6753037,-0.12486735731363297,-0.004826084710657597,0.1195886954665184,0.34240564703941345,-0.2803027331829071,-9.667616844177246
1745650302.710477,-0.1405726671218872,-0.002181702060624957,0.12456180900335312,0.32448288798332214,-0.5571626424789429,-9.303544998168945
1745650302.7135556,-0.1531292051076889,-0.011782892048358917,0.13013781607151031,0.44873499870300293,-0.36955586075782776,-9.77646255493164
1745650302.716484,-0.1586095094680786,-0.0015312668401747942,0.13245081901550293,0.382394403219223,-0.43880873918533325,-10.365423202514648
1745650302.7204373,-0.16407176852226257,0.006530988961458206,0.1351681649684906,0.53650963306427,-0.2035658061504364,-9.759385108947754
1745650302.7539492,-0.16999085247516632,0.0017553928773850203,0.13773241639137268,0.4738076627254486,-0.1878528594970703,-9.253530502319336
1745650302.755299,-0.17799921333789825,-0.007072181906551123,0.14229151606559753,0.76295006275177,-0.25036805868148804,-9.794715881347656
1745650302.757479,-0.17073068022727966,-0.0016605043783783913,0.14335735142230988,0.6181851029396057,-0.008792409673333168,-10.492623329162598
1745650302.759097,-0.1657479703426361,0.013967184349894524,0.15217280387878418,0.3782303035259247,-0.26231738924980164,-10.009137153625488
1745650302.7613535,-0.15905427932739258,0.004792568273842335,0.1579703390598297,0.3683544993400574,0.026088714599609375,-9.010354042053223
1745650302.7975311,-0.1527978628873825,0.0024427480529993773,0.16262204945087433,0.41174212098121643,0.018581515178084373,-9.582345962524414
1745650302.8009324,-0.14463500678539276,0.0066828653216362,0.1659615933895111,0.540102481842041,0.12101010978221893,-10.453203201293945
1745650302.8058705,-0.1308235228061676,0.015245226211845875,0.16445916891098022,0.30911779403686523,0.08385873585939407,-10.078731536865234
1745650302.8093529,-0.1364651620388031,0.012396502308547497,0.16741639375686646,0.4461049437522888,-0.2767959237098694,-9.209243774414062
1745650302.8395905,-0.17147433757781982,0.011881877668201923,0.18435516953468323,0.6081975102424622,-0.3059297204017639,-10.086584091186523
1745650302.8412669,-0.17939533293247223,0.015592669136822224,0.19104038178920746,0.46506866812705994,-0.3782735764980316,-9.35133171081543
1745650302.8438141,-0.20661330223083496,0.007233429700136185,0.194209024310112,0.5724192261695862,-0.16373685002326965,-9.474408149719238
1745650302.848784,-0.1959868222475052,0.007239943835884333,0.1958751380443573,0.4185303747653961,-0.023857880383729935,-10.279399871826172
1745650302.8830094,-0.202980637550354,0.01707778126001358,0.19791412353515625,0.5426775217056274,-0.01885526068508625,-10.100461959838867
1745650302.8849475,-0.19321684539318085,0.009313710033893585,0.1993132382631302,0.35614556074142456,0.10107235610485077,-9.433526992797852
1745650302.8878813,-0.19442692399024963,0.007288658060133457,0.20529183745384216,0.4348287582397461,0.04819662868976593,-9.463245391845703
1745650302.8921301,-0.18950457870960236,0.005745159927755594,0.20911917090415955,0.47871342301368713,0.05157841369509697,-10.070249557495117
1745650302.894971,-0.17316454648971558,0.022098824381828308,0.21592576801776886,0.47685378789901733,0.06559484452009201,-9.946660041809082
1745650302.934039,-0.18309012055397034,0.01394570805132389,0.21701721847057343,0.6083550453186035,0.09688866138458252,-9.482429504394531
1745650302.934143,-0.16819146275520325,0.0058603291399776936,0.22162647545337677,0.49301987886428833,0.1229625940322876,-9.593803405761719
1745650302.9342055,-0.17977571487426758,0.012749293819069862,0.22407546639442444,0.6211368441581726,-0.0015631705755367875,-10.097527503967285
1745650302.9421628,-0.1742795705795288,0.016976187005639076,0.22808101773262024,0.39554348587989807,0.15365275740623474,-9.951597213745117
1745650302.9685266,-0.1594996452331543,-0.009113691747188568,0.3101171553134918,0.5689737200737,0.3862834870815277,-9.69636058807373
1745650302.9703064,-0.1586931049823761,-0.008337397128343582,0.3097541332244873,0.4764255881309509,0.6487024426460266,-10.018956184387207
1745650302.9713628,-0.1463119238615036,-0.007345020771026611,0.3093036413192749,0.4151250720024109,0.4772966802120209,-9.812345504760742
