timestamp,angular_vel_x,angular_vel_y,angular_vel_z,linear_acc_x,linear_acc_y,linear_acc_z
1745653629.2214804,0.0053669908083975315,0.0019668464083224535,-0.0044347248040139675,0.20399925112724304,-0.14440394937992096,-9.79125690460205
1745653629.229554,0.004898929037153721,0.0021806545555591583,-0.0034241005778312683,0.41322487592697144,-0.2353961169719696,-9.761239051818848
1745653629.2389133,0.003986590541899204,-0.001002590754069388,-0.0047766221687197685,0.2529006600379944,-0.123933807015419,-9.80676555633545
1745653629.2389798,0.004398635122925043,0.005635972134768963,-0.00429505156353116,0.3155395984649658,-0.2363027036190033,-9.793691635131836
1745653629.254576,0.0003368814068380743,-0.0020192989613860846,-0.0038713179528713226,0.3481939733028412,-0.1541401892900467,-9.750070571899414
1745653629.2546365,0.006417842116206884,0.0034057486336678267,-0.004589126445353031,0.21837648749351501,-0.16056469082832336,-9.810303688049316
1745653629.2549062,0.0010917306644842029,-0.0008619418367743492,-0.0039003416895866394,0.41429024934768677,-0.218662291765213,-9.745635986328125
1745653629.2593374,0.004188894294202328,0.0012853008229285479,-0.0040623582899570465,0.1980792135000229,-0.14501993358135223,-9.807394981384277
1745653629.2609327,0.004188804421573877,0.002679667668417096,-0.005608956329524517,0.3988986015319824,-0.22690454125404358,-9.741491317749023
1745653629.293368,0.0012863250449299812,-0.000602792133577168,-0.0024891782086342573,0.282090961933136,-0.12471344321966171,-9.787976264953613
1745653629.2954535,0.006415999494493008,0.004125499166548252,-0.0053194076754152775,0.28195542097091675,-0.2149777114391327,-9.8214693069458
1745653629.297492,0.0011364889796823263,-0.0018842518329620361,-0.0034197052009403706,0.3855147361755371,-0.18052136898040771,-9.733583450317383
1745653629.2983203,0.005746743176132441,0.0020255206618458033,-0.004896610975265503,0.20129995048046112,-0.16348731517791748,-9.797778129577637
1745653629.341208,0.0022201738320291042,-0.003116599516943097,-0.00336080533452332,0.40001019835472107,-0.1956651508808136,-9.750211715698242
1745653629.3413098,0.004636217840015888,0.0007202280103228986,-0.003650392172858119,0.20646938681602478,-0.13782313466072083,-9.83900260925293
1745653629.3456686,0.001637639245018363,-0.0005517226527445018,-0.0034731465857475996,0.43377527594566345,-0.24323716759681702,-9.73963737487793
1745653629.3465605,0.0034331022761762142,-0.0017263457411900163,-0.004778847098350525,0.2525790333747864,-0.12726423144340515,-9.764398574829102
1745653629.3782952,0.005020312964916229,0.0001930950238602236,-0.005458218976855278,0.3505186140537262,-0.23075823485851288,-9.785167694091797
1745653629.382284,-7.142192043829709e-05,-0.0023689691442996264,-0.0024116544518619776,0.32133612036705017,-0.16144222021102905,-9.806234359741211
1745653629.3837743,0.007182335015386343,0.0015255685430020094,-0.0037491624243557453,0.24340374767780304,-0.18474458158016205,-9.787471771240234
1745653629.3854253,-0.0007596036302857101,-0.0033163398038595915,-0.004036621190607548,0.42835259437561035,-0.22061984241008759,-9.7206449508667
1745653629.3875592,0.006244373973459005,-0.0004703847225755453,-0.004263793118298054,0.197370246052742,-0.14445993304252625,-9.813868522644043
1745653629.4325485,0.0012613160070031881,-2.793874591588974e-05,-0.004340711981058121,0.40313854813575745,-0.22278206050395966,-9.781537055969238
1745653629.4326437,0.0018725510453805327,-0.0036288159899413586,-0.003932117018848658,0.24906086921691895,-0.11860515177249908,-9.772550582885742
1745653629.4334598,0.003770595882087946,0.0015752011677250266,-0.0039480822160840034,0.3077455163002014,-0.23222792148590088,-9.743250846862793
1745653629.4335067,-0.0006498446455225348,-0.004944144282490015,-0.0036978472489863634,0.35961905121803284,-0.1590850055217743,-9.777552604675293
1745653629.466087,0.003503543557599187,0.0007643207209184766,-0.003719994332641363,0.21849970519542694,-0.17414775490760803,-9.82529067993164
1745653629.4678855,0.001598462462425232,-0.003674010979011655,-0.004126745276153088,0.42432713508605957,-0.21237990260124207,-9.721437454223633
1745653629.4697592,0.003384662326425314,-0.0017822741065174341,-0.003418500768020749,0.20029576122760773,-0.11352811008691788,-9.802010536193848
1745653629.4729896,0.0010968344286084175,-0.0014115797821432352,-0.003824880812317133,0.3784770369529724,-0.2384434938430786,-9.800424575805664
1745653629.4748518,0.0012062126770615578,-0.00183007400482893,-0.0019070286070927978,0.29153794050216675,-0.13765689730644226,-9.779911994934082
1745653629.5088112,0.00486006960272789,0.001763764419592917,-0.004745629616081715,0.28743404150009155,-0.20930638909339905,-9.75892448425293
1745653629.5103312,-0.0013759023277089,-0.006894836667925119,-0.0031952031422406435,0.3930817246437073,-0.16634149849414825,-9.749778747558594
1745653629.5127637,-0.0006483709439635277,-0.004303050227463245,-0.003572458866983652,0.36982816457748413,-0.17591047286987305,-9.78022575378418
1745653629.5149903,0.003315518144518137,0.0016902716597542167,-0.0024849604815244675,0.22717738151550293,-0.16415736079216003,-9.794726371765137
1745653629.5531845,-0.0006756733055226505,-0.0038205422461032867,-0.0023483652621507645,0.42461341619491577,-0.21626396477222443,-9.730897903442383
1745653629.5537512,0.002495591063052416,-0.003570262808352709,-0.0027439778205007315,0.19931404292583466,-0.13491392135620117,-9.810487747192383
1745653629.5614996,0.0015008000191301107,0.0008124494925141335,-0.004594932310283184,0.36436131596565247,-0.24627819657325745,-9.773604393005371
1745653629.5615544,-0.00047601605183444917,-0.005718539003282785,-0.004050911404192448,0.29342445731163025,-0.16050128638744354,-9.77910041809082
1745653629.5960171,0.0033887517638504505,0.0013251177733764052,-0.0016374628758057952,0.28418055176734924,-0.19697721302509308,-9.761128425598145
1745653629.602898,-0.0012331765610724688,-0.004136328585445881,-0.0017897896468639374,0.3850843906402588,-0.17753514647483826,-9.758537292480469
1745653629.6029537,0.00233096512965858,-0.0011171565856784582,-0.003401766996830702,0.19582490622997284,-0.14318570494651794,-9.843693733215332
1745653629.6088257,0.0021814447827637196,-0.0025548040866851807,-0.0025455974973738194,0.40717777609825134,-0.2379320114850998,-9.738393783569336
1745653629.608889,0.0010373045224696398,-0.00414208322763443,-0.0028768088668584824,0.21414200961589813,-0.11912725120782852,-9.775262832641602
1745653629.6420312,0.003859185380861163,0.0005748976254835725,-0.0025484038051217794,0.3434961438179016,-0.2249285876750946,-9.79102611541748
1745653629.662025,-0.00095240434166044,-0.0059425667859613895,-0.003278584685176611,0.31593066453933716,-0.16168411076068878,-9.796002388000488
1745653629.6620808,0.003719177795574069,0.0006727880099788308,-0.0029614793602377176,0.2378651350736618,-0.18999695777893066,-9.794299125671387
1745653629.6621463,-0.0007044298108667135,-0.0026842057704925537,-0.002778315916657448,0.40329599380493164,-0.20427072048187256,-9.739957809448242
1745653629.6815276,0.0028115971945226192,-0.0010863872012123466,-0.0014788059052079916,0.19462744891643524,-0.12603971362113953,-9.816160202026367
1745653629.6841784,0.0038837469182908535,0.0014405312249436975,-0.002232994418591261,0.20159415900707245,-0.1611757129430771,-9.77459716796875
1745653629.6881626,-0.00034505181247368455,-0.0027100243605673313,-0.003001532284542918,0.4265255033969879,-0.21082961559295654,-9.75950813293457
1745653629.6927583,0.0025450927205383778,-9.516999125480652e-05,-0.002824048511683941,0.20636670291423798,-0.11815297603607178,-9.81937026977539
1745653629.7244754,0.0019552342128008604,0.0006507019861601293,-0.0038807508535683155,0.3657248616218567,-0.2393220216035843,-9.754436492919922
1745653629.7287345,0.0008600422879680991,-0.005279168486595154,-0.0030626505613327026,0.3128785490989685,-0.13730517029762268,-9.763798713684082
1745653629.7367294,0.004247578326612711,0.0026470073498785496,-0.0037582875229418278,0.2673634886741638,-0.18963882327079773,-9.815560340881348
1745653629.736799,-0.0008606758201494813,-0.0029119274113327265,-0.0023657602723687887,0.39609652757644653,-0.1862003207206726,-9.756521224975586
1745653629.7669365,0.0025298702530562878,0.0009117582812905312,-0.002648653695359826,0.1734808385372162,-0.14949128031730652,-9.800336837768555
1745653629.7754877,0.0023233937099575996,-0.0006496175192296505,-0.0032509888987988234,0.4092923700809479,-0.23037424683570862,-9.75185489654541
1745653629.7767591,0.00043247375288046896,-0.0030953579116612673,-0.004737094044685364,0.23702482879161835,-0.10522441565990448,-9.807088851928711
1745653629.7768357,0.0036091923248022795,0.0029639857821166515,-0.0019528012489899993,0.32065486907958984,-0.21990461647510529,-9.782175064086914
1745653629.777326,-0.0003270336310379207,-0.005395705346018076,-0.00484830467030406,0.35316044092178345,-0.15721949934959412,-9.759847640991211
1745653629.8142424,0.003919140435755253,0.0025489400140941143,-0.0035415496677160263,0.20875009894371033,-0.17027534544467926,-9.806967735290527
1745653629.8143053,0.0010083394590765238,-0.0013508048141375184,-0.0026244744658470154,0.4072965085506439,-0.20980384945869446,-9.762349128723145
1745653629.8160753,0.0016837265575304627,5.992087608319707e-05,-0.002290773671120405,0.20459890365600586,-0.12344448268413544,-9.813314437866211
1745653629.8190513,0.004769382998347282,0.0011861303355544806,-0.0043120672926306725,0.38168320059776306,-0.21454870700836182,-9.755195617675781
1745653629.8532422,0.0012929941294714808,-0.0006844514282420278,-0.0029501861426979303,0.27453601360321045,-0.14510193467140198,-9.804004669189453
1745653629.859375,0.0050489166751503944,0.0014747270615771413,-0.0022136445622891188,0.2722151279449463,-0.19852806627750397,-9.78288459777832
1745653629.859707,-0.0008477108785882592,-0.0041224597953259945,-0.002338745631277561,0.3870564103126526,-0.18201053142547607,-9.7488374710083
1745653629.8613613,0.006809428334236145,0.0034151494037359953,-0.004256150219589472,0.21764127910137177,-0.16169965267181396,-9.812456130981445
1745653629.8977325,-0.0005700084730051458,-0.0005527297034859657,-0.0027116267010569572,0.4280121326446533,-0.22695975005626678,-9.738943099975586
1745653629.9000812,0.004807380028069019,-0.001230551046319306,-0.0016456709709018469,0.20860037207603455,-0.13019096851348877,-9.797632217407227
1745653629.9015005,0.002319102641195059,0.0015650599962100387,-0.0029170550405979156,0.3796538710594177,-0.241013765335083,-9.788435935974121
1745653629.902803,0.0012656059116125107,-0.0037048174999654293,-0.0025671380572021008,0.29615113139152527,-0.14247290790081024,-9.777597427368164
1745653629.941902,0.005604603793472052,0.002035641111433506,-0.00431146752089262,0.26505541801452637,-0.20562748610973358,-9.789143562316895
1745653629.9419796,-0.00021459502750076354,-0.0035170777700841427,-0.002747374353930354,0.3914101719856262,-0.18570476770401,-9.746294975280762
1745653629.9907942,0.00489687267690897,0.00036778082721866667,-0.004018424544483423,0.1901882290840149,-0.15280357003211975,-9.82216739654541
1745653629.9909258,0.0019564710091799498,0.0004333776014391333,-0.00338713894598186,0.4182228147983551,-0.24850335717201233,-9.755406379699707
1745653629.991083,0.0028423129115253687,-0.0027841937262564898,-0.0019541033543646336,0.24031105637550354,-0.12975190579891205,-9.801501274108887
1745653629.991194,0.004577250219881535,0.0030120103619992733,-0.004544954746961594,0.32170021533966064,-0.21508502960205078,-9.783109664916992
1745653629.9912598,0.0007483512745238841,-0.0031925407238304615,-0.003188637550920248,0.34858018159866333,-0.16428330540657043,-9.771955490112305
1745653629.9913046,0.004549690522253513,0.003530430141836405,-0.0028168007265776396,0.22594936192035675,-0.1585424244403839,-9.794530868530273
1745653629.9913497,0.0009523989865556359,-0.001896534813567996,-0.003126914147287607,0.39938846230506897,-0.20610785484313965,-9.748519897460938
1745653630.0251389,0.001575693255290389,3.0393992346944287e-05,-0.004900629632174969,0.19741269946098328,-0.1326133906841278,-9.837902069091797
1745653630.026679,0.004776939749717712,0.0009706353885121644,-0.0007749340147711337,0.3977159857749939,-0.2295655757188797,-9.756457328796387
1745653630.0294795,0.0004497082845773548,-0.0018455029930919409,-0.00334594352170825,0.33796441555023193,-0.1744987964630127,-9.765642166137695
1745653630.0308244,0.005037081427872181,0.0007616236689500511,-0.0036586523056030273,0.24291884899139404,-0.15656808018684387,-9.775178909301758
1745653630.0756674,0.0004009069816675037,-0.0009508967632427812,-0.0013774374965578318,0.41981133818626404,-0.19872108101844788,-9.763742446899414
1745653630.0757492,0.0018628243124112487,-2.9641762012033723e-05,-0.00326271029189229,0.20660290122032166,-0.15034306049346924,-9.829299926757812
1745653630.077005,0.002844635397195816,0.0004488765262067318,-0.0038593714125454426,0.38425296545028687,-0.23149311542510986,-9.764272689819336
1745653630.0792084,0.0010260434355586767,-0.0035245101898908615,-0.002668314380571246,0.25687023997306824,-0.14033553004264832,-9.778299331665039
1745653630.0811226,0.0036943077575415373,0.002398817101493478,-0.004393544979393482,0.2788475751876831,-0.197407066822052,-9.779680252075195
1745653630.1147583,-0.0017374660819768906,-0.002836742205545306,-0.004491735715419054,0.3854829668998718,-0.18553785979747772,-9.782793045043945
1745653630.115427,0.006680385209619999,0.0023854845203459263,-0.0027121107559651136,0.19241797924041748,-0.16321523487567902,-9.803792953491211
1745653630.1277807,-8.592872472945601e-05,0.0002495005028322339,-0.0036302078515291214,0.41622456908226013,-0.23483113944530487,-9.72999095916748
1745653630.1282513,0.003756728721782565,-0.0018649466801434755,-0.002603301778435707,0.21603035926818848,-0.12112412601709366,-9.817204475402832
1745653630.1687849,0.003420985536649823,0.004812147002667189,-0.003454744815826416,0.35402464866638184,-0.23548440635204315,-9.783897399902344
1745653630.1689653,0.00018829060718417168,-0.004330168012529612,-0.0031148374546319246,0.3158533573150635,-0.15514865517616272,-9.755078315734863
1745653630.169049,0.004889117553830147,0.0029555615037679672,-0.003865092294290662,0.2582453787326813,-0.17482838034629822,-9.790063858032227
1745653630.1691191,-0.0012367099989205599,-0.0012912508100271225,-0.002912033349275589,0.4099985957145691,-0.19994421303272247,-9.76350212097168
1745653630.1986492,0.004102709237486124,0.000879451516084373,-0.0032877735793590546,0.1902286559343338,-0.12556225061416626,-9.814943313598633
1745653630.202805,0.002315943129360676,0.00015791463374625891,-0.0017273988341912627,0.4001096785068512,-0.2324957400560379,-9.742212295532227
1745653630.204655,0.0020231748931109905,-0.0020260277669876814,-0.005967393983155489,0.24713373184204102,-0.1292913407087326,-9.78122329711914
1745653630.205242,0.004125774372369051,0.0008673198753967881,-0.0026837908662855625,0.3114470839500427,-0.21023666858673096,-9.784368515014648
1745653630.2094636,-0.0010839670430868864,-0.0024278059136122465,-0.0023191464133560658,0.3604224920272827,-0.16793081164360046,-9.774940490722656
1745653630.246499,0.0036632302217185497,0.002534883562475443,-0.002906887326389551,0.33727556467056274,-0.23037803173065186,-9.762903213500977
1745653630.246567,0.00017106557788792998,-0.004233569372445345,-0.003354576649144292,0.35928985476493835,-0.1520376205444336,-9.753031730651855
1745653630.2478979,0.0034714718349277973,0.0016271218191832304,-0.0035644439049065113,0.23919892311096191,-0.17949573695659637,-9.822164535522461
1745653630.2479563,0.0003277823852840811,-0.0013739995192736387,-0.0017909191083163023,0.4083893299102783,-0.21238842606544495,-9.76399040222168
1745653630.2886117,0.002596484962850809,-0.0018016062676906586,-0.001840680604800582,0.19193574786186218,-0.12345294654369354,-9.786138534545898
1745653630.288719,0.0033977534621953964,0.0010874883737415075,-0.003391487989574671,0.39740461111068726,-0.22808638215065002,-9.745672225952148
1745653630.2919698,0.00034168080310337245,-0.003339027985930443,-0.0039336648769676685,0.28418946266174316,-0.1348455250263214,-9.811450958251953
1745653630.2920852,0.0037879322189837694,0.0033607531804591417,-0.003102580551058054,0.28195858001708984,-0.20711521804332733,-9.778855323791504
1745653630.3307748,0.0006697421777062118,-0.004860975779592991,-0.0026611455250531435,0.38321608304977417,-0.18716661632061005,-9.751728057861328
1745653630.3324184,0.003448366653174162,0.0017310557886958122,-0.004004445392638445,0.20437292754650116,-0.14437705278396606,-9.807744979858398
1745653630.3348026,0.0007502286462113261,-0.002322790678590536,-0.004022121429443359,0.43331700563430786,-0.23207850754261017,-9.775655746459961
1745653630.3377688,0.0017982285935431719,-0.0006033164099790156,-0.002294601174071431,0.21251749992370605,-0.12596869468688965,-9.791234970092773
1745653630.3383567,0.004395625554025173,0.0006163152283988893,-0.0017530604964122176,0.36573314666748047,-0.23380136489868164,-9.742218017578125
1745653630.3709145,-0.002138296142220497,-0.003557192627340555,-0.004022373352199793,0.3165348470211029,-0.15167361497879028,-9.77822208404541
1745653630.372622,0.005531358532607555,0.0012219974305480719,-0.003289212938398123,0.24246151745319366,-0.1753881722688675,-9.825315475463867
1745653630.3776004,0.0033769779838621616,-0.0005493480712175369,-0.003384991316124797,0.21005049347877502,-0.1616946905851364,-9.81980037689209
1745653630.4120958,-0.0013419033493846655,-0.0018601991469040513,-0.0018005531746894121,0.41221189498901367,-0.21050961315631866,-9.772923469543457
1745653630.4146953,0.0031226505525410175,-0.004116547293961048,-0.004630593117326498,0.20668835937976837,-0.12234185636043549,-9.794243812561035
1745653630.4162822,-0.000502166454680264,0.0008584957686252892,-0.0016166962450370193,0.37804538011550903,-0.21897204220294952,-9.776863098144531
1745653630.4229598,-0.0005306020611897111,-0.00515187531709671,-0.0021522361785173416,0.28362101316452026,-0.13339506089687347,-9.786796569824219
1745653630.4298005,0.0041847266256809235,0.0011960293632000685,-0.0021191262640058994,0.2800937294960022,-0.19665154814720154,-9.797945976257324
1745653630.4857452,-0.0019253448117524385,-0.004198291338980198,-0.00321548362262547,0.4004198908805847,-0.18400630354881287,-9.741299629211426
1745653630.4858263,0.005223392508924007,-0.0022256658412516117,-0.0022790096700191498,0.1939423382282257,-0.1402219533920288,-9.807066917419434
1745653630.4863393,-0.0009113314445130527,-0.0021061517763882875,-0.0014277599984779954,0.4175899624824524,-0.22273656725883484,-9.760978698730469
1745653630.4863913,0.0020078099332749844,-0.003384553361684084,-0.0014672842808067799,0.23241710662841797,-0.10872393846511841,-9.81764030456543
1745653630.499464,0.002490774029865861,0.0005681276088580489,-0.0017030593007802963,0.35029929876327515,-0.2345743179321289,-9.73707103729248
1745653630.501512,-0.0031245755963027477,-0.006394200026988983,-0.0032664581667631865,0.3260570764541626,-0.15498735010623932,-9.760648727416992
1745653630.5048532,0.0046185581013560295,0.0017825228860601783,-0.002622507978230715,0.22777271270751953,-0.17514179646968842,-9.820691108703613
1745653630.5077038,-0.0015918898861855268,-0.005955248139798641,-0.0007207397720776498,0.413327157497406,-0.20267195999622345,-9.755122184753418
1745653630.5115523,0.003962400369346142,-0.0006072212709113955,-0.003725428134202957,0.1920032501220703,-0.1326320469379425,-9.793302536010742
1745653630.5434968,-0.0010505272075533867,-0.0006757400697097182,-0.0015564551576972008,0.3917974829673767,-0.24384677410125732,-9.764693260192871
1745653630.547144,-0.0005854611517861485,-0.004193131811916828,-0.0011223567416891456,0.24709205329418182,-0.12697187066078186,-9.801346778869629
1745653630.5522668,0.003019871888682246,0.0024096809793263674,-0.003404662013053894,0.31044894456863403,-0.21010763943195343,-9.77592945098877
1745653630.5527785,-0.0009981939801946282,-0.006467959377914667,-0.0037300772964954376,0.37559324502944946,-0.156343013048172,-9.761338233947754
1745653630.587678,0.004929221235215664,-0.00017199621652252972,-0.002516859909519553,0.2213827669620514,-0.1767197549343109,-9.80478286743164
1745653630.5885575,0.0013667888706550002,-0.005460144020617008,-0.002638676669448614,0.3243404030799866,-0.13323450088500977,-9.780491828918457
1745653630.6056206,0.003187782596796751,0.0019986992701888084,-0.0033040016423910856,0.24072536826133728,-0.17955176532268524,-9.80158519744873
1745653630.6056771,-0.0005106200114823878,-0.0033228483516722918,-0.0026027336716651917,0.4084490239620209,-0.18402376770973206,-9.750858306884766
1745653630.637276,0.003375064581632614,0.00020371834398247302,-0.0039070830680429935,0.18981418013572693,-0.1285380870103836,-9.818502426147461
1745653630.637388,0.002549427794292569,-0.0008610149961896241,-0.0030646719969809055,0.3967808187007904,-0.2407035380601883,-9.745660781860352
1745653630.637453,0.000414733454817906,-0.0023828342091292143,-0.004188480321317911,0.250704824924469,-0.11031107604503632,-9.777522087097168
1745653630.637499,0.00357224908657372,0.001916874898597598,-0.0017690103268250823,0.3127477169036865,-0.21493081748485565,-9.798345565795898
1745653630.6726954,0.0017377795884385705,-0.005453606601804495,-0.003403411479666829,0.3657267987728119,-0.17521917819976807,-9.757085800170898
1745653630.6775253,0.003953137900680304,0.0006099563906900585,-0.004219182766973972,0.21811015903949738,-0.1605515033006668,-9.806824684143066
1745653630.6778107,-0.0018302432727068663,-0.0027930373325943947,-0.003632061183452606,0.41677817702293396,-0.2070523053407669,-9.764249801635742
1745653630.680587,0.004284887108951807,-0.0024122088216245174,-0.003276995848864317,0.19598503410816193,-0.12539219856262207,-9.814342498779297
1745653630.6855614,0.001460363855585456,0.0017060425598174334,-0.005010530352592468,0.37157565355300903,-0.2154940664768219,-9.7652006149292
1745653630.7160666,0.00142036157194525,-0.0038933332543820143,-0.0025757525581866503,0.2953298091888428,-0.13568103313446045,-9.775947570800781
1745653630.7175467,0.0057908049784600735,0.0014045726275071502,-0.0025489467661827803,0.279845654964447,-0.21195662021636963,-9.801177024841309
1745653630.7195327,-0.0021640148479491472,-0.003368730191141367,-0.004178310744464397,0.38195595145225525,-0.1855963170528412,-9.769939422607422
1745653630.723518,0.005435972940176725,0.0007001670892350376,-0.003149522002786398,0.20613627135753632,-0.16510173678398132,-9.808354377746582
1745653630.7610474,0.0019156455527991056,-0.00011167423508595675,-0.004291988909244537,0.40040650963783264,-0.22402086853981018,-9.749521255493164
1745653630.7611556,0.0023422297090291977,-0.0017346034292131662,-0.003754963632673025,0.23628470301628113,-0.11182484775781631,-9.81013011932373
1745653630.7628334,0.006668079644441605,0.0039789252914488316,-0.004452650435268879,0.30544424057006836,-0.21311049163341522,-9.77470874786377
1745653630.76595,0.001257050666026771,-0.0013147119898349047,-0.002269445452839136,0.3438408672809601,-0.16896212100982666,-9.76726245880127
1745653630.7994914,0.005306773819029331,0.001828360604122281,-0.0035789578687399626,0.21788986027240753,-0.17831401526927948,-9.813143730163574
1745653630.800315,0.0025994451716542244,-4.0753442590357736e-05,-0.004157532937824726,0.4028000235557556,-0.20208898186683655,-9.739521980285645
1745653630.803531,0.004636093974113464,-0.0009589431574568152,-0.004579751752316952,0.18806472420692444,-0.12718388438224792,-9.804351806640625
1745653630.8059916,0.004477818962186575,0.0014063952257856727,-0.0033096778206527233,0.382112979888916,-0.24416489899158478,-9.769845962524414
1745653630.8082855,0.0028795995749533176,-0.0018200123449787498,-0.0028196226339787245,0.25762510299682617,-0.11043596267700195,-9.78795337677002
1745653630.9510896,0.005600331351161003,0.003160532098263502,-0.004377277102321386,0.29390230774879456,-0.21177026629447937,-9.80346393585205
1745653630.951206,0.0011050943285226822,-0.0020063589327037334,-0.0032135602086782455,0.36956194043159485,-0.18389280140399933,-9.759834289550781
1745653630.9512599,0.006123118102550507,0.0022303902078419924,-0.004503181669861078,0.194863423705101,-0.15285752713680267,-9.798463821411133
1745653630.952604,0.004077385179698467,6.425262108677998e-05,-0.005177310202270746,0.41380947828292847,-0.2260875701904297,-9.751260757446289
1745653630.9657466,0.004374438431113958,-0.0019089411944150925,-0.004961253143846989,0.20715558528900146,-0.125483438372612,-9.819503784179688
1745653630.9719825,0.004217023029923439,0.003432365832850337,-0.003773709759116173,0.35695481300354004,-0.2237231284379959,-9.76698112487793
1745653630.9726586,0.002275279723107815,-0.0021317817736417055,-0.0036440237890928984,0.2980000078678131,-0.14196807146072388,-9.750320434570312
1745653630.9854915,0.007101965602487326,0.0036186117213219404,-0.005300587043166161,0.2271917313337326,-0.2079770565032959,-9.79482650756836
1745653631.0071986,0.000730617786757648,-0.0029798876494169235,-0.004001080058515072,0.397047221660614,-0.20051388442516327,-9.769423484802246
1745653631.0253594,0.007051039487123489,0.0009510880336165428,-0.003992555197328329,0.20068082213401794,-0.12899930775165558,-9.808868408203125
1745653631.0265796,0.003580935997888446,0.002501447917893529,-0.005385115277022123,0.40725699067115784,-0.23564691841602325,-9.759198188781738
1745653631.029968,0.004102793522179127,-0.0022397052962332964,-0.003825698047876358,0.2286974936723709,-0.12610676884651184,-9.810074806213379
1745653631.0367947,0.008846107870340347,0.0022816210985183716,-0.003575967624783516,0.19966952502727509,-0.14879389107227325,-9.81611156463623
1745653631.0429678,0.002750827232375741,0.002107850043103099,-0.003678038250654936,0.42399412393569946,-0.2169961929321289,-9.749302864074707
1745653631.0544045,0.0048209126107394695,-0.0012281283270567656,-0.005402622744441032,0.20213782787322998,-0.12867920100688934,-9.814798355102539
1745653631.0559385,0.005949869751930237,0.003240830497816205,-0.004405640065670013,0.3653610944747925,-0.23773567378520966,-9.756998062133789
1745653631.0566082,0.003566306782886386,-0.0015170733677223325,-0.004607985727488995,0.31283503770828247,-0.15039551258087158,-9.775372505187988
1745653631.0574167,0.006742955185472965,0.0027002491988241673,-0.002957424847409129,0.24754031002521515,-0.18859568238258362,-9.804838180541992
1745653631.088193,0.002067399676889181,-0.0009964226046577096,-0.0035108570009469986,0.40639668703079224,-0.19302335381507874,-9.751190185546875
1745653631.0896506,0.005216010846197605,0.0009804927976801991,-0.003822608618065715,0.19948364794254303,-0.14841854572296143,-9.792548179626465
1745653631.0897117,0.0032859700731933117,0.0003169631527271122,-0.0048094140365719795,0.4234638810157776,-0.23053129017353058,-9.752167701721191
1745653631.0897393,0.0033323231618851423,5.07524237036705e-05,-0.004252051934599876,0.23763756453990936,-0.1297270506620407,-9.809823036193848
1745653631.0962625,0.0069405934773385525,0.003439542604610324,-0.005654772277921438,0.32397302985191345,-0.20481741428375244,-9.780496597290039
1745653631.1091263,0.0015843749279156327,-0.0025621529202908278,-0.002489567967131734,0.338925838470459,-0.1646271049976349,-9.753908157348633
1745653631.110269,0.007151229772716761,0.003530446905642748,-0.00322582945227623,0.2314411699771881,-0.18312735855579376,-9.806772232055664
1745653631.1242764,0.003124724142253399,-0.0010233221109956503,-0.005667032673954964,0.4268217980861664,-0.2240879237651825,-9.777952194213867
1745653631.1260376,0.006919110659509897,0.00046681432286277413,-0.00315089151263237,0.20477516949176788,-0.13263769447803497,-9.798351287841797
1745653631.127524,0.00374021683819592,0.0010250533232465386,-0.002028262708336115,0.3509221076965332,-0.22482755780220032,-9.759279251098633
1745653631.1441207,0.000684910046402365,-0.0038856889586895704,-0.003458994207903743,0.32876747846603394,-0.17431071400642395,-9.7763671875
1745653631.1442258,0.00551876425743103,0.0015218795742839575,-0.002805277705192566,0.2243281602859497,-0.18614709377288818,-9.831830978393555
1745653631.1499941,0.0013630746398121119,-0.0021092083770781755,-0.00452723354101181,0.4061015248298645,-0.21433193981647491,-9.747811317443848
1745653631.1600366,0.0034491445403546095,-0.0014577263500541449,-0.0026300307363271713,0.21263568103313446,-0.12256715446710587,-9.791494369506836
1745653631.1624043,0.0020256973803043365,-0.0013338718563318253,-0.003253130242228508,0.40699759125709534,-0.23767909407615662,-9.767265319824219
1745653631.165622,0.0018537413561716676,-0.003234709380194545,-0.003682909067720175,0.27387216687202454,-0.15055891871452332,-9.808592796325684
1745653631.1774116,0.003679659217596054,0.002034618519246578,-0.00352066894993186,0.28135448694229126,-0.2142297923564911,-9.776237487792969
1745653631.191285,0.0003896449343301356,-0.005569871980696917,-0.0033167232759296894,0.3875613808631897,-0.18437065184116364,-9.737104415893555
1745653631.1925862,0.0044285994954407215,0.0008008872391656041,-0.003427696879953146,0.1989838182926178,-0.170548677444458,-9.831411361694336
1745653631.1973372,0.0015672348672524095,-0.0018668153788894415,-0.0019169005099684,0.4360533356666565,-0.22836630046367645,-9.766386032104492
1745653631.2069497,0.002506242599338293,-0.0028046900406479836,-0.00411438662558794,0.2091926634311676,-0.13558048009872437,-9.796346664428711
1745653631.231435,0.002767835045233369,0.0011855218326672912,-0.002515024272724986,0.3479619026184082,-0.24194583296775818,-9.748540878295898
1745653631.235484,-0.000732427288312465,-0.005532341543585062,-0.002333874348551035,0.31221678853034973,-0.15023306012153625,-9.799245834350586
1745653631.2473497,0.004469756036996841,0.0018278693314641714,-0.003711532801389694,0.25347667932510376,-0.192655548453331,-9.80313491821289
1745653631.249287,-0.00027100631268694997,-0.0026298710145056248,-0.0037389372009783983,0.3950350880622864,-0.21438829600811005,-9.746082305908203
1745653631.2926683,0.0033000968396663666,-0.0007859685574658215,-0.0031515390146523714,0.19071166217327118,-0.1395665556192398,-9.805620193481445
1745653631.2927804,0.0020497713703662157,-0.0015918121207505465,-0.0025702337734401226,0.412417471408844,-0.236036017537117,-9.760749816894531
1745653631.2931323,0.0015104515478014946,-0.003920205868780613,-0.002633135300129652,0.2416669875383377,-0.13859938085079193,-9.816123962402344
1745653631.293835,0.002970556728541851,0.0012067774077877402,-0.0026215803809463978,0.31988421082496643,-0.22483381628990173,-9.771349906921387
1745653631.3298361,0.00042269332334399223,-0.00377976568415761,-0.0038061407394707203,0.23368868231773376,-0.1394362598657608,-9.8015718460083
1745653631.3577313,0.0030820188112556934,0.0009530324605293572,-0.001652146689593792,0.31235364079475403,-0.2233005315065384,-9.776514053344727
1745653631.360696,-0.0001192027484648861,-0.004440998658537865,-0.001744267763569951,0.3573658764362335,-0.1813410371541977,-9.778435707092285
1745653631.3619418,0.0050480240024626255,0.0006421752623282373,-0.0038725316990166903,0.2235701084136963,-0.165950208902359,-9.79246997833252
1745653631.3623412,0.0004196339868940413,-0.0033317648340016603,-0.0028774160891771317,0.43022146821022034,-0.22285056114196777,-9.742024421691895
1745653631.4187355,0.002681384328752756,-0.0013035949086770415,-0.0024450409691780806,0.1795060932636261,-0.14025989174842834,-9.82141399383545
1745653631.4189332,0.0020934054628014565,0.000812527141533792,-0.003185281530022621,0.3596956133842468,-0.2324574738740921,-9.770047187805176
1745653631.4190576,-0.0002196214918512851,-0.0052552721463143826,-0.0021164154168218374,0.2916634678840637,-0.14258475601673126,-9.792329788208008
1745653631.4191332,0.004707750398665667,0.0020396418403834105,-0.0035972155164927244,0.26443254947662354,-0.198197141289711,-9.785623550415039
1745653631.4538,-0.0011781109496951103,-0.004407892934978008,-0.0029107523150742054,0.3920018970966339,-0.21024782955646515,-9.767960548400879
1745653631.4539363,0.0037044708151370287,-0.0017073281342163682,-0.0032610532362014055,0.18006594479084015,-0.15569089353084564,-9.80889892578125
1745653631.4540622,-0.0007296028779819608,-0.0019061684142798185,-0.003079629736021161,0.4141972064971924,-0.23941120505332947,-9.732545852661133
1745653631.4541748,0.0010698491241782904,-0.0028724519070237875,-0.0016208322485908866,0.24348104000091553,-0.1199224591255188,-9.808832168579102
1745653631.4542413,0.0045173028483986855,0.0022420543245971203,-0.004084552172571421,0.30834800004959106,-0.21606750786304474,-9.78526782989502
1745653631.4542947,-0.002332060132175684,-0.005204908549785614,-0.002476960187777877,0.3419284224510193,-0.1726083755493164,-9.779050827026367
1745653631.4543552,-0.00017074841889552772,-0.0014025879791006446,-0.001420366344973445,0.4281318187713623,-0.2290850430727005,-9.735862731933594
1745653631.4569237,0.003389666322618723,-0.000736153800971806,-0.004574690014123917,0.19298797845840454,-0.12357974052429199,-9.832403182983398
1745653631.5484555,0.0020932359620928764,0.003548976732417941,-0.002656910102814436,0.37190982699394226,-0.24150225520133972,-9.782235145568848
1745653631.550346,-0.0010443280916661024,-0.0035443915985524654,-0.003077883506193757,0.30003049969673157,-0.161775141954422,-9.786581039428711
1745653631.5504978,0.005020575597882271,0.003940352238714695,-0.0030363094992935658,0.22815847396850586,-0.18126772344112396,-9.78373908996582
1745653631.5506127,-0.0006349497707560658,-0.0028592238668352365,-0.003996317274868488,0.41737183928489685,-0.21804575622081757,-9.774425506591797
1745653631.5507243,0.0038363325875252485,0.001729992451146245,-0.001532060676254332,0.203872948884964,-0.12953907251358032,-9.824121475219727
1745653631.5507774,0.00212479243054986,-0.0016671126941218972,-0.0033549838699400425,0.41139310598373413,-0.2176513373851776,-9.735658645629883
1745653631.5508273,-0.00022657909721601754,-0.0022563645616173744,-0.0019810511730611324,0.23923476040363312,-0.14892783761024475,-9.78288459777832
1745653631.550885,0.004366264678537846,0.0019365077605471015,-0.005138392094522715,0.29489514231681824,-0.20199421048164368,-9.784165382385254
1745653631.550925,-0.0022050661500543356,-0.00399040849879384,-0.0024534009862691164,0.3429267108440399,-0.17247039079666138,-9.778793334960938
1745653631.603416,0.0038847129326313734,0.0030701688956469297,-0.0016247692983597517,0.2157532423734665,-0.17141489684581757,-9.800727844238281
1745653631.603564,0.0013784028124064207,-0.002134102862328291,-0.0021055361721664667,0.4240882992744446,-0.21054723858833313,-9.734777450561523
1745653631.6086156,0.001336913788691163,-0.0021089971996843815,-0.003568532643839717,0.2028191089630127,-0.13816088438034058,-9.820157051086426
1745653631.6095505,0.0020103580318391323,0.0028671897016465664,-0.0030579997692257166,0.3600451350212097,-0.23351137340068817,-9.758152961730957
1745653631.6096294,0.0005382462404668331,-0.0036002006381750107,-0.0023987821768969297,0.29232874512672424,-0.14836911857128143,-9.763222694396973
1745653631.6229317,0.0030723982490599155,0.0012198437470942736,-0.0027813375927507877,0.25209516286849976,-0.18557459115982056,-9.78687858581543
1745653631.623006,-0.001217117765918374,-0.0022930640261620283,-0.003574163420125842,0.4211730360984802,-0.22005638480186462,-9.770328521728516
1745653631.6230507,0.002923708176240325,0.0009929529624059796,-0.002642125589773059,0.1791505515575409,-0.1375853717327118,-9.821232795715332
1745653631.6247466,0.00014024219126440585,0.0003504975757095963,-0.00333690014667809,0.3974369168281555,-0.22314684092998505,-9.731781005859375
1745653631.664972,0.0004733581154141575,0.00011797815386671573,-0.0020890063606202602,0.40810856223106384,-0.243279367685318,-9.746925354003906
1745653631.6973069,0.0008373961900360882,-0.0028732737991958857,-0.002723471261560917,0.2672858238220215,-0.11914859712123871,-9.781045913696289
1745653631.7018306,0.002333667129278183,0.0033690675627440214,-0.0028159813955426216,0.2879807949066162,-0.1950281858444214,-9.773850440979004
1745653631.7019181,-0.002341231796890497,-0.005201493855565786,-0.0024625982623547316,0.3527415692806244,-0.19798380136489868,-9.78651237487793
1745653631.7099454,0.002728897612541914,0.0005028633750043809,-0.002147944876924157,0.20747414231300354,-0.14269110560417175,-9.804361343383789
1745653631.7111025,-0.0008206343045458198,-0.001903899246826768,-0.002401538658887148,0.4300003945827484,-0.23659661412239075,-9.711836814880371
1745653631.7114697,0.0014982211869210005,-0.0020349936094135046,-0.0032418272458016872,0.21400170028209686,-0.1439872533082962,-9.810445785522461
1745653631.7150867,0.00012648529082071036,0.0014729456743225455,-0.0016207483131438494,0.3586777150630951,-0.21384930610656738,-9.786331176757812
1745653631.7475848,-0.0024503679014742374,-0.003910834435373545,-0.0035191630013287067,0.3139027953147888,-0.1461407095193863,-9.765154838562012
1745653631.7596252,0.0037610381841659546,0.0015134604182094336,-0.0018614617874845862,0.23899340629577637,-0.18324021995067596,-9.77568531036377
1745653631.7615209,-0.0008411495946347713,-0.0022274700459092855,-0.0034590917639434338,0.43402451276779175,-0.18349166214466095,-9.771196365356445
1745653631.7615862,0.0005476350197568536,-0.0020840533543378115,-0.0014106103917583823,0.18359826505184174,-0.1475256383419037,-9.829789161682129
1745653631.7616248,0.000803570554126054,-0.00020219404541421682,-0.0037885289639234543,0.41234737634658813,-0.23534592986106873,-9.724214553833008
1745653631.8065038,-0.0010908239055424929,-0.0034582086373120546,-0.0027974662370979786,0.24794046580791473,-0.13722965121269226,-9.77761173248291
1745653631.806633,0.0033116787672042847,0.0010952390730381012,-0.003476204816251993,0.308631956577301,-0.2250431478023529,-9.786150932312012
1745653631.8066752,-0.002678935881704092,-0.005796435289084911,-0.0017564300214871764,0.37449076771736145,-0.1639246791601181,-9.781428337097168
1745653631.806744,0.0013534605968743563,0.0011318156030029058,-0.0025247468147426844,0.2033768594264984,-0.14320719242095947,-9.805148124694824
1745653631.8337612,9.719086665427312e-05,-0.001383556635119021,-0.002595252823084593,0.4258425235748291,-0.22472429275512695,-9.737146377563477
1745653631.8371847,0.0037523433566093445,-0.0032669720239937305,-0.003070490201935172,0.19561035931110382,-0.12059751898050308,-9.82498836517334
1745653631.839989,0.0018299393123015761,-0.0001410306867910549,-0.003352778498083353,0.36531907320022583,-0.23425152897834778,-9.760406494140625
1745653631.8474016,-0.0009461495792493224,-0.004783937241882086,-0.0012367491144686937,0.31010323762893677,-0.13448935747146606,-9.778814315795898
1745653631.8782325,0.004762973170727491,0.0038923316169530153,-0.0033308472484350204,0.26918911933898926,-0.18100380897521973,-9.791251182556152
1745653631.8816946,-0.001407301751896739,-0.002546824049204588,-0.0008295754669234157,0.41159787774086,-0.19335712492465973,-9.76768970489502
1745653631.887291,0.003172417636960745,-0.00022263573191594332,-0.002798351924866438,0.18596099317073822,-0.1416538953781128,-9.818577766418457
1745653631.8886187,0.00016012157720979303,0.0011631373781710863,-0.004070321097970009,0.41584858298301697,-0.24560682475566864,-9.748994827270508
1745653631.8927658,3.167921749991365e-05,-0.00476126279681921,-0.002446150640025735,0.2337888777256012,-0.11606872081756592,-9.795517921447754
1745653631.9191675,0.004982421640306711,0.0026450171135365963,-0.0031685822177678347,0.3062654733657837,-0.20043396949768066,-9.7829008102417
1745653631.9287884,-0.0013572308234870434,-0.002821744419634342,-0.001541453180834651,0.34253841638565063,-0.18254511058330536,-9.782615661621094
1745653631.9291027,0.00514744408428669,0.0031194468028843403,-0.004474506247788668,0.208783358335495,-0.1526530683040619,-9.782443046569824
1745653631.9292102,-0.0004550083540380001,-0.004490516148507595,-0.00313374912366271,0.42800045013427734,-0.21878854930400848,-9.750993728637695
1745653631.9713068,0.0029884884133934975,-0.0012363273417577147,-0.0020907109137624502,0.1907084882259369,-0.12084434181451797,-9.836347579956055
1745653631.9714575,0.003864538623020053,0.0022568199783563614,-0.0028007724322378635,0.3689102530479431,-0.2208881825208664,-9.738306999206543
1745653631.971675,0.0012951443204656243,-0.0030708773992955685,-0.0026322242338210344,0.28391319513320923,-0.1497957706451416,-9.772558212280273
1745653631.9746463,0.004004857037216425,0.002632829127833247,-0.004091521259397268,0.2722063660621643,-0.18342968821525574,-9.808772087097168
1745653631.9779968,-0.00032172599458135664,-0.0024949433282017708,-0.0024663705844432116,0.3866279125213623,-0.17916283011436462,-9.770364761352539
1745653632.0097332,0.003265041159465909,0.0020295456051826477,-0.0035811469424515963,0.17656545341014862,-0.1610954999923706,-9.807696342468262
1745653632.0097675,-0.032720934599637985,-0.004244864918291569,-0.011555835604667664,0.28035616874694824,0.0017588138580322266,-10.010749816894531
1745653632.0099106,-0.0028847274370491505,0.0069696493446826935,-0.015638861805200577,0.8028964996337891,0.14980675280094147,-9.63001823425293
1745653632.0121634,-0.006915479898452759,-0.01080386247485876,-0.015609510242938995,0.8136132955551147,0.02125886082649231,-9.644927024841309
1745653632.0602467,0.036150116473436356,-0.005716747138649225,-0.010349312797188759,0.6686000227928162,-0.2502661347389221,-10.092172622680664
1745653632.060445,0.033830590546131134,0.008527500554919243,-0.004946870729327202,0.14670094847679138,0.09995107352733612,-9.905084609985352
1745653632.0605412,0.05980432778596878,0.017472604289650917,-0.0039760335348546505,0.18969151377677917,-0.1624143421649933,-9.231657028198242
1745653632.0669637,0.06517203897237778,-0.0009490962838754058,-0.008190812543034554,0.6048346757888794,0.2982511520385742,-9.273488998413086
1745653632.1213033,0.057674456387758255,0.008919854648411274,-0.025553559884428978,0.37897661328315735,0.3315965533256531,-10.526118278503418
1745653632.1233783,0.08270340412855148,0.021951919421553612,-0.038838304579257965,0.4601798951625824,0.06223980709910393,-10.042630195617676
1745653632.1247814,0.04960181191563606,0.02147238701581955,-0.04416971281170845,0.5062406063079834,-0.5604996681213379,-8.997958183288574
1745653632.124856,0.028559604659676552,0.0062264041043818,-0.03663628175854683,0.8183470964431763,-1.0865838527679443,-9.428008079528809
1745653632.1249206,0.0001373760460410267,0.009989544749259949,-0.027618249878287315,0.6373869776725769,-1.0802388191223145,-10.677019119262695
1745653632.1349905,-0.008158696815371513,0.037206027656793594,-0.017764031887054443,0.28824344277381897,-0.6034051179885864,-10.115889549255371
1745653632.1365578,-0.018023699522018433,0.02374652586877346,-0.01777992770075798,0.5932005643844604,-0.19523561000823975,-8.860227584838867
1745653632.141776,-0.001538823707960546,0.0011252672411501408,-0.02488425001502037,0.48214197158813477,0.44615015387535095,-9.616432189941406
1745653632.1421907,0.0038331435061991215,0.020653802901506424,-0.036516256630420685,0.2870749831199646,0.3366580903530121,-10.808664321899414
1745653632.1790185,0.1267460137605667,0.07764985412359238,-0.155458003282547,0.9062134027481079,-0.10182587057352066,-10.540621757507324
1745653632.181503,0.12496086210012436,0.09122173488140106,-0.15653258562088013,0.701256275177002,-0.025762245059013367,-9.886581420898438
1745653632.1846316,0.13807407021522522,0.08358313143253326,-0.16287581622600555,0.7912758588790894,-0.42531973123550415,-8.951225280761719
1745653632.1894596,0.12612217664718628,0.07404035329818726,-0.16810540854930878,0.9699899554252625,-0.0255291648209095,-9.498302459716797
1745653632.2221773,0.11477818340063095,0.08410803228616714,-0.1779751479625702,0.7232872247695923,-0.3911430835723877,-10.566262245178223
1745653632.2224307,0.13693895936012268,0.09403308480978012,-0.18462185561656952,0.9331491589546204,-0.3010026812553406,-9.672636032104492
1745653632.225324,0.08194909989833832,0.08716908097267151,-0.18961986899375916,0.7555166482925415,-0.47101396322250366,-9.003418922424316
1745653632.2316434,0.10381462424993515,0.08809544146060944,-0.19180740416049957,0.8469139337539673,-0.6369929909706116,-9.56715202331543
1745653632.231709,0.08548874408006668,0.0858725756406784,-0.19363221526145935,0.909426212310791,-0.27651095390319824,-10.290777206420898
1745653632.2651196,0.10750740766525269,0.10151783376932144,-0.1973784863948822,0.8526495099067688,-0.46513310074806213,-10.04023551940918
1745653632.2750223,0.10191847383975983,0.08658436685800552,-0.19954614341259003,0.968816876411438,-0.15334448218345642,-9.235644340515137
1745653632.2751405,0.11580026149749756,0.0786096602678299,-0.20171964168548584,0.8108997344970703,-0.1909479796886444,-9.600821495056152
1745653632.2753341,0.11078743636608124,0.0866255983710289,-0.20961813628673553,1.00575852394104,-0.15601205825805664,-10.056748390197754
1745653632.3105247,0.11285288631916046,0.08382915705442429,-0.21301516890525818,0.9315255880355835,-0.41438788175582886,-9.929518699645996
1745653632.31646,0.12622949481010437,0.0817822590470314,-0.21827924251556396,0.9106426239013672,-0.2389538735151291,-9.444369316101074
1745653632.3165886,0.09689848124980927,0.06951666623353958,-0.22258996963500977,1.0247933864593506,-0.43397289514541626,-9.687542915344238
1745653632.3170102,0.12347427755594254,0.07553012669086456,-0.22688905894756317,0.9836360216140747,-0.3636200428009033,-10.033145904541016
1745653632.3542402,0.10488134622573853,0.07059845328330994,-0.2332269847393036,1.1317945718765259,-0.2764767110347748,-9.82728385925293
1745653632.3543234,0.11351585388183594,0.06674264371395111,-0.23369726538658142,0.9299556612968445,-0.39838841557502747,-9.527650833129883
1745653632.3581302,0.11075663566589355,0.028168583288788795,-0.28184765577316284,0.992022693157196,-0.29467982053756714,-9.491364479064941
1745653632.3590724,0.10450184345245361,0.02972930669784546,-0.28691181540489197,0.9090772867202759,-0.33437421917915344,-9.828652381896973
1745653632.3957434,0.11544947326183319,0.02345104329288006,-0.2885240912437439,1.0593321323394775,-0.6245947480201721,-10.015396118164062
1745653632.3976834,0.12506791949272156,0.02728087641298771,-0.2905460596084595,0.9742860794067383,-0.24692264199256897,-9.584150314331055
1745653632.405475,0.10350606590509415,0.016324011608958244,-0.29410290718078613,1.0489946603775024,-0.7430893778800964,-9.677267074584961
1745653632.405616,0.11905765533447266,0.009468135423958302,-0.29849353432655334,0.9847272634506226,-0.45621317625045776,-9.853231430053711
1745653632.4056785,0.0980290025472641,0.011582495644688606,-0.3005203902721405,1.0324299335479736,-0.5783870816230774,-9.814101219177246
1745653632.4414241,0.09848537296056747,0.01056484691798687,-0.3040594458580017,0.9993761777877808,-0.5934203863143921,-9.583754539489746
1745653632.4422624,0.09024786949157715,0.00793891679495573,-0.3071165978908539,0.8101941347122192,-0.5314632654190063,-9.530252456665039
1745653632.442329,0.09201564639806747,-0.0009441373986192048,-0.3093772530555725,1.1652946472167969,-0.6683987379074097,-9.792970657348633
1745653632.4423757,0.08452615886926651,0.000657919212244451,-0.3097946047782898,0.8055126070976257,-0.445706307888031,-10.008831024169922
1745653632.479554,0.09640888124704361,-0.0015418378170579672,-0.31335338950157166,1.0443463325500488,-0.7037495374679565,-9.673334121704102
1745653632.4835656,0.08991283178329468,-0.009650057181715965,-0.31331634521484375,0.965428352355957,-0.2816273272037506,-9.475846290588379
1745653632.4877372,0.07925386726856232,-0.009875241667032242,-0.31655728816986084,0.9189640879631042,-0.669481635093689,-9.861140251159668
1745653632.4931805,0.1052388921380043,-0.015138046815991402,-0.31772422790527344,1.1273525953292847,-0.43940678238868713,-9.768487930297852
1745653632.4932604,0.08759595453739166,-0.01119136717170477,-0.32211238145828247,0.8223562240600586,-0.4184969961643219,-9.692517280578613
1745653632.5281844,0.09120078384876251,-0.07551906257867813,-0.3614468276500702,0.7314624190330505,-0.6977199912071228,-9.910316467285156
1745653632.5292659,0.09975141286849976,-0.07023526728153229,-0.3619111180305481,0.9900798797607422,-0.5850261449813843,-9.643648147583008
1745653632.5304441,0.0796036571264267,-0.0778048187494278,-0.3636481761932373,0.7625676393508911,-0.7171992063522339,-9.71611213684082
1745653632.5653515,0.09192295372486115,-0.07649444043636322,-0.36471444368362427,0.8917031288146973,-0.7527437210083008,-9.777120590209961
1745653632.5667408,0.06941264122724533,-0.08147888630628586,-0.3644125461578369,0.8744001388549805,-0.7757941484451294,-9.843881607055664
1745653632.5727394,0.08596396446228027,-0.07508987933397293,-0.36582469940185547,0.7173594236373901,-0.7365982532501221,-9.88469409942627
1745653632.5727997,0.06856562942266464,-0.07970596104860306,-0.36733120679855347,0.8970552682876587,-0.6270270347595215,-9.627195358276367
1745653632.5728436,0.07220835983753204,-0.07997068762779236,-0.3680259585380554,0.71165531873703,-0.6607658267021179,-9.707682609558105
1745653632.6077135,0.08890656381845474,-0.07859177142381668,-0.36924856901168823,0.846257209777832,-0.5872948169708252,-9.758285522460938
1745653632.6097913,0.073862224817276,-0.08098234236240387,-0.37221118807792664,0.7794438600540161,-0.5520848035812378,-9.792821884155273
1745653632.6242635,0.09346143156290054,-0.07183991372585297,-0.37244710326194763,0.7674919962882996,-0.6850560903549194,-9.68496322631836
1745653632.624328,0.08799904584884644,-0.08102024346590042,-0.3727833926677704,0.7971164584159851,-0.5968729257583618,-9.681344985961914
1745653632.6513398,0.09556117653846741,-0.07599129527807236,-0.37494993209838867,0.7348603010177612,-0.7648078799247742,-9.941436767578125
1745653632.6541739,0.08788859844207764,-0.07588739693164825,-0.37257781624794006,0.8880228996276855,-0.6944850087165833,-9.847099304199219
1745653632.658308,0.09306187927722931,-0.08117535710334778,-0.374553382396698,0.753163754940033,-0.7366584539413452,-9.708965301513672
1745653632.662556,0.07926487177610397,-0.07663393020629883,-0.37680867314338684,0.8346880674362183,-0.7560523748397827,-9.657041549682617
1745653632.6668577,0.0719299241900444,-0.08294681459665298,-0.37515321373939514,0.7911421656608582,-0.8532649874687195,-9.866907119750977
1745653632.69824,0.08641607314348221,-0.07404451817274094,-0.37736406922340393,0.7169135808944702,-0.6868471503257751,-9.751790046691895
1745653632.7094154,0.06170802190899849,-0.07718238979578018,-0.37729567289352417,0.8033241033554077,-0.704901397228241,-9.675976753234863
1745653632.7095442,0.07909329980611801,-0.06097863242030144,-0.38585346937179565,0.8307245373725891,-0.8172745704650879,-9.708649635314941
1745653632.7362568,0.08458369970321655,-0.061684124171733856,-0.38498538732528687,0.658948540687561,-0.7572112083435059,-10.071268081665039
1745653632.7456708,0.08288541436195374,-0.05512496829032898,-0.38438576459884644,0.6156830787658691,-0.9269272089004517,-9.894282341003418
1745653632.745895,0.08399733155965805,-0.06083434820175171,-0.38334667682647705,0.7798458337783813,-0.8916797637939453,-9.517535209655762
1745653632.7459528,0.06423269957304001,-0.05805296450853348,-0.38374051451683044,0.6023801565170288,-0.8527725338935852,-9.71440315246582
1745653632.7464843,0.06666851043701172,-0.06093032285571098,-0.38496366143226624,0.8113821148872375,-0.9901684522628784,-9.901168823242188
1745653632.7920094,0.06841710954904556,-0.054828185588121414,-0.38438695669174194,0.6470409631729126,-0.707886278629303,-9.750284194946289
1745653632.792996,0.0539216510951519,-0.0506017804145813,-0.38585665822029114,0.645539402961731,-0.8716017007827759,-9.604043960571289
1745653632.797014,0.05606136843562126,-0.06172606348991394,-0.3866831660270691,0.6540004014968872,-0.8532301187515259,-9.721151351928711
1745653632.8001223,0.06740229576826096,-0.049193304032087326,-0.3861945569515228,0.6127558350563049,-0.6301032304763794,-9.938252449035645
1745653632.8234434,0.05643414333462715,-0.05337892845273018,-0.3888930380344391,0.6691114902496338,-0.8155538439750671,-9.82751178741455
1745653632.8288279,0.07675383985042572,-0.0474679097533226,-0.3880562484264374,0.45322051644325256,-0.6877135038375854,-9.527873039245605
1745653632.8289206,0.0661657452583313,-0.049092479050159454,-0.3892807364463806,0.8058406710624695,-0.9065979719161987,-9.460455894470215
1745653632.8293126,0.06468494236469269,-0.0514083132147789,-0.3876257538795471,0.5993688702583313,-0.781112015247345,-9.941184997558594
1745653632.8698366,0.0671265721321106,-0.039971109479665756,-0.38847941160202026,0.6262076497077942,-1.0667229890823364,-9.960912704467773
1745653632.872687,0.05857793614268303,-0.0420796275138855,-0.3864781856536865,0.6384104490280151,-0.8965058326721191,-9.553571701049805
1745653632.8752542,0.00878567062318325,-0.015716928988695145,-0.3944944739341736,0.5652731657028198,-0.7371207475662231,-9.81527042388916
1745653632.8792212,0.018251478672027588,-0.013457588851451874,-0.39286676049232483,0.7495111227035522,-0.8932884931564331,-9.726081848144531
1745653632.9124622,0.01607290469110012,-0.016785355284810066,-0.393108606338501,0.46834033727645874,-0.728857696056366,-9.644369125366211
1745653632.9125507,0.02289023995399475,-0.013980303891003132,-0.39044082164764404,0.7195335626602173,-0.9483137130737305,-9.78396224975586
1745653632.9129536,0.019398443400859833,-0.015551743097603321,-0.3882847726345062,0.5617952346801758,-0.7314010858535767,-9.864015579223633
1745653632.9166973,0.027215903624892235,-0.011688433587551117,-0.39256560802459717,0.5844346284866333,-0.9252868890762329,-9.693607330322266
1745653632.9563196,0.010667254216969013,-0.017873253673315048,-0.39151114225387573,0.7222021222114563,-0.8355394601821899,-9.598284721374512
1745653632.95638,0.010988220572471619,-0.014973105862736702,-0.39132338762283325,0.5125443339347839,-0.9868744611740112,-9.831099510192871
1745653632.960077,0.014576856978237629,-0.011333955451846123,-0.39091750979423523,0.7836012840270996,-1.0073044300079346,-9.695988655090332
1745653632.962902,-0.0028550836723297834,-0.013907292857766151,-0.3905814588069916,0.5245576500892639,-0.872502326965332,-9.604026794433594
1745653632.9662008,-0.0050017680041491985,-0.00881744734942913,-0.39025354385375977,0.6423033475875854,-1.066952109336853,-9.703470230102539
1745653632.9953675,-0.0037488907109946012,-0.013279746286571026,-0.3913867771625519,0.6291528940200806,-0.7362763285636902,-9.776116371154785
1745653632.997359,-0.003568037645891309,-0.006468041334301233,-0.39175280928611755,0.5147484540939331,-0.8483543395996094,-9.82935905456543
1745653633.0017579,0.0028378404676914215,-0.01026599295437336,-0.39157193899154663,0.7585877776145935,-0.7708038091659546,-9.605798721313477
1745653633.0022643,-0.004709179513156414,-0.013375803828239441,-0.39259690046310425,0.5197027325630188,-0.8480479121208191,-9.698087692260742
1745653633.040735,0.002719425829127431,-0.010045245289802551,-0.3898196518421173,0.7072469592094421,-0.8693403005599976,-9.771349906921387
1745653633.041762,-0.009016930125653744,-0.009421293623745441,-0.39084047079086304,0.6011947989463806,-0.8643542528152466,-9.75638198852539
1745653633.0426042,0.0054664649069309235,-0.005223524756729603,-0.38877230882644653,0.6145011782646179,-0.882472038269043,-9.680036544799805
1745653633.0446973,-0.011721957474946976,-0.014961561188101768,-0.3903150260448456,0.7709273099899292,-0.7264074087142944,-9.713286399841309
1745653633.051487,-0.007742417044937611,-0.0115738520398736,-0.3923190236091614,0.5331732630729675,-0.8808186650276184,-9.949026107788086
1745653633.0850732,-0.0284865889698267,-0.009352387860417366,-0.38674843311309814,0.5749149918556213,-0.8432795405387878,-9.874910354614258
1745653633.0851293,-0.020948637276887894,-0.009899014607071877,-0.3887704014778137,0.6900584101676941,-0.7101870775222778,-9.78727912902832
1745653633.0974777,-0.02319554053246975,-0.014276069588959217,-0.3856445252895355,0.49288493394851685,-0.7662240266799927,-9.747804641723633
1745653633.0975292,-0.011220033280551434,-0.010433299466967583,-0.38697895407676697,0.6614279747009277,-0.7564836740493774,-9.653480529785156
1745653633.1297445,-0.024544430896639824,-0.017203178256750107,-0.38647395372390747,0.616014301776886,-0.8157723546028137,-9.756807327270508
1745653633.1298418,-0.01101062074303627,-0.010656895115971565,-0.38522329926490784,0.6297181844711304,-0.8545904159545898,-9.755335807800293
1745653633.1356924,-0.027912193909287453,-0.018336717039346695,-0.38531622290611267,0.7508994340896606,-0.8866657018661499,-9.683675765991211
1745653633.1357532,-0.017657045274972916,-0.013312457129359245,-0.38128799200057983,0.5108625888824463,-0.8669734001159668,-9.779352188110352
1745653633.1358094,-0.025973325595259666,-0.014235854148864746,-0.3830081820487976,0.7130681276321411,-0.8309448957443237,-9.703959465026855
1745653633.1703646,-0.034627802670001984,-0.02047349512577057,-0.3826352059841156,0.5744025111198425,-0.7977411150932312,-9.845088005065918
1745653633.1752436,-0.020473284646868706,-0.012513791210949421,-0.3832252621650696,0.62378990650177,-0.8302515745162964,-9.798540115356445
1745653633.1759615,-0.032994139939546585,-0.020457744598388672,-0.38531726598739624,0.6089719533920288,-0.7155112028121948,-9.605137825012207
1745653633.1781027,-0.024463733658194542,-0.015772853046655655,-0.38190388679504395,0.5713250637054443,-0.8702739477157593,-9.616559982299805
1745653633.2147505,-0.029409844428300858,-0.019382786005735397,-0.3828112781047821,0.6928431391716003,-0.8045851588249207,-9.766219139099121
1745653633.2247503,-0.026897598057985306,-0.0170160923153162,-0.3805513381958008,0.5460183620452881,-0.8399797677993774,-9.885600090026855
1745653633.2248292,-0.02645133063197136,-0.014004766941070557,-0.37756583094596863,0.6895350217819214,-0.8151979446411133,-9.721466064453125
1745653633.224949,-0.015217917971313,-0.02542785182595253,-0.36552703380584717,0.5798909068107605,-0.7466636300086975,-9.63335132598877
1745653633.2646801,-0.03341130167245865,-0.0281892828643322,-0.36378592252731323,0.716528594493866,-0.7516881227493286,-9.856401443481445
1745653633.2666135,-0.013508115895092487,-0.022692974656820297,-0.3619128465652466,0.5460060238838196,-0.7426913380622864,-9.79194450378418
1745653633.266675,-0.025189746171236038,-0.024743640795350075,-0.3637975752353668,0.6236873269081116,-0.6311249136924744,-9.643583297729492
1745653633.2679193,-0.014069770462810993,-0.027613922953605652,-0.3618120849132538,0.45191192626953125,-0.6687071919441223,-9.812268257141113
1745653633.2991958,-0.017128128558397293,-0.025073330849409103,-0.36215394735336304,0.6222249269485474,-0.721859335899353,-9.826410293579102
1745653633.3029547,-0.015451997518539429,-0.02933204174041748,-0.36088424921035767,0.5061596632003784,-0.6884757280349731,-9.755670547485352
1745653633.3063502,-0.019066233187913895,-0.024975312873721123,-0.36271509528160095,0.5111695528030396,-0.7551298141479492,-9.652175903320312
1745653633.3102431,-0.022475291043519974,-0.029156088829040527,-0.3607148230075836,0.637312114238739,-0.813096821308136,-9.668013572692871
1745653633.3167536,-0.012150917202234268,-0.022896332666277885,-0.3611644506454468,0.5674504041671753,-0.6235476732254028,-9.730060577392578
1745653633.3412945,-0.026113081723451614,-0.024501467123627663,-0.35889187455177307,0.6706138849258423,-0.7057603597640991,-9.772095680236816
1745653633.3494005,-0.01412363350391388,-0.02515099011361599,-0.3586142361164093,0.4974612593650818,-0.6731008887290955,-9.859825134277344
1745653633.349451,-0.012287368066608906,-0.022543368861079216,-0.3601751923561096,0.5782269239425659,-0.6278488039970398,-9.729972839355469
1745653633.351266,-0.01361364871263504,-0.02967863716185093,-0.35772958397865295,0.5378687381744385,-0.7169570922851562,-9.703082084655762
1745653633.382067,-0.0022060759365558624,-0.020737633109092712,-0.3594767451286316,0.5038010478019714,-0.580642819404602,-9.73289680480957
1745653633.3871124,-0.013969888910651207,-0.02947705052793026,-0.3589032292366028,0.6124158501625061,-0.763299822807312,-9.747282981872559
1745653633.3871858,-0.0017342701321467757,-0.020960425958037376,-0.3563058376312256,0.46098294854164124,-0.578842043876648,-9.719560623168945
1745653633.388036,-0.013438316993415356,-0.025394853204488754,-0.35689908266067505,0.7223873138427734,-0.8188965916633606,-9.724299430847168
1745653633.3914108,-0.004012951627373695,-0.030995752662420273,-0.3561391830444336,0.5434966087341309,-0.6648992300033569,-9.912778854370117
1745653633.4504561,-0.013356556184589863,-0.023805949836969376,-0.3563191890716553,0.59224933385849,-0.7721400260925293,-9.902352333068848
1745653633.4505115,-0.003999094944447279,-0.02939317189157009,-0.3500121533870697,0.5334577560424805,-0.5458307266235352,-9.731607437133789
1745653633.4508834,-0.004793571308255196,-0.022024227306246758,-0.35003191232681274,0.5857607126235962,-0.6202124953269958,-9.773224830627441
1745653633.4728453,-0.009583108127117157,-0.027798891067504883,-0.35019341111183167,0.5930032134056091,-0.6696997880935669,-9.782693862915039
1745653633.474689,0.006167047657072544,-0.020520044490695,-0.34872111678123474,0.4251165986061096,-0.6073247194290161,-9.728578567504883
1745653633.483802,-0.007156594656407833,-0.029569512233138084,-0.34805744886398315,0.5894168019294739,-0.7321135997772217,-9.787099838256836
1745653633.483855,0.008814175613224506,-0.022531500086188316,-0.3508363366127014,0.4629151225090027,-0.5877505540847778,-9.794865608215332
1745653633.4891915,-0.007395049091428518,-0.02586311101913452,-0.3469039797782898,0.6343432664871216,-0.8168438673019409,-9.692606925964355
1745653633.512407,-0.001940486254170537,-0.029654841870069504,-0.34746024012565613,0.5560744404792786,-0.6657490730285645,-9.72825813293457
1745653633.5137796,-0.00901977438479662,-0.02392972633242607,-0.34786272048950195,0.5684198141098022,-0.8124465942382812,-9.824616432189941
1745653633.5169172,-0.01123957522213459,-0.02894427813589573,-0.3422410488128662,0.5927944779396057,-0.8127462267875671,-9.837398529052734
1745653633.5176952,-0.010520508512854576,-0.02267793007194996,-0.3422030806541443,0.4736785888671875,-0.6065301299095154,-9.719596862792969
1745653633.5571628,-0.023762855678796768,-0.031918663531541824,-0.3435467779636383,0.6129497289657593,-0.7351391911506653,-9.722734451293945
1745653633.557231,-0.0010768426582217216,-0.026736397296190262,-0.34113749861717224,0.4354511797428131,-0.555092453956604,-9.839632987976074
1745653633.5637314,-0.01000739075243473,-0.02549075148999691,-0.3434292674064636,0.6005609035491943,-0.5854034423828125,-9.714399337768555
1745653633.5638235,-0.001025863690301776,-0.029841799288988113,-0.34217098355293274,0.5257952809333801,-0.615711510181427,-9.642333984375
1745653633.5638866,0.0054288748651742935,-0.021699881181120872,-0.34246715903282166,0.42043551802635193,-0.515972912311554,-9.694436073303223
1745653633.6054063,-0.007703416049480438,-0.02466915361583233,-0.3293023109436035,0.6324067711830139,-0.8148984909057617,-9.916733741760254
1745653633.6055396,0.0019216060172766447,-0.01866169646382332,-0.3297594487667084,0.3336973190307617,-0.5657488107681274,-9.771890640258789
1745653633.606072,-0.015837229788303375,-0.01898534595966339,-0.3304850459098816,0.6319300532341003,-0.6922162771224976,-9.469833374023438
1745653633.6061392,-0.00789441354572773,-0.026998648419976234,-0.3296557664871216,0.537105143070221,-0.5938892364501953,-9.68232250213623
1745653633.6416726,-0.0071051702834665775,-0.019874144345521927,-0.329984575510025,0.4256729185581207,-0.5577822923660278,-10.056863784790039
1745653633.649194,-0.0018512749811634421,-0.021809466183185577,-0.32943442463874817,0.6121664643287659,-0.6601003408432007,-9.920368194580078
1745653633.6492746,0.0018710624426603317,-0.01975833997130394,-0.3268424868583679,0.3343111574649811,-0.5582486391067505,-9.608922958374023
1745653633.6493237,0.002237203996628523,-0.025094633921980858,-0.324692964553833,0.6061093211174011,-0.7163008451461792,-9.600022315979004
1745653633.649674,-0.0048214346170425415,-0.028470445424318314,-0.32859358191490173,0.44374942779541016,-0.5276498198509216,-9.884360313415527
1745653633.6849155,-0.00012865364260505885,-0.016850244253873825,-0.32623806595802307,0.5306963920593262,-0.7501205205917358,-9.859155654907227
1745653633.687985,0.003097061300650239,-0.02487964928150177,-0.3265923857688904,0.5551556944847107,-0.5153765678405762,-9.501209259033203
1745653633.6949663,-0.005028586369007826,-0.020586475729942322,-0.3277762830257416,0.40619730949401855,-0.6413306593894958,-9.67639446258545
1745653633.6950333,-0.006745828781276941,-0.022320201620459557,-0.32672184705734253,0.6444560885429382,-0.7518430352210999,-9.956818580627441
1745653633.7322092,0.0010161588434129953,-0.01731831207871437,-0.3271946907043457,0.36318475008010864,-0.5556937456130981,-9.89704704284668
1745653633.7333095,-0.006508554331958294,-0.019109874963760376,-0.324422150850296,0.5011142492294312,-0.7692329287528992,-9.595436096191406
1745653633.7362885,0.0001345520868198946,-0.02065945975482464,-0.32587140798568726,0.42043766379356384,-0.46860188245773315,-9.556879997253418
1745653633.7501369,-0.006236038636416197,-0.016845976933836937,-0.3244534134864807,0.4648096561431885,-0.6969226598739624,-9.830878257751465
1745653633.77069,-0.004074891097843647,-0.02136302925646305,-0.3244810104370117,0.5994716882705688,-0.5867480039596558,-9.86266040802002
1745653633.7713587,-0.006589451339095831,-0.017101511359214783,-0.3273245096206665,0.42372313141822815,-0.6711100935935974,-9.786410331726074
1745653633.779111,-0.0018679210916161537,-0.020663756877183914,-0.3231385052204132,0.5853366255760193,-0.7562310695648193,-9.73000717163086
1745653633.7791846,-0.014477437362074852,-0.0202507134526968,-0.32242685556411743,0.42126965522766113,-0.5908809900283813,-9.820629119873047
1745653633.8146427,-0.016398493200540543,-0.015317762270569801,-0.31873762607574463,0.37699422240257263,-0.6757863163948059,-9.787540435791016
1745653633.8176875,-0.01030530221760273,-0.018547572195529938,-0.3191922605037689,0.6088311076164246,-0.6971240043640137,-9.561305046081543
1745653633.8255165,-0.012913805432617664,-0.020643282681703568,-0.32048019766807556,0.3721867799758911,-0.5426328778266907,-9.695206642150879
1745653633.8255947,-0.020995071157813072,-0.015236993320286274,-0.321995347738266,0.5909794569015503,-0.6907780766487122,-9.9052152633667
1745653633.8256547,-0.013384168967604637,-0.015140627510845661,-0.31871187686920166,0.4025123715400696,-0.5601433515548706,-9.810541152954102
1745653633.8605149,-0.01516084372997284,-0.014053286984562874,-0.3194817900657654,0.3949046730995178,-0.6129356026649475,-9.655287742614746
1745653633.865406,-0.010940845124423504,-0.021112967282533646,-0.31855079531669617,0.6110780835151672,-0.5969899296760559,-9.672942161560059
1745653633.8659189,-0.013878660276532173,-0.016595324501395226,-0.3163851499557495,0.3877714276313782,-0.5451778769493103,-9.991151809692383
1745653633.8684006,-0.007104470394551754,-0.01612178608775139,-0.3186964988708496,0.5929359197616577,-0.6617988348007202,-9.821682929992676
1745653633.9108539,-0.018024031072854996,-0.02000044472515583,-0.31714779138565063,0.4224715828895569,-0.5759207606315613,-9.578729629516602
1745653633.9109325,-0.012708413414657116,-0.01665075123310089,-0.3164098262786865,0.5414692759513855,-0.7649592757225037,-9.710164070129395
1745653633.9109828,-0.016124935820698738,-0.020253922790288925,-0.3170890510082245,0.5531764626502991,-0.507418155670166,-9.869464874267578
1745653633.9130762,-0.023106474429368973,-0.014195151627063751,-0.318558007478714,0.38882678747177124,-0.6079816818237305,-9.922708511352539
1745653633.913134,-0.018144825473427773,-0.018787816166877747,-0.31648528575897217,0.5752037763595581,-0.6808698177337646,-9.653757095336914
1745653633.9496543,-0.01665983907878399,-0.02080024778842926,-0.3192194700241089,0.3594745993614197,-0.43902239203453064,-9.704519271850586
1745653633.9496863,0.0047938525676727295,-0.012556171044707298,-0.3146546185016632,0.4250296950340271,-0.5964195132255554,-9.784588813781738
1745653633.957106,-0.006990693509578705,-0.014248989522457123,-0.3172515034675598,0.5140853524208069,-0.45313724875450134,-9.739537239074707
1745653633.9571378,-0.004544760100543499,-0.011909070424735546,-0.3175938129425049,0.3710092604160309,-0.5610291957855225,-9.803868293762207
1745653633.9997888,-0.0035846210084855556,-0.014723097905516624,-0.3167538046836853,0.6428553462028503,-0.5972645878791809,-9.758201599121094
1745653633.9998758,-0.006748932413756847,-0.016579458490014076,-0.3185620605945587,0.39707130193710327,-0.4438731074333191,-9.813542366027832
1745653634.0604672,-0.003964537288993597,-0.011170262470841408,-0.3174816071987152,0.5638824701309204,-0.6569344401359558,-9.728818893432617
1745653634.064761,-0.008591093122959137,-0.017558325082063675,-0.3192157745361328,0.4255353808403015,-0.42456158995628357,-9.703322410583496
1745653634.0648565,-0.005759431514889002,-0.012188687920570374,-0.31925177574157715,0.44076213240623474,-0.6418174505233765,-9.818938255310059
1745653634.0649402,-0.004668900277465582,-0.014265915378928185,-0.316220760345459,0.5561897158622742,-0.5041590332984924,-9.815091133117676
1745653634.0652258,0.00026229172362945974,-0.014480553567409515,-0.3171952962875366,0.3694414496421814,-0.5432549715042114,-9.81670093536377
1745653634.0652936,0.0002584801986813545,-0.01632646471261978,-0.31717875599861145,0.5240775346755981,-0.49391430616378784,-9.711286544799805
1745653634.0656326,-0.006048933602869511,-0.017268113791942596,-0.31614601612091064,0.38227081298828125,-0.4952869415283203,-9.768793106079102
1745653634.0810263,0.00447074044495821,-0.010951481759548187,-0.31723833084106445,0.4982413351535797,-0.5214830636978149,-9.720337867736816
1745653634.0810986,0.0020718532614409924,-0.015647750347852707,-0.3170016407966614,0.4526793360710144,-0.5110076069831848,-9.6698579788208
1745653634.0836987,-0.0004843493807129562,-0.010311918333172798,-0.3190087676048279,0.44525575637817383,-0.5032156705856323,-9.791865348815918
1745653634.083763,0.003301996737718582,-0.011555084958672523,-0.31690189242362976,0.5867973566055298,-0.5631905794143677,-9.714170455932617
1745653634.1138322,-0.002247969852760434,-0.013160660862922668,-0.3186270594596863,0.32028859853744507,-0.46565166115760803,-9.853776931762695
1745653634.1151726,0.009115083143115044,-0.010177339427173138,-0.3199995756149292,0.559905469417572,-0.5783811807632446,-9.752374649047852
1745653634.1179283,-0.003760348306968808,-0.015195690095424652,-0.3190745413303375,0.46247726678848267,-0.47215795516967773,-9.809453964233398
1745653634.1189415,0.01136509794741869,-0.009878921322524548,-0.3184908628463745,0.4444848597049713,-0.5903055667877197,-9.817753791809082
1745653634.1204102,-0.004997863434255123,-0.0169869065284729,-0.31748655438423157,0.5451222658157349,-0.5028482675552368,-9.65849494934082
1745653634.180335,0.0190392155200243,-0.011153328232467175,-0.31825798749923706,0.5922576785087585,-0.5347995758056641,-9.730973243713379
1745653634.180396,0.004878592677414417,-0.01868118718266487,-0.32083719968795776,0.47155800461769104,-0.5510202050209045,-9.826726913452148
1745653634.1804657,0.02272183820605278,-0.009516095742583275,-0.31699758768081665,0.3714231848716736,-0.530144989490509,-9.887906074523926
1745653634.1805236,0.005841313861310482,-0.013310136273503304,-0.32061609625816345,0.5345336198806763,-0.44724446535110474,-9.713921546936035
1745653634.2041678,0.016180559992790222,-0.012879222631454468,-0.31836646795272827,0.3700692653656006,-0.5400612354278564,-9.663145065307617
1745653634.2071738,0.019555848091840744,-0.011973078362643719,-0.3176129460334778,0.5610257387161255,-0.5173834562301636,-9.762449264526367
1745653634.2099464,0.018089773133397102,-0.01604137383401394,-0.31991657614707947,0.38708382844924927,-0.40965738892555237,-9.818921089172363
1745653634.2179906,0.02357255294919014,-0.008066401816904545,-0.31960445642471313,0.48724564909935,-0.5701249837875366,-9.68773078918457
1745653634.244144,0.01650022715330124,-0.013161519542336464,-0.3187257647514343,0.43791133165359497,-0.4929007887840271,-9.664323806762695
1745653634.2558436,0.025776460766792297,-0.013554398901760578,-0.32027918100357056,0.49329179525375366,-0.6019323468208313,-9.887537002563477
1745653634.255896,0.015545842237770557,-0.014688923954963684,-0.3167094886302948,0.5575597882270813,-0.544991135597229,-9.926777839660645
1745653634.2563996,0.01927909068763256,-0.012321473099291325,-0.3155880272388458,0.3858981430530548,-0.6370999813079834,-9.805280685424805
1745653634.2617342,0.00981403049081564,-0.017880816012620926,-0.31772977113723755,0.5679455995559692,-0.5438016653060913,-9.550287246704102
1745653634.28632,0.001163038657978177,-0.021232910454273224,-0.3187275528907776,0.45362740755081177,-0.600985050201416,-9.838613510131836
1745653634.2874808,0.019539091736078262,-0.010390601120889187,-0.3176606595516205,0.45444878935813904,-0.512723445892334,-9.850396156311035
1745653634.2897758,0.023111052811145782,-0.01564120315015316,-0.30321285128593445,0.3946360945701599,-0.6259242296218872,-9.75926399230957
1745653634.2916408,0.03282696753740311,-0.006204125005751848,-0.3053673505783081,0.4794064462184906,-0.5154318809509277,-9.736871719360352
1745653634.3309276,0.01607172191143036,-0.01320606004446745,-0.3050951063632965,0.5137872695922852,-0.5633183121681213,-9.72042465209961
1745653634.3326752,0.025112634524703026,-0.008015425875782967,-0.30441814661026,0.35670918226242065,-0.5475908517837524,-9.817342758178711
1745653634.336399,0.02497207373380661,-0.009680958464741707,-0.3070659041404724,0.482830673456192,-0.5276628732681274,-9.782404899597168
1745653634.3420908,0.029831763356924057,-0.012261854484677315,-0.30692657828330994,0.3030129373073578,-0.5146477222442627,-9.7891263961792
1745653634.3736553,0.03617626428604126,-0.004349802620708942,-0.30370810627937317,0.48139071464538574,-0.5017343759536743,-9.630900382995605
1745653634.3753605,0.024792689830064774,-0.013932506553828716,-0.30323705077171326,0.4750994145870209,-0.5914345979690552,-9.729470252990723
1745653634.3843207,0.045552995055913925,-0.0059965536929667,-0.3027331233024597,0.3604359030723572,-0.49239006638526917,-9.870993614196777
1745653634.384374,0.03104788437485695,-0.007305989973247051,-0.30307015776634216,0.5567799210548401,-0.6149616837501526,-9.702951431274414
1745653634.3875687,0.04404396191239357,-0.010081852786242962,-0.30547279119491577,0.35781699419021606,-0.6093089580535889,-9.7177734375
1745653634.4211605,0.027688097208738327,-0.008900461718440056,-0.30096301436424255,0.5517942905426025,-0.5981444120407104,-9.77648639678955
1745653634.4216049,0.023995857685804367,-0.009595603682100773,-0.30320727825164795,0.3979829251766205,-0.6160949468612671,-9.913339614868164
1745653634.4248445,0.03445006534457207,-0.005257369019091129,-0.30074745416641235,0.44691434502601624,-0.6161707639694214,-9.74494457244873
1745653634.4284842,0.022831566631793976,-0.013366594910621643,-0.3045195937156677,0.5302135348320007,-0.5421875715255737,-9.561162948608398
1745653634.4612286,0.02634814940392971,-0.009384455159306526,-0.30337589979171753,0.391703724861145,-0.6069664359092712,-9.811015129089355
1745653634.486969,0.024673854932188988,-0.009503772482275963,-0.29984474182128906,0.5221828818321228,-0.5591262578964233,-9.922445297241211
1745653634.487576,0.02826928161084652,-0.009673194959759712,-0.302619993686676,0.3734368681907654,-0.6378985643386841,-9.726341247558594
1745653634.4876652,0.028926795348525047,-0.008731776848435402,-0.2975439429283142,0.45228052139282227,-0.6377233862876892,-9.58967113494873
1745653634.5079956,0.026124602183699608,-0.014139192178845406,-0.29633423686027527,0.4600948393344879,-0.6171044111251831,-9.885592460632324
1745653634.5080595,0.03161292150616646,-0.007808475289493799,-0.29687875509262085,0.3221837282180786,-0.4663914740085602,-9.930587768554688
1745653634.508347,0.021838353946805,-0.009576193988323212,-0.29733866453170776,0.516150176525116,-0.601252019405365,-9.666635513305664
1745653634.508408,0.02617158368229866,-0.010884867049753666,-0.2955959439277649,0.5127775073051453,-0.530576229095459,-9.988911628723145
1745653634.5084474,0.03858039528131485,-0.008372312411665916,-0.2954953610897064,0.30462580919265747,-0.5080599784851074,-9.670964241027832
1745653634.5508575,0.026658203452825546,-0.011625735089182854,-0.2960805892944336,0.49328017234802246,-0.6207289695739746,-9.504439353942871
1745653634.55108,0.030331823974847794,-0.015877097845077515,-0.2947863042354584,0.40943750739097595,-0.65837162733078,-9.852943420410156
1745653634.5518064,0.03855585306882858,-0.005208560265600681,-0.29591208696365356,0.46639156341552734,-0.5432108640670776,-9.85314655303955
1745653634.5518377,0.019752729684114456,-0.012582920491695404,-0.29354944825172424,0.4878269135951996,-0.6421003341674805,-9.645500183105469
1745653634.5863354,0.028493931517004967,-0.011110862717032433,-0.294355571269989,0.3623896539211273,-0.6543412804603577,-9.728287696838379
1745653634.5889635,0.025302032008767128,-0.012509079650044441,-0.29313817620277405,0.5695700645446777,-0.5836040377616882,-9.85876178741455
1745653634.591412,0.02213125489652157,-0.013265646994113922,-0.29429516196250916,0.3817634582519531,-0.6021702885627747,-9.937505722045898
1745653634.5929377,0.03306390345096588,-0.005709344986826181,-0.2953409254550934,0.4492620527744293,-0.5326323509216309,-9.633657455444336
1745653634.5947347,0.015744274482131004,-0.016957193613052368,-0.2944844365119934,0.45660027861595154,-0.6354828476905823,-9.526848793029785
1745653634.6330643,0.03388640284538269,-0.011136723682284355,-0.29242080450057983,0.3747270107269287,-0.4872356355190277,-9.817985534667969
1745653634.6336055,0.020326582714915276,-0.012350382283329964,-0.2940487265586853,0.5663108825683594,-0.6490439176559448,-9.906768798828125
1745653634.636963,0.036406952887773514,-0.01123355794698,-0.29268720746040344,0.2870226800441742,-0.5257695913314819,-9.79752254486084
1745653634.6386478,0.00010518571070861071,-0.016668131574988365,-0.28874024748802185,0.5616586804389954,-0.6892558336257935,-9.781150817871094
1745653634.6795073,0.012221070937812328,-0.01456383429467678,-0.28759878873825073,0.2630797028541565,-0.5611604452133179,-9.840940475463867
1745653634.6802807,0.000831472862046212,-0.013525927439332008,-0.2894192934036255,0.5194056630134583,-0.5403233766555786,-9.702309608459473
1745653634.6835418,0.0005635690176859498,-0.018781360238790512,-0.2906947135925293,0.3676411509513855,-0.5411997437477112,-9.750547409057617
1745653634.6907105,0.0118112713098526,-0.01184135489165783,-0.2904694676399231,0.42961230874061584,-0.580187201499939,-9.807456016540527
1745653634.718918,0.00399546604603529,-0.01956348679959774,-0.29122480750083923,0.47041845321655273,-0.48837748169898987,-9.709564208984375
1745653634.7386293,0.015938809141516685,-0.009729618206620216,-0.2928525507450104,0.3680199682712555,-0.6214686632156372,-9.701541900634766
1745653634.7387977,0.010509517975151539,-0.013230669312179089,-0.2875032424926758,0.47674041986465454,-0.6066518425941467,-9.712030410766602
1745653634.7388878,0.016657205298542976,-0.01285391766577959,-0.28814896941185,0.3618146479129791,-0.5713776350021362,-9.866582870483398
1745653634.77333,0.01587924361228943,-0.008492736145853996,-0.2890315353870392,0.4133302569389343,-0.5840681195259094,-9.777227401733398
1745653634.7734447,0.016126418486237526,-0.014809386804699898,-0.2885358929634094,0.40873533487319946,-0.591951847076416,-9.71120834350586
1745653634.7740345,0.012253778986632824,-0.01279151625931263,-0.2907145917415619,0.3932367265224457,-0.5503585934638977,-9.731061935424805
1745653634.781642,0.0003883182944264263,-0.014693068340420723,-0.2910388708114624,0.4921122193336487,-0.7177019119262695,-9.848973274230957
1745653634.8028092,0.011377722024917603,-0.00930306687951088,-0.2921803593635559,0.3193046450614929,-0.5491370558738708,-9.697402954101562
1745653634.8056178,0.0011657297145575285,-0.009873652830719948,-0.29136553406715393,0.5173875689506531,-0.6832656860351562,-9.569655418395996
1745653634.8129776,-0.001313063083216548,-0.013484594412147999,-0.2891409993171692,0.45574912428855896,-0.54808109998703,-9.81980037689209
1745653634.8142679,0.009995405562222004,-0.006525335367769003,-0.29072684049606323,0.4724705219268799,-0.6106466054916382,-9.923382759094238
1745653634.8143072,0.0066924006678164005,-0.014790182001888752,-0.2885305881500244,0.392085999250412,-0.530823826789856,-9.808878898620605
1745653634.8580644,0.020938154309988022,-0.005555097013711929,-0.28937849402427673,0.308146595954895,-0.5179837942123413,-9.666753768920898
1745653634.8624358,0.009756948798894882,-0.016103699803352356,-0.29088202118873596,0.48384857177734375,-0.5268328785896301,-9.6904296875
1745653634.862495,0.024489719420671463,-0.01138326060026884,-0.28940120339393616,0.30875229835510254,-0.4742353558540344,-9.856966018676758
1745653634.8641791,0.018485451117157936,-0.006003941409289837,-0.292708158493042,0.4540022313594818,-0.4691409468650818,-9.75927734375
1745653634.889189,0.012196073308587074,-0.01452457346022129,-0.290493905544281,0.3955060839653015,-0.6078590154647827,-9.810412406921387
1745653634.9001741,0.02876800298690796,-0.004895531572401524,-0.2901250422000885,0.3587907552719116,-0.5345216989517212,-9.735692977905273
1745653634.9006183,0.01362917572259903,-0.013545381836593151,-0.2906270921230316,0.5360201001167297,-0.6796700358390808,-9.725530624389648
1745653634.9010973,0.02865051105618477,-0.009743266738951206,-0.2890639007091522,0.2724403440952301,-0.49745529890060425,-9.916692733764648
1745653634.9013312,0.015064681880176067,-0.008386682718992233,-0.29064249992370605,0.5428404211997986,-0.5789620876312256,-9.784723281860352
1745653634.9347267,0.02191726118326187,-0.01185218058526516,-0.29057615995407104,0.40240001678466797,-0.5880903601646423,-9.6443452835083
1745653634.936672,0.02511415258049965,-0.008572744205594063,-0.2929040193557739,0.4382557272911072,-0.5928479433059692,-9.72681999206543
1745653634.9382262,0.013075659051537514,-0.014052405953407288,-0.2908506393432617,0.5161370038986206,-0.5617583990097046,-9.860163688659668
1745653634.9419496,0.027985718101263046,-0.002900273771956563,-0.29251381754875183,0.3463424742221832,-0.6119629144668579,-9.750399589538574
1745653634.98084,0.019931331276893616,-0.008773776702582836,-0.2927054762840271,0.43803006410598755,-0.549394965171814,-9.604135513305664
1745653634.9810288,0.030526811257004738,-0.011210577562451363,-0.2915353775024414,0.39403587579727173,-0.5441054105758667,-9.830426216125488
1745653634.9811416,0.02627423033118248,-0.007184705697000027,-0.2909068465232849,0.4570426940917969,-0.5833768844604492,-9.937487602233887
1745653634.9815059,0.03256711736321449,-0.011690599843859673,-0.2896897792816162,0.3712058663368225,-0.600627064704895,-9.800549507141113
1745653635.0182166,0.02780931629240513,-0.010289501398801804,-0.2915034890174866,0.4124107360839844,-0.6175675392150879,-9.589460372924805
1745653635.0189943,0.01418780256062746,-0.01362831611186266,-0.28956612944602966,0.40025144815444946,-0.6225171089172363,-9.936368942260742
1745653635.0298018,0.008449013344943523,-0.010969772934913635,-0.2874816358089447,0.5329954028129578,-0.6139390468597412,-9.741848945617676
1745653635.030461,0.011004835367202759,-0.018457116559147835,-0.2868660092353821,0.4077117443084717,-0.653002142906189,-9.76119327545166
1745653635.0304914,0.007634061388671398,-0.014862519688904285,-0.286905974149704,0.4310542047023773,-0.6420915722846985,-9.760259628295898
1745653635.097281,-0.0012476478004828095,-0.017615696415305138,-0.2855098843574524,0.4392169117927551,-0.7120463252067566,-9.806596755981445
1745653635.1004198,0.015663469210267067,-0.008489592932164669,-0.286057710647583,0.2953733503818512,-0.5689605474472046,-9.61372184753418
1745653635.1004465,0.0024696551263332367,-0.014342484064400196,-0.2843887209892273,0.4598686099052429,-0.5846461653709412,-9.58360481262207
1745653635.1009262,0.005110231693834066,-0.015639465302228928,-0.2871840298175812,0.4011487364768982,-0.5279974937438965,-9.89067554473877
1745653635.1061215,0.012791370041668415,-0.010355032980442047,-0.2892804443836212,0.4845651090145111,-0.5961523056030273,-9.912345886230469
1745653635.1108549,0.004845264367759228,-0.018502427265048027,-0.2880784273147583,0.4145532548427582,-0.6047280430793762,-9.851580619812012
1745653635.1109457,0.016078267246484756,-0.012395457364618778,-0.28795957565307617,0.3979368209838867,-0.6441656351089478,-9.698776245117188
1745653635.111782,-0.0023800432682037354,-0.0193135067820549,-0.28481459617614746,0.5296916961669922,-0.721938967704773,-9.691583633422852
1745653635.1118157,0.012332895770668983,-0.015155263245105743,-0.28352245688438416,0.35263702273368835,-0.5957976579666138,-9.801583290100098
1745653635.1492357,-0.0016486343229189515,-0.017193693667650223,-0.28554463386535645,0.5476331114768982,-0.6481252908706665,-9.752702713012695
1745653635.1521866,0.008519555442035198,-0.01868530735373497,-0.2853092551231384,0.33755576610565186,-0.5601252913475037,-9.796504020690918
1745653635.18357,0.009660152718424797,-0.01566001959145069,-0.28644320368766785,0.39625176787376404,-0.4924173951148987,-9.708413124084473
1745653635.1836727,-0.0026435113977640867,-0.02197830006480217,-0.28689247369766235,0.47548556327819824,-0.567534327507019,-9.842297554016113
1745653635.2347944,0.015193345956504345,-0.015422748401761055,-0.2869711220264435,0.31940168142318726,-0.6166675686836243,-9.897414207458496
1745653635.234942,0.003250211477279663,-0.020018689334392548,-0.2864999771118164,0.5199969410896301,-0.6315391063690186,-9.675703048706055
1745653635.2350388,0.007260506507009268,-0.020685950294137,-0.28612154722213745,0.3074369430541992,-0.6548141241073608,-9.678518295288086
1745653635.235148,0.004791329614818096,-0.014912476763129234,-0.28569483757019043,0.5023101568222046,-0.600854754447937,-9.736471176147461
1745653635.235223,0.006965490989387035,-0.015243234112858772,-0.2856749892234802,0.37737220525741577,-0.6022905111312866,-9.800460815429688
1745653635.2410152,0.004793247673660517,-0.02203972265124321,-0.2841988503932953,0.4527372717857361,-0.599012553691864,-9.805713653564453
1745653635.2413096,0.010412212461233139,-0.019220020622015,-0.2838779091835022,0.34430795907974243,-0.5797337293624878,-9.830999374389648
1745653635.2413774,0.004370366223156452,-0.019373798742890358,-0.2834494411945343,0.4336169362068176,-0.6445974111557007,-9.69279670715332
1745653635.2428508,0.007125764153897762,-0.022655632346868515,-0.2833411693572998,0.3533293604850769,-0.5794287323951721,-9.742708206176758
1745653635.2862418,-0.0027687130495905876,-0.019051548093557358,-0.28404584527015686,0.41913849115371704,-0.588046133518219,-9.790319442749023
1745653635.286392,-0.002514057559892535,-0.024102995172142982,-0.2820265591144562,0.4863005578517914,-0.6864357590675354,-9.80230712890625
1745653635.2864695,0.010641472414135933,-0.01734727993607521,-0.2839469909667969,0.35530853271484375,-0.5152359008789062,-9.675434112548828
1745653635.2931843,-0.002865233225747943,-0.020547442138195038,-0.283497154712677,0.4848032593727112,-0.6887479424476624,-9.677841186523438
1745653635.3234587,0.00036242540227249265,-0.020258616656064987,-0.2825236916542053,0.33964279294013977,-0.5860224962234497,-9.864968299865723
1745653635.3235216,0.006576260086148977,-0.014100429601967335,-0.28179895877838135,0.39580631256103516,-0.5861330032348633,-9.815773963928223
1745653635.3268394,0.003138610627502203,-0.02351907268166542,-0.2814004123210907,0.3556518256664276,-0.5326833724975586,-9.732629776000977
1745653635.3269632,0.014716682024300098,-0.014320088550448418,-0.28499874472618103,0.36131399869918823,-0.45415106415748596,-9.655576705932617
1745653635.3647878,0.00047644638107158244,-0.02351653203368187,-0.2850436270236969,0.5070651769638062,-0.6098970174789429,-9.806811332702637
1745653635.3689911,0.011662407778203487,-0.017242053523659706,-0.28457242250442505,0.33959388732910156,-0.5857874751091003,-9.878347396850586
1745653635.3701947,0.004669151268899441,-0.02039206400513649,-0.2819605767726898,0.4045492708683014,-0.5946979522705078,-9.76146411895752
1745653635.373621,0.017030879855155945,-0.010223484598100185,-0.28441181778907776,0.34791117906570435,-0.5207627415657043,-9.79321002960205
1745653635.3886964,0.002837845589965582,-0.014298135414719582,-0.2801363468170166,0.4562477171421051,-0.6161836385726929,-9.72126579284668
1745653635.4099348,0.013616475276648998,-0.012819270603358746,-0.2817283868789673,0.27152544260025024,-0.47505417466163635,-9.681291580200195
1745653635.4124732,-0.0015369862085208297,-0.011490871198475361,-0.28479647636413574,0.47481346130371094,-0.640699028968811,-9.701555252075195
1745653635.4156814,0.008085216395556927,-0.015685927122831345,-0.28650200366973877,0.343031108379364,-0.5910582542419434,-9.918506622314453
1745653635.419367,0.0013878106838092208,-0.0063609955832362175,-0.2854239046573639,0.36777693033218384,-0.5866476893424988,-9.781753540039062
1745653635.4473398,-0.010886439122259617,-0.01475011557340622,-0.2856435775756836,0.48269134759902954,-0.658295214176178,-9.679471969604492
1745653635.4495595,0.0011454157065600157,-0.00925295241177082,-0.2839578092098236,0.3241756558418274,-0.6085284352302551,-9.778009414672852
1745653635.4510539,-0.004809180740267038,-0.01431620679795742,-0.28519898653030396,0.5176980495452881,-0.5613443851470947,-9.82652473449707
1745653635.453525,0.0031191278249025345,-0.013389025814831257,-0.2833380401134491,0.27244868874549866,-0.5138429403305054,-9.789830207824707
1745653635.4593523,0.00924729835242033,-0.00640715891495347,-0.2834860384464264,0.42907634377479553,-0.465232789516449,-9.637476921081543
1745653635.4911258,0.005154860205948353,-0.017673790454864502,-0.2823523283004761,0.4296915531158447,-0.5979937314987183,-9.714244842529297
1745653635.497803,0.017225079238414764,-0.010680141858756542,-0.28173941373825073,0.28049132227897644,-0.47188910841941833,-9.898366928100586
1745653635.497966,0.008197061717510223,-0.013418671675026417,-0.2833079695701599,0.4825896620750427,-0.6631160378456116,-9.862688064575195
1745653635.500286,0.018683303147554398,-0.010702530853450298,-0.28266483545303345,0.27453452348709106,-0.5131114721298218,-9.685783386230469
1745653635.5394442,-0.006595141254365444,-0.01256561279296875,-0.283755362033844,0.5066986680030823,-0.7097886204719543,-9.672124862670898
1745653635.5430892,1.5616416931152344e-05,-0.01589059829711914,-0.2846028506755829,0.41828203201293945,-0.6565521359443665,-9.87110424041748
1745653635.5432389,0.004351702053099871,-0.008719532750546932,-0.2836483418941498,0.36079084873199463,-0.6189194917678833,-9.827298164367676
1745653635.5432942,-0.014254328794777393,-0.014030784368515015,-0.28407183289527893,0.4990459084510803,-0.5635500550270081,-9.596623420715332
1745653635.552381,0.0021617249585688114,-0.008422120474278927,-0.2819618284702301,0.3156782388687134,-0.5138036012649536,-9.654976844787598
1745653635.5794744,0.005354312248528004,-0.012776440009474754,-0.27740317583084106,0.16204369068145752,-0.6010657548904419,-9.887436866760254
1745653635.594184,0.010690774768590927,-0.006518165115267038,-0.2723129391670227,0.20123744010925293,-0.7163165211677551,-9.724370956420898
1745653635.5951567,-0.004635905381292105,-0.021229784935712814,-0.26959797739982605,0.04028002917766571,-0.66736900806427,-9.749946594238281
1745653635.5952175,0.003045903518795967,-0.009831739589571953,-0.2679782509803772,-0.027355259284377098,-0.49487966299057007,-9.749909400939941
1745653635.6207469,-0.01847807690501213,-0.015854064375162125,-0.2694281041622162,0.20321309566497803,-0.5111932158470154,-9.656431198120117
1745653635.624017,-0.004857984371483326,-0.019401539117097855,-0.2677784562110901,0.13806697726249695,-0.504088819026947,-9.764421463012695
1745653635.6245904,-0.0193977989256382,-0.018857868388295174,-0.264983594417572,0.4254779815673828,-0.5948425531387329,-9.818288803100586
1745653635.6290033,-0.00855103600770235,-0.02315242774784565,-0.26369503140449524,0.2379789799451828,-0.7003505825996399,-9.990944862365723
1745653635.6653323,-0.007023371756076813,-0.013790391385555267,-0.25634756684303284,0.27870431542396545,-0.6136671304702759,-9.6777925491333
1745653635.6683953,-0.027031725272536278,-0.03030369058251381,-0.2513919770717621,0.31341415643692017,-0.7348125576972961,-9.570371627807617
1745653635.668549,-0.004112422000616789,-0.022569779306650162,-0.2474900186061859,0.09322678297758102,-0.45979899168014526,-9.894055366516113
1745653635.6766727,-0.008640104904770851,-0.020196694880723953,-0.25000566244125366,0.24304349720478058,-0.23413722217082977,-9.821283340454102
1745653635.7066362,-0.006485763005912304,-0.02401849254965782,-0.2509790062904358,0.07462890446186066,-0.4107453227043152,-9.754961967468262
1745653635.7143326,0.009987909346818924,-0.02299783006310463,-0.2541768550872803,0.25974240899086,-0.3763203024864197,-9.612348556518555
1745653635.7144034,-0.01205346267670393,-0.03464234992861748,-0.25339722633361816,0.25216084718704224,-0.6858927011489868,-9.873502731323242
1745653635.7200713,0.030146991834044456,-0.002609962597489357,-0.263850599527359,0.3782167136669159,-0.6681631207466125,-10.0216646194458
1745653635.7211177,0.029456516727805138,0.00013428852253127843,-0.26097530126571655,0.6313387155532837,-0.6887080073356628,-9.614978790283203
1745653635.7587364,0.016447938978672028,-0.007727230899035931,-0.26111048460006714,0.3713333010673523,-0.4702136516571045,-9.633310317993164
1745653635.7588224,0.02032105252146721,-0.006183820776641369,-0.2636450231075287,0.4270138144493103,-0.6348487138748169,-9.970399856567383
1745653635.7593427,0.02819746360182762,-0.0021541849710047245,-0.26454830169677734,0.2890983819961548,-0.36377638578414917,-9.803375244140625
1745653635.7597802,0.01715594157576561,0.006026323419064283,-0.26907822489738464,0.2620474398136139,-0.48232945799827576,-9.559508323669434
1745653635.7994952,0.028667280450463295,-0.0036615761928260326,-0.2695026397705078,0.46551957726478577,-0.4945186972618103,-9.534996032714844
1745653635.799625,0.025153761729598045,-0.003448826726526022,-0.27014392614364624,0.2988318204879761,-0.41260743141174316,-10.045763969421387
1745653635.799705,0.035781845450401306,0.005780193489044905,-0.2706124186515808,0.5891806483268738,-0.6881305575370789,-10.033670425415039
1745653635.8064022,0.027764756232500076,0.00014543105498887599,-0.269157737493515,0.4031291604042053,-0.4850044846534729,-9.633109092712402
1745653635.8373291,0.03692518547177315,-0.00016745440370868891,-0.2663639187812805,0.4839645326137543,-0.6438471674919128,-9.586119651794434
1745653635.84313,0.018522748723626137,-0.010274050757288933,-0.2674252390861511,0.5321961641311646,-0.484201580286026,-9.913134574890137
1745653635.8433704,0.034570105373859406,0.006784248165786266,-0.26796597242355347,0.2609959840774536,-0.5824738144874573,-10.006945610046387
1745653635.8468451,0.0350075326859951,0.002706186380237341,-0.2699717879295349,0.5146850347518921,-0.34897685050964355,-9.455453872680664
1745653635.8553267,0.026360739022493362,-0.005214127711951733,-0.27324771881103516,0.26395174860954285,-0.3613550364971161,-9.626272201538086
1745653635.8822074,0.03681797534227371,-0.00021362886764109135,-0.2747575640678406,0.5052658319473267,-0.547585129737854,-10.065000534057617
1745653635.8856437,0.04168718308210373,0.0011014529736712575,-0.27607297897338867,0.32526257634162903,-0.4110315442085266,-9.973564147949219
1745653635.8999104,0.040698058903217316,0.0044615729711949825,-0.27430644631385803,0.33659759163856506,-0.7003244161605835,-9.557387351989746
1745653635.9000711,0.03926166146993637,-0.004363988526165485,-0.27206167578697205,0.5764292478561401,-0.5947226285934448,-9.48513412475586
1745653635.9218452,0.03616855666041374,-0.0017198389396071434,-0.27084752917289734,0.3673892617225647,-0.6611688733100891,-9.995898246765137
1745653635.9234543,0.03846888989210129,0.006302823778241873,-0.2696073651313782,0.5338908433914185,-0.5802755355834961,-9.890434265136719
1745653635.9270732,0.036441754549741745,-0.008283653296530247,-0.2744009494781494,0.43346673250198364,-0.3856634199619293,-9.631402969360352
1745653635.9273286,0.04098561778664589,-0.0011095975060015917,-0.2739357650279999,0.3212851881980896,-0.7213555574417114,-10.011855125427246
1745653635.9289207,0.040580857545137405,-0.003886908758431673,-0.27424728870391846,0.4770909249782562,-0.4715241491794586,-9.769749641418457
1745653635.9704728,0.023805178701877594,-0.004434571601450443,-0.27603158354759216,0.2990146279335022,-0.6087418794631958,-9.670074462890625
1745653635.9743462,0.038095030933618546,-0.004637372680008411,-0.2776626944541931,0.5598307251930237,-0.6311367154121399,-9.616043090820312
1745653635.9784343,0.026166420429944992,-0.009188052266836166,-0.27878397703170776,0.4113742709159851,-0.5920788049697876,-9.784037590026855
1745653635.9835649,0.022170010954141617,0.0021661471109837294,-0.27789363265037537,0.49856990575790405,-0.7314648032188416,-9.847846984863281
1745653636.011464,0.02089811861515045,-0.0044097150675952435,-0.2765416204929352,0.4612160623073578,-0.669248104095459,-9.646768569946289
1745653636.0131767,0.018101995810866356,-0.006297578103840351,-0.2759968638420105,0.24971342086791992,-0.5667447447776794,-9.736773490905762
1745653636.01384,0.02726023830473423,-0.0033095218241214752,-0.278328001499176,0.4827963709831238,-0.5860587954521179,-9.758731842041016
1745653636.0155592,0.02094709873199463,-0.006888848729431629,-0.27339857816696167,0.2943713366985321,-0.4308550953865051,-9.809209823608398
1745653636.0198274,0.03208489343523979,-0.0023036091588437557,-0.27890002727508545,0.46031060814857483,-0.5147758722305298,-9.700376510620117
1745653636.0551634,0.01943276636302471,-0.012830948457121849,-0.2786155641078949,0.4799957275390625,-0.5572112798690796,-9.72694206237793
1745653636.055785,0.03343635052442551,-0.0034382559824734926,-0.2790871560573578,0.39888590574264526,-0.6963810920715332,-9.801671028137207
1745653636.0601377,0.026674380525946617,-0.005259218160063028,-0.2788201570510864,0.5818691253662109,-0.6173659563064575,-9.659021377563477
1745653636.1044347,0.02164585515856743,-0.02087358757853508,-0.2779220938682556,0.3091745376586914,-0.6083409190177917,-9.818269729614258
1745653636.1044948,0.03216511756181717,-0.011711305007338524,-0.2766985297203064,0.49563807249069214,-0.7933326959609985,-9.777183532714844
1745653636.1050487,0.010409703478217125,-0.018792763352394104,-0.2770512104034424,0.3412021994590759,-0.6269013285636902,-9.689593315124512
1745653636.1051676,0.020843561738729477,-0.010812437161803246,-0.2768530249595642,0.2905856966972351,-0.7380248308181763,-9.687170028686523
1745653636.105463,0.013173018582165241,-0.018886594101786613,-0.27627840638160706,0.585091233253479,-0.5165902376174927,-9.619555473327637
1745653636.1382542,0.012297889217734337,-0.01616557128727436,-0.27930375933647156,0.30503183603286743,-0.5412454605102539,-9.91032886505127
1745653636.1464577,0.013013863936066628,-0.01234428770840168,-0.2808871865272522,0.5692203640937805,-0.7076411247253418,-9.87302017211914
1745653636.1465755,0.020489681512117386,-0.02030728943645954,-0.2782374322414398,0.22399194538593292,-0.4867275655269623,-9.749341011047363
1745653636.1504016,0.016867686063051224,-0.01891987770795822,-0.2750067710876465,0.23378698527812958,-0.8296223878860474,-9.692644119262695
1745653636.2022958,0.022109463810920715,-0.019661355763673782,-0.2702992558479309,0.352970689535141,-0.6437631845474243,-9.629926681518555
1745653636.209026,0.008086854591965675,-0.019191492348909378,-0.26494234800338745,-0.07608337700366974,-0.7865092754364014,-9.886468887329102
1745653636.2094822,0.011667123064398766,-0.02004043571650982,-0.2622203230857849,0.1522185504436493,-0.5142876505851746,-9.69925594329834
1745653636.2095602,-0.007610225584357977,-0.023365680128335953,-0.2656776010990143,0.06183586269617081,-0.4894929528236389,-9.649576187133789
1745653636.209595,0.01353714894503355,-0.025517567992210388,-0.2648894488811493,0.36667922139167786,-0.5556143522262573,-9.801406860351562
1745653636.2254462,-0.013707255013287067,-0.03074174001812935,-0.2657507061958313,0.2972479462623596,-0.4901966452598572,-9.968591690063477
1745653636.2272284,-0.0002182301104767248,-0.028244834393262863,-0.2628345489501953,0.2798656225204468,-0.8918266296386719,-9.883340835571289
1745653636.2315254,-0.011584371328353882,-0.032251592725515366,-0.2551545798778534,0.32313600182533264,-0.7432674169540405,-9.516772270202637
1745653636.2320457,-0.007390567101538181,-0.028272395953536034,-0.24811789393424988,0.13101640343666077,-0.7780049443244934,-9.644317626953125
1745653636.267231,-0.0041726622730493546,-0.03149064630270004,-0.24545082449913025,0.38952702283859253,-0.44021502137184143,-9.825634956359863
1745653636.2683363,-6.31928414804861e-05,-0.029935264959931374,-0.24463987350463867,0.0488537959754467,-0.3106525242328644,-9.900850296020508
1745653636.2705498,-0.00693379994481802,-0.03613731265068054,-0.231974795460701,0.21632972359657288,-0.4679325520992279,-9.85994815826416
1745653636.2734451,-0.01583109237253666,-0.029900867491960526,-0.2302023470401764,0.08355700224637985,-0.4593198895454407,-9.719597816467285
1745653636.3127816,-0.0009075470152311027,-0.028561260551214218,-0.230189710855484,0.31870022416114807,-0.6627683043479919,-9.592463493347168
1745653636.3129127,-0.008416174910962582,-0.04105689376592636,-0.2274467498064041,0.3365015387535095,-0.49561524391174316,-9.918024063110352
1745653636.3174756,0.001120309578254819,-0.0327683687210083,-0.22693058848381042,0.37610936164855957,-0.6171663403511047,-10.096528053283691
1745653636.317918,-0.011383549310266972,-0.034498754888772964,-0.22472254931926727,0.37914296984672546,-0.6146548390388489,-9.747293472290039
1745653636.3734758,-0.0043111140839755535,-0.035671383142471313,-0.22194711863994598,0.08035410940647125,-0.6278385519981384,-9.576739311218262
1745653636.3735552,-0.019732479006052017,-0.03970324993133545,-0.2213630974292755,0.2849906384944916,-0.5903233885765076,-9.695955276489258
1745653636.3740396,-0.015576901845633984,-0.03583642467856407,-0.222421333193779,0.05151994898915291,-0.5983685851097107,-10.030735969543457
1745653636.3741097,-0.007090386003255844,-0.025702353566884995,-0.22265323996543884,0.1671276092529297,-0.42801547050476074,-9.705080032348633
1745653636.3745399,-0.02679591253399849,-0.04196176305413246,-0.2221757173538208,0.2223523110151291,-0.5900083780288696,-9.600372314453125
1745653636.4073174,-0.00656485091894865,-0.03326474875211716,-0.22272846102714539,0.1851704716682434,-0.5940395593643188,-9.86477279663086
1745653636.4074745,-0.024043012410402298,-0.031494978815317154,-0.22200500965118408,0.30322688817977905,-0.7337526082992554,-9.933149337768555
1745653636.407537,-0.01972617581486702,-0.029694830998778343,-0.21563653647899628,0.13597245514392853,-0.7386124730110168,-9.749242782592773
1745653636.4117534,-0.02508208155632019,-0.029244547709822655,-0.21329739689826965,0.4021936058998108,-0.7627991437911987,-9.595931053161621
1745653636.440457,-0.02647498808801174,-0.032396022230386734,-0.21276907622814178,0.20039935410022736,-0.5186729431152344,-9.885599136352539
1745653636.4405506,-0.08443314582109451,-0.036583077162504196,-0.1518600732088089,0.1473960429430008,-0.5673167705535889,-10.182962417602539
1745653636.4419177,-0.09252776205539703,-0.028458643704652786,-0.1559385508298874,0.07983660697937012,-0.45092010498046875,-10.010995864868164
1745653636.4436429,-0.09105857461690903,-0.025427645072340965,-0.15613612532615662,0.23527517914772034,-0.3124291002750397,-9.446653366088867
1745653636.4457278,-0.08453886210918427,-0.04198767617344856,-0.15644405782222748,0.07754884660243988,-0.11922621726989746,-9.785944938659668
1745653636.4835572,-0.034276530146598816,-0.01606319472193718,-0.16109393537044525,0.2952265739440918,0.16521117091178894,-9.854192733764648
1745653636.5244765,-0.052619822323322296,-0.021595917642116547,-0.16435480117797852,0.4265429377555847,-0.35669106245040894,-9.805113792419434
1745653636.5245316,-0.02477363869547844,-0.03835536167025566,-0.1625521183013916,0.5489997267723083,-0.7506304383277893,-9.851890563964844
1745653636.524579,-0.04589062184095383,-0.0189365204423666,-0.1609758585691452,0.12200888246297836,-0.15351562201976776,-10.116327285766602
1745653636.5335329,-0.03299390897154808,0.0016098117921501398,-0.16664612293243408,0.29247841238975525,-0.574332594871521,-9.710390090942383
1745653636.5345743,-0.01928749866783619,-0.008402051404118538,-0.17832370102405548,0.8424056172370911,0.12211672961711884,-8.8440523147583
1745653636.5346444,-0.06716559082269669,-0.0309925377368927,-0.18527624011039734,1.0383386611938477,-0.4817357659339905,-10.305990219116211
1745653636.5346963,-0.0021054320968687534,-0.008009519428014755,-0.1933588832616806,0.5167971849441528,-0.19037620723247528,-10.969831466674805
1745653636.5388155,-0.031880877912044525,0.01678687520325184,-0.19312290847301483,0.22464871406555176,-0.6635168790817261,-9.379783630371094
1745653636.5679178,-0.03900853917002678,-0.0030931918881833553,-0.18907471001148224,0.33069130778312683,-1.0436089038848877,-8.485628128051758
1745653636.5767353,-0.04573247209191322,-0.008546271361410618,-0.1869225800037384,0.40839385986328125,-0.3063630759716034,-9.914887428283691
1745653636.5768282,-0.046248260885477066,0.01437763124704361,-0.19387447834014893,0.3279803693294525,-0.11147330701351166,-11.146256446838379
1745653636.5774536,0.005879244301468134,0.03259914368391037,-0.20527532696723938,0.31720632314682007,0.17059390246868134,-9.465710639953613
1745653636.6119542,-0.025305261835455894,0.005692606791853905,-0.21168473362922668,0.6500142812728882,-0.4121261537075043,-8.536483764648438
1745653636.6164029,-0.008668331429362297,-0.005158756393939257,-0.21502594649791718,0.5240294933319092,-0.40154990553855896,-10.217974662780762
1745653636.616474,-0.028579551726579666,0.026433777064085007,-0.21609213948249817,0.3397570550441742,-0.594220757484436,-11.051406860351562
1745653636.6198983,0.03304626792669296,0.04591665789484978,-0.2400091588497162,0.433396577835083,-0.46609729528427124,-9.140787124633789
1745653636.6559324,0.010585774667561054,0.03438565135002136,-0.24047040939331055,0.2627599537372589,-0.6369448304176331,-8.611023902893066
1745653636.6565301,0.0033906460739672184,0.03065676987171173,-0.23604264855384827,0.5776845812797546,-0.6320619583129883,-10.2760648727417
1745653636.6617877,0.017578935250639915,0.050040196627378464,-0.23999135196208954,0.3066161274909973,-0.2641308903694153,-10.739480018615723
1745653636.663424,0.0252058207988739,0.050726525485515594,-0.2400020807981491,0.5807190537452698,-0.317573606967926,-9.245083808898926
1745653636.7007082,0.02622467279434204,0.03257352113723755,-0.24337081611156464,0.512583315372467,-0.016139458864927292,-8.931802749633789
1745653636.7008185,0.03931215777993202,0.031358301639556885,-0.24503234028816223,0.4757832884788513,-0.3295128643512726,-10.306150436401367
1745653636.700952,0.059883080422878265,0.04193975403904915,-0.2438720166683197,0.6398077607154846,-0.28232282400131226,-10.464895248413086
1745653636.7067618,0.04827897995710373,0.04825766012072563,-0.24515235424041748,0.2995297312736511,-0.48127633333206177,-9.426704406738281
1745653636.714043,0.0658569410443306,0.03450465202331543,-0.24265646934509277,0.4686886668205261,-0.5069578886032104,-9.06903076171875
1745653636.7408326,0.04649423435330391,0.028802281245589256,-0.241769477725029,0.5193973183631897,-0.1861969232559204,-9.933717727661133
1745653636.7442737,0.061940811574459076,0.04511399194598198,-0.24879340827465057,0.5669063329696655,-0.4731839597225189,-10.335515975952148
1745653636.7443316,0.06574265658855438,0.03834693878889084,-0.2521589398384094,0.5267709493637085,-0.23555107414722443,-9.577478408813477
1745653636.7482848,0.04897603392601013,0.0313345268368721,-0.2558196783065796,0.4140703082084656,-0.459479421377182,-9.303664207458496
1745653636.7903457,0.05523442476987839,0.029257845133543015,-0.2555743455886841,0.6761254072189331,-0.6848209500312805,-9.801668167114258
1745653636.7904809,0.05353196710348129,0.0393366739153862,-0.25008994340896606,0.31939083337783813,-0.4751927852630615,-10.090210914611816
1745653636.7905629,0.06287838518619537,-0.0083641791716218,-0.27019235491752625,0.5028293132781982,-0.4645131230354309,-9.91547966003418
1745653636.7906387,0.0749339610338211,-0.00022972402803134173,-0.26885420083999634,0.5653872489929199,-0.5892028212547302,-10.16943645477295
1745653636.791045,0.05800805613398552,-0.0017671009991317987,-0.2674817442893982,0.4086762070655823,-0.49671873450279236,-9.626386642456055
1745653636.831681,0.06789405643939972,-0.0005591242224909365,-0.26781168580055237,0.45777782797813416,-0.6805120706558228,-9.237752914428711
1745653636.8318315,0.0650276467204094,-0.01365825068205595,-0.27006012201309204,0.5643021464347839,-0.4447765350341797,-9.612565994262695
1745653636.831951,0.06350123137235641,-0.008651889860630035,-0.26932188868522644,0.5108709931373596,-0.4754877984523773,-10.199254989624023
1745653636.8358254,0.06920059770345688,-0.0023372385185211897,-0.2705911695957184,0.6203151345252991,-0.5856059193611145,-9.700349807739258
1745653636.8736358,0.060513537377119064,-0.01142844371497631,-0.27250850200653076,0.283756822347641,-0.4995923638343811,-9.440617561340332
1745653636.8877769,0.06341762840747833,-0.015257579274475574,-0.2728080153465271,0.59253990650177,-0.763320803642273,-9.75903034210205
1745653636.887848,0.056419432163238525,-0.015411505475640297,-0.26960256695747375,0.4820541441440582,-0.5796974897384644,-10.02482795715332
1745653636.888109,0.06110185384750366,-0.006731904111802578,-0.2696061134338379,0.4150530695915222,-0.6645632982254028,-9.694657325744629
1745653636.8881605,0.04662294313311577,-0.018454089760780334,-0.2679869830608368,0.5675151944160461,-0.523255467414856,-9.303765296936035
1745653636.9186988,0.04709074646234512,-0.022162238135933876,-0.27041512727737427,0.4487268030643463,-0.576235294342041,-9.768986701965332
1745653636.9188378,0.060335636138916016,-0.013799130916595459,-0.272142618894577,0.6390537023544312,-0.48497945070266724,-9.99250602722168
1745653636.9189844,0.05670887231826782,-0.018310921266674995,-0.2723645567893982,0.3657901883125305,-0.4309031367301941,-9.756111145019531
1745653636.9192069,0.05555527284741402,-0.01607741229236126,-0.2716577649116516,0.5032545924186707,-0.5943953394889832,-9.490148544311523
1745653636.9633338,0.06250471621751785,-0.021626057103276253,-0.27287256717681885,0.5165225267410278,-0.4892575144767761,-9.657565116882324
1745653636.9634762,0.062254875898361206,-0.01845298521220684,-0.2710919678211212,0.3552120327949524,-0.5059447288513184,-10.024247169494629
1745653636.969702,0.07064869999885559,-0.01786009967327118,-0.27309057116508484,0.5925339460372925,-0.47824984788894653,-9.708561897277832
1745653636.9697757,0.06316330283880234,-0.02311132103204727,-0.2739998996257782,0.4127230644226074,-0.5039130449295044,-9.565802574157715
1745653637.000561,0.053320009261369705,-0.02204059436917305,-0.27305322885513306,0.36939793825149536,-0.6863653659820557,-9.773868560791016
1745653637.007649,0.05391860753297806,-0.026395779103040695,-0.2729364037513733,0.46757274866104126,-0.5875636339187622,-9.588499069213867
1745653637.0077457,0.03601117059588432,-0.032324932515621185,-0.27342772483825684,0.48599258065223694,-0.6118032932281494,-9.864821434020996
1745653637.0082743,0.058512330055236816,-0.024549655616283417,-0.27586740255355835,0.5073126554489136,-0.626628577709198,-9.943021774291992
1745653637.0480807,0.05473988503217697,-0.023530390113592148,-0.27360016107559204,0.3289974331855774,-0.5436425805091858,-9.701053619384766
1745653637.0482233,0.05057648941874504,-0.02555767633020878,-0.2756066620349884,0.37458476424217224,-0.5221135020256042,-9.481761932373047
1745653637.0482821,0.056369077414274216,-0.029653344303369522,-0.2730226516723633,0.6576583981513977,-0.7177713513374329,-9.67637825012207
1745653637.0483286,0.05850439518690109,-0.02590407431125641,-0.2749406099319458,0.32724252343177795,-0.42961493134498596,-10.109261512756348
1745653637.0495868,0.061662547290325165,-0.021107623353600502,-0.27660101652145386,0.45277079939842224,-0.7940090298652649,-9.955923080444336
1745653637.0854275,0.06320838630199432,-0.029367705807089806,-0.27456605434417725,0.47728729248046875,-0.5352142453193665,-9.501264572143555
1745653637.086484,0.05067883059382439,-0.02797643281519413,-0.27365151047706604,0.4717027544975281,-0.8238722681999207,-9.763029098510742
1745653637.0914223,0.05346573144197464,-0.03266496956348419,-0.27240073680877686,0.5275164842605591,-0.7201572060585022,-10.031607627868652
1745653637.0934725,0.04404088109731674,-0.02031586691737175,-0.2728273570537567,0.248814195394516,-0.6692888140678406,-9.823262214660645
1745653637.1277754,0.04820508509874344,-0.02175796777009964,-0.2733994126319885,0.5184316635131836,-0.7365702390670776,-9.315356254577637
1745653637.130277,0.03824058547616005,-0.03297960013151169,-0.27291423082351685,0.4478600025177002,-0.5295013189315796,-9.607253074645996
1745653637.131504,0.04108625277876854,-0.021146561950445175,-0.27490469813346863,0.4704955518245697,-0.7737032175064087,-10.294672966003418
1745653637.1370137,0.015979861840605736,-0.022069692611694336,-0.27213096618652344,0.5139906406402588,-0.6315895318984985,-9.548235893249512
1745653637.1398244,0.024907950311899185,-0.018304597586393356,-0.27287641167640686,0.3957080841064453,-0.7372133135795593,-9.950006484985352
1745653637.2076,0.028051655739545822,-0.012194470502436161,-0.2722490429878235,0.6206446886062622,-0.6858451962471008,-9.914801597595215
1745653637.2077634,0.014665422029793262,-0.018373090773820877,-0.27221378684043884,0.3100350499153137,-0.6248336434364319,-9.690176010131836
1745653637.207908,0.02200966700911522,-0.012029342353343964,-0.2726135849952698,0.4031272828578949,-0.8436651229858398,-9.676199913024902
1745653637.20804,0.021474407985806465,-0.017156098037958145,-0.27161163091659546,0.4659190773963928,-0.5068234205245972,-9.805607795715332
1745653637.244295,0.022189727053046227,-0.016603315249085426,-0.2751213610172272,0.30128997564315796,-0.6799246072769165,-10.019111633300781
1745653637.2529142,0.03287830203771591,-0.012326134368777275,-0.27429792284965515,0.4526295065879822,-0.5759440660476685,-9.631156921386719
1745653637.2531,0.018677009269595146,-0.014577984809875488,-0.2753852605819702,0.25449350476264954,-0.6971446871757507,-9.5208740234375
1745653637.2531784,0.028423747047781944,-0.012896302156150341,-0.27412086725234985,0.4777402877807617,-0.7619547843933105,-9.73923397064209
1745653637.253256,0.012671899981796741,-0.018072035163640976,-0.2761879563331604,0.4776761531829834,-0.7919750213623047,-9.991551399230957
1745653637.261128,0.023411866277456284,-0.005828008055686951,-0.27533993124961853,0.31597089767456055,-0.8055455088615417,-9.902677536010742
1745653637.2628422,0.0039720176719129086,-0.01376913022249937,-0.2762238383293152,0.48060065507888794,-0.742682933807373,-9.519458770751953
1745653637.2642422,0.0014676067512482405,-0.015535032376646996,-0.27441611886024475,0.39513033628463745,-0.7619773149490356,-9.716219902038574
1745653637.2703464,0.007390243001282215,-0.01536059845238924,-0.2753973603248596,0.5908301472663879,-0.7232499122619629,-10.014708518981934
1745653637.3020957,0.0033856560476124287,-0.014202447608113289,-0.2761824131011963,0.3042610287666321,-0.4869844317436218,-9.891963005065918
1745653637.3062427,0.018213145434856415,-0.005808115936815739,-0.2778432071208954,0.3813965618610382,-0.6940635442733765,-9.456703186035156
1745653637.3341215,0.012018075212836266,-0.015211907215416431,-0.2771294116973877,0.42419862747192383,-0.46034374833106995,-9.522015571594238
1745653637.3342066,0.023697957396507263,-0.014111904427409172,-0.2778049409389496,0.4351102411746979,-0.6908622980117798,-10.059453964233398
1745653637.3417807,0.02627989649772644,-0.012260320596396923,-0.27560022473335266,0.4810989499092102,-0.6135932803153992,-10.036947250366211
1745653637.3441327,0.030025845393538475,-0.008942198939621449,-0.2767643928527832,0.30433768033981323,-0.6506689786911011,-9.658886909484863
1745653637.3477695,0.0042127869091928005,-0.019206363707780838,-0.27363988757133484,0.3608369827270508,-0.6461853384971619,-9.555578231811523
1745653637.3481073,0.015223711729049683,-0.01599252037703991,-0.2709324359893799,0.184918612241745,-0.8326022028923035,-9.846208572387695
1745653637.3986745,-0.0018253109883517027,-0.017813395708799362,-0.26682496070861816,0.3343406021595001,-0.8901284337043762,-9.809150695800781
1745653637.3987756,-0.010554594919085503,-0.016613192856311798,-0.25948017835617065,-0.09458597749471664,-0.9127996563911438,-9.72172737121582
1745653637.3990655,-0.01230422779917717,-0.014500468969345093,-0.25837597250938416,0.15442213416099548,-0.6689519286155701,-9.503620147705078
1745653637.399115,-0.035862844437360764,-0.021941503509879112,-0.2604195475578308,0.050975967198610306,-0.5202221870422363,-9.657502174377441
1745653637.3993323,-0.011240857653319836,-0.019007164984941483,-0.26177939772605896,0.3294227123260498,-0.567943274974823,-9.899654388427734
1745653637.560813,-0.03441331908106804,-0.029290776699781418,-0.26257413625717163,0.4192332327365875,-0.43272286653518677,-9.881942749023438
1745653637.5609424,-0.01791822910308838,-0.02197994291782379,-0.25853627920150757,0.19469204545021057,-0.8640393018722534,-9.89615535736084
1745653637.5611677,-0.013225275091826916,-0.028752829879522324,-0.2502385973930359,0.34821832180023193,-0.7486215829849243,-9.580526351928711
1745653637.5612323,-0.01738613285124302,-0.02957739494740963,-0.2415323704481125,0.1639663279056549,-0.7078612446784973,-9.720792770385742
1745653637.56383,-0.0045839413069188595,-0.026952404528856277,-0.2384873628616333,0.30459338426589966,-0.5938924551010132,-9.875603675842285
1745653637.564022,-0.0017257621511816978,-0.0322265550494194,-0.23895816504955292,0.14785340428352356,-0.40779566764831543,-9.735881805419922
1745653637.564157,0.003948163241147995,-0.029120776802301407,-0.24210429191589355,0.15182407200336456,-0.5135947465896606,-9.557952880859375
1745653637.5642407,-0.003998120315372944,-0.03857624530792236,-0.24401183426380157,0.3124757707118988,-0.6364787220954895,-9.71058464050293
1745653637.5643122,-0.01875418610870838,-0.031432900577783585,-0.2051583230495453,0.2417813092470169,-0.6474343538284302,-9.750703811645508
1745653637.5643983,-0.036328818649053574,-0.03585490584373474,-0.20439283549785614,0.2747279405593872,-0.6850427389144897,-9.78244686126709
1745653637.564446,-0.027245720848441124,-0.02964330092072487,-0.20502114295959473,0.11888277530670166,-0.6628645658493042,-9.777236938476562
1745653637.5644953,-0.04727746173739433,-0.03433394432067871,-0.2051670253276825,0.35280540585517883,-0.6289094686508179,-9.683271408081055
1745653637.5645397,-0.06082930415868759,-0.03182755038142204,-0.20675349235534668,0.20279304683208466,-0.6767463684082031,-9.951082229614258
1745653637.5646544,-0.058598123490810394,-0.02766289748251438,-0.20722714066505432,0.22809772193431854,-0.6882218718528748,-9.87675666809082
1745653637.5647151,-0.07001184672117233,-0.023997319862246513,-0.20514020323753357,0.3051566183567047,-0.6583721041679382,-9.585062980651855
1745653637.5647602,-0.07516127824783325,-0.025628287345170975,-0.20011785626411438,0.3596004247665405,-0.5271729230880737,-9.69209098815918
1745653637.5672483,-0.06822763383388519,-0.03356912359595299,-0.1955999881029129,0.3435247540473938,-0.5743724703788757,-10.065284729003906
1745653637.7131531,-0.047645203769207,-0.016681794077157974,-0.19024741649627686,0.15314820408821106,-0.21681451797485352,-9.85453987121582
1745653637.713318,-0.047798316925764084,-0.021188775077462196,-0.18477335572242737,0.38430270552635193,-0.4578778147697449,-9.574464797973633
1745653637.7151062,-0.02903047576546669,-0.03853374347090721,-0.18426823616027832,-0.06864809989929199,-0.1460288166999817,-9.99052619934082
