timestamp,angular_vel_x,angular_vel_y,angular_vel_z,linear_acc_x,linear_acc_y,linear_acc_z
1745736143.082005,-0.016327615827322006,0.023597458377480507,0.02562553808093071,0.29426535964012146,0.062442194670438766,-9.880775451660156
1745736143.0838585,-0.017632009461522102,0.028103630989789963,0.024600014090538025,0.38086429238319397,-0.25038132071495056,-9.536832809448242
1745736143.0920548,-0.039617765694856644,0.023954831063747406,0.024113621562719345,0.32266825437545776,0.15209373831748962,-9.415608406066895
1745736143.0921054,-0.028488799929618835,0.034537624567747116,0.023573458194732666,0.21203550696372986,-0.018062856048345566,-9.92799186706543
1745736143.1001365,-0.05153539031744003,0.03213876113295555,0.019152190536260605,0.39575380086898804,0.22388777136802673,-9.801405906677246
1745736143.12748,-0.02019549533724785,0.03718619793653488,0.017599377781152725,0.27843067049980164,0.43292707204818726,-9.556144714355469
1745736143.1958926,-0.029880424961447716,0.033081624656915665,0.012115394696593285,0.3710404932498932,0.3307887613773346,-9.71689510345459
1745736143.196,0.002035812009125948,0.035266533493995667,0.01443500630557537,0.20638211071491241,0.49128857254981995,-10.039189338684082
1745736143.1960506,0.021267149597406387,0.04988022893667221,0.015427365899085999,0.344674676656723,0.2208501100540161,-9.705621719360352
1745736143.198782,0.04634324461221695,0.048478253185749054,0.010862586088478565,0.27555662393569946,0.2126396894454956,-9.554426193237305
1745736143.2265196,0.015929879620671272,0.058571744710206985,0.009916163980960846,0.40625786781311035,-0.16133026778697968,-9.993304252624512
1745736143.2266064,0.029566138982772827,0.05488767474889755,0.012329277582466602,0.3392491042613983,0.0880144014954567,-9.714619636535645
1745736143.2266788,0.022447016090154648,0.06733860075473785,0.014522853307425976,0.4428563117980957,0.004423575010150671,-9.42306137084961
1745736143.2301917,0.03406836465001106,0.05752462148666382,0.013982286676764488,0.36491626501083374,0.3033246099948883,-9.724098205566406
1745736143.232461,0.04549305886030197,0.058064401149749756,0.013115011155605316,0.3496550917625427,0.3073522448539734,-10.127148628234863
1745736143.2339814,0.07022812962532043,0.06254502385854721,0.013060888275504112,0.5657852292060852,0.005112883634865284,-9.861091613769531
1745736143.2365763,0.05568297952413559,0.04327469319105148,0.018499065190553665,0.35711950063705444,-0.20724621415138245,-9.62868881225586
1745736143.282592,0.010110822506248951,0.030647480860352516,0.03248806670308113,0.4362149238586426,-1.31566321849823,-10.298163414001465
1745736143.2905345,0.0009063316392712295,0.03578990697860718,0.03897228091955185,0.22847311198711395,-0.5331445932388306,-10.185462951660156
1745736143.2906613,-0.0692945346236229,0.04521220177412033,0.042313385754823685,0.12438786029815674,-0.7931577563285828,-9.659228324890137
1745736143.290716,-0.08519122004508972,0.03296693414449692,0.0350167378783226,0.5755198001861572,-0.026929151266813278,-8.9293212890625
1745736143.2947257,-0.08993653953075409,0.03459823131561279,0.026046782732009888,0.8280538320541382,0.20207016170024872,-9.90560531616211
1745736143.2968924,-0.10951610654592514,0.019471941515803337,0.021714147180318832,0.7176235318183899,0.08793029934167862,-10.748489379882812
1745736143.2970803,0.01010070275515318,0.037088170647621155,0.035951338708400726,0.568220853805542,-0.03857475146651268,-9.64382266998291
1745736143.2984047,0.02045309916138649,0.03883768618106842,0.03776463493704796,0.3969285190105438,0.0023673325777053833,-9.679490089416504
1745736143.2997653,-0.008335230872035027,0.03757980465888977,0.03586962819099426,0.6109740734100342,0.15380828082561493,-9.8147611618042
1745736143.340697,0.007285937666893005,0.033788248896598816,0.030089404433965683,0.4476925730705261,0.3628724217414856,-9.981409072875977
1745736143.346137,-0.0005387453129515052,0.03685085475444794,0.027554238215088844,0.6245037317276001,0.1542886197566986,-9.82096004486084
1745736143.3576784,0.02037423849105835,0.032562293112277985,0.025735408067703247,0.47909626364707947,0.4241161346435547,-9.701550483703613
1745736143.363786,0.0164303258061409,0.03617900609970093,0.03060312196612358,0.5106223225593567,0.044942885637283325,-9.797755241394043
1745736143.3643057,0.035899098962545395,0.0257941335439682,0.033715393394231796,0.6025480628013611,0.23869633674621582,-9.796724319458008
1745736143.3901236,0.04807337373495102,0.04008767381310463,0.038573913276195526,0.5007097721099854,0.2399328649044037,-9.833808898925781
1745736143.3947372,0.0509803369641304,0.028880447149276733,0.037551891058683395,0.6058399081230164,0.38083285093307495,-9.807306289672852
1745736143.3966615,0.06838153302669525,0.024146396666765213,0.03422436863183975,0.5079584717750549,0.44503259658813477,-9.822042465209961
1745736143.39798,0.06952498853206635,0.03001183643937111,0.029477888718247414,0.6151999235153198,0.1465117633342743,-9.955018997192383
1745736143.4252968,0.06760363280773163,0.023350432515144348,0.029201675206422806,0.45590052008628845,0.3289044499397278,-9.801532745361328
1745736143.425362,0.06386051326990128,0.022589046508073807,0.02776380255818367,0.5320271253585815,-0.3426360487937927,-9.658734321594238
1745736143.42635,0.043323419988155365,0.022679489105939865,0.030506962910294533,0.6392266750335693,0.06525437533855438,-9.59559440612793
1745736143.4276776,0.046794913709163666,0.026795044541358948,0.032666221261024475,0.5147422552108765,-0.14552992582321167,-9.958086013793945
1745736143.4641936,0.029429197311401367,0.016124187037348747,0.030644599348306656,0.7227094769477844,0.08875945955514908,-9.840790748596191
1745736143.4670074,0.056475769728422165,0.027101224288344383,0.031959544867277145,0.48157158493995667,0.2525637149810791,-9.801684379577637
1745736143.4692614,0.04074244573712349,0.017477339133620262,0.03289307281374931,0.5718294978141785,0.1467951238155365,-9.741292953491211
1745736143.4708352,0.06776981800794601,0.016245106235146523,0.03145190328359604,0.3692675232887268,0.33582955598831177,-9.749114036560059
1745736143.4736462,0.06747911870479584,0.025989895686507225,0.03204108774662018,0.47391191124916077,0.12052379548549652,-9.787521362304688
1745736143.5076976,0.0702647715806961,0.01630382612347603,0.03168455511331558,0.42626166343688965,0.3009352385997772,-9.711642265319824
1745736143.5117729,0.06951622664928436,0.0022485139779746532,0.033325500786304474,0.5155973434448242,0.2871876358985901,-9.773736953735352
1745736143.5147219,0.0761357769370079,0.010945542715489864,0.03048000857234001,0.48929113149642944,0.05855836346745491,-9.798059463500977
1745736143.516375,0.07248923182487488,2.3915617930470034e-05,0.030077103525400162,0.5361862778663635,0.3674528896808624,-9.717869758605957
1745736143.555255,0.09528519958257675,0.0003522184561006725,0.028151988983154297,0.4732438027858734,0.11432435363531113,-9.934237480163574
1745736143.555303,0.08244123309850693,0.000800298701506108,0.027287650853395462,0.6692929267883301,0.010162288323044777,-9.795392990112305
1745736143.5571558,0.10082552582025528,0.001247064908966422,0.030519535765051842,0.4743489623069763,0.04495338723063469,-9.775606155395508
1745736143.5621793,0.07887153327465057,-0.00391025748103857,0.03144863247871399,0.6813536882400513,-0.19951292872428894,-9.729009628295898
1745736143.5923777,0.09069651365280151,-0.0016996990889310837,0.03405317664146423,0.5672649145126343,0.034977950155735016,-9.741586685180664
1745736143.5959241,0.0788346379995346,0.0027410988695919514,0.03234744444489479,0.6253095269203186,-0.026224398985505104,-9.864828109741211
1745736143.5990367,0.07133506238460541,-0.010974192060530186,0.029698839411139488,0.592317521572113,0.055429764091968536,-9.80475902557373
1745736143.6013978,0.08688122034072876,-0.002786025172099471,0.025811243802309036,0.4632628560066223,0.08678765594959259,-9.775779724121094
1745736143.6040936,0.0640776976943016,0.0007243326981551945,0.022483566775918007,0.832164466381073,0.18846699595451355,-9.719752311706543
1745736143.6382105,0.08129337430000305,-0.014644396491348743,0.01392358262091875,0.9453008770942688,0.3140673041343689,-9.813737869262695
1745736143.640239,0.09417521208524704,0.003450330812484026,0.0026501663960516453,0.645970344543457,0.5425893068313599,-10.03953742980957
1745736143.6463046,0.17951390147209167,0.010467401705682278,-0.17030735313892365,1.123710036277771,-0.45373743772506714,-9.497415542602539
1745736143.6484396,0.180445596575737,0.013344362378120422,-0.17633739113807678,0.8488630056381226,0.020537208765745163,-10.218053817749023
1745736143.6784894,0.17170336842536926,0.019906211644411087,-0.18087634444236755,0.937173068523407,-0.594550609588623,-10.115961074829102
1745736143.680464,0.17926590144634247,0.007268556393682957,-0.18664982914924622,0.7835392355918884,0.09047507494688034,-9.148018836975098
1745736143.6842926,0.1652814894914627,0.011915720999240875,-0.1911175698041916,0.6952932476997375,-0.22523090243339539,-9.539976119995117
1745736143.693895,0.18645921349525452,0.008556351996958256,-0.2002527415752411,0.8544425964355469,-0.03207967057824135,-10.069068908691406
1745736143.6939633,0.19253604114055634,0.01385931484401226,-0.2037445604801178,0.719633162021637,-0.10832388699054718,-9.989212989807129
1745736143.72332,0.19439499080181122,0.0074481600895524025,-0.207301065325737,0.9336240887641907,-0.5507855415344238,-9.422121047973633
1745736143.7280211,0.20330116152763367,0.005099011119455099,-0.20583204925060272,0.6635710000991821,-0.3158019185066223,-9.511248588562012
1745736143.7302928,0.19309821724891663,0.010310678742825985,-0.20780222117900848,0.8795651197433472,-0.8388870358467102,-10.013734817504883
1745736143.7343118,0.1908629685640335,0.009113723412156105,-0.2079412192106247,0.8667579889297485,-0.3315902352333069,-9.780540466308594
1745736143.7668276,0.17458321154117584,0.008292428217828274,-0.2124868929386139,0.7960624098777771,-0.7725142240524292,-9.611651420593262
1745736143.7677994,0.16876688599586487,0.0030894128140062094,-0.22101888060569763,0.8931986093521118,-0.242528036236763,-9.421780586242676
1745736143.7700672,0.14632195234298706,0.007265632506459951,-0.2274456024169922,0.7714279890060425,-0.4534507393836975,-9.973197937011719
1745736143.7708178,0.149052232503891,0.0061858720146119595,-0.23349237442016602,0.9881817102432251,-0.5504170656204224,-9.879949569702148
1745736143.7748666,0.1403629332780838,0.0031201213132590055,-0.23726817965507507,0.7606406211853027,-0.14682546257972717,-9.555252075195312
1745736143.8101966,0.14616286754608154,0.003620769362896681,-0.23625436425209045,0.9094502329826355,-0.7064684629440308,-9.733482360839844
1745736143.8138888,0.163420170545578,-0.00019390317902434617,-0.23766353726387024,0.7946178913116455,0.03476058691740036,-9.684377670288086
1745736143.8151867,0.17098644375801086,0.004398142918944359,-0.2387290745973587,0.8752204775810242,-0.4026094079017639,-9.851655960083008
1745736143.817038,0.18860112130641937,-0.005372458603233099,-0.24066419899463654,0.8850641250610352,-0.008661774918437004,-9.660711288452148
1745736143.853772,0.19772441685199738,-0.0013378092553466558,-0.24743624031543732,0.6888033747673035,-0.29171958565711975,-9.7451810836792
1745736143.8564389,0.20546691119670868,-0.00306188827380538,-0.2528364062309265,0.8600139617919922,-0.39353886246681213,-9.611912727355957
1745736143.8586938,0.1314249187707901,-0.007209172006696463,-0.27113932371139526,0.8060749173164368,-0.8468576669692993,-9.84504508972168
1745736143.8719287,0.13492394983768463,-0.012209080159664154,-0.27072277665138245,0.8873462677001953,-0.5175536870956421,-9.65257453918457
1745736143.8953817,0.1423037052154541,-0.011964419856667519,-0.274394690990448,0.6298086047172546,-0.43051832914352417,-9.697271347045898
1745736143.9028163,0.140936478972435,-0.011514250189065933,-0.27765631675720215,0.7912219762802124,-0.5247203707695007,-9.710321426391602
1745736143.9028926,0.15004655718803406,-0.01399731170386076,-0.2801029682159424,0.6297125220298767,-0.10956959426403046,-9.637651443481445
1745736143.902935,0.16273467242717743,-0.009033864364027977,-0.2840002179145813,0.7986223697662354,-0.7019287347793579,-9.700845718383789
1745736143.9378273,0.1625123769044876,-0.012989217415452003,-0.28854337334632874,0.8451963663101196,-0.1754334419965744,-9.542142868041992
1745736143.9400492,0.1588211953639984,-0.012394865974783897,-0.2905406951904297,0.8748084902763367,-0.7802940011024475,-9.878694534301758
1745736143.946809,0.16460515558719635,-0.018161537125706673,-0.292719304561615,0.9678467512130737,-0.5253838300704956,-9.747268676757812
1745736143.949103,0.14902417361736298,-0.01411951519548893,-0.2937169671058655,0.7557613253593445,-0.7104016542434692,-9.758146286010742
1745736143.9505343,0.15132969617843628,-0.02116730436682701,-0.2968512773513794,0.9294352531433105,-0.8167815208435059,-9.628178596496582
1745736143.9820626,0.1389964520931244,-0.022152822464704514,-0.29795128107070923,0.723021388053894,-0.43593209981918335,-9.660299301147461
1745736143.9848347,0.13153748214244843,-0.019056105986237526,-0.301212877035141,0.8967853784561157,-0.9288955926895142,-9.811040878295898
1745736143.98653,0.13088449835777283,-0.026638725772500038,-0.30419889092445374,0.7623196840286255,-0.4909238815307617,-9.741239547729492
1745736143.9885154,0.0736420601606369,-0.029834693297743797,-0.35119131207466125,0.640682578086853,-0.987509548664093,-9.920206069946289
1745736144.0254037,0.06138744205236435,-0.033270299434661865,-0.349505752325058,0.8007838129997253,-0.8956745862960815,-9.602007865905762
1745736144.026473,0.056927673518657684,-0.03045894205570221,-0.3517829179763794,0.5485326051712036,-0.6764581203460693,-9.656315803527832
1745736144.0278003,0.06310924142599106,-0.03125149384140968,-0.3556571900844574,0.7798393964767456,-1.006410002708435,-9.822046279907227
1745736144.0304284,0.06311635673046112,-0.03703787922859192,-0.3528650403022766,0.6314797401428223,-0.4244656562805176,-9.867830276489258
1745736144.0667212,0.06748493760824203,-0.028434008359909058,-0.3556276261806488,0.6610284447669983,-1.142781138420105,-9.868430137634277
1745736144.0704908,0.06818976253271103,-0.0365181565284729,-0.35485997796058655,0.7254850268363953,-0.5469366908073425,-9.494857788085938
1745736144.0744505,0.06423305720090866,-0.02988760732114315,-0.3560822904109955,0.6803674697875977,-1.0406042337417603,-9.776029586791992
1745736144.0745401,0.061089951545000076,-0.034681838005781174,-0.35456839203834534,0.8804958462715149,-0.8858895301818848,-9.80646800994873
1745736144.0757456,0.06342561542987823,-0.03610070422291756,-0.35861119627952576,0.6616438627243042,-0.7912391424179077,-9.879526138305664
1745736144.111827,0.04786305129528046,-0.03346925973892212,-0.3565223813056946,0.7833662629127502,-1.089921236038208,-9.800981521606445
1745736144.1134968,0.04383500665426254,-0.03554277867078781,-0.3583054542541504,0.5705246925354004,-0.6065863370895386,-9.624617576599121
1745736144.1158943,0.043659619987010956,-0.0321103036403656,-0.3596777319908142,0.6923278570175171,-1.16245436668396,-9.772732734680176
1745736144.1170592,0.04082199186086655,-0.03198933228850365,-0.3616826832294464,0.6951287984848022,-0.5489426851272583,-9.649177551269531
1745736144.1515918,0.042642854154109955,-0.02877182699739933,-0.3628377616405487,0.6508406400680542,-1.0377131700515747,-9.832481384277344
1745736144.153981,0.046365879476070404,-0.032830290496349335,-0.3618468940258026,0.7635660767555237,-0.7645076513290405,-9.633466720581055
1745736144.1553612,0.04620438069105148,-0.02991260588169098,-0.35971206426620483,0.569756269454956,-0.8775498270988464,-9.804774284362793
1745736144.1575286,0.04683052375912666,-0.03050510585308075,-0.35831624269485474,0.7473318576812744,-1.056941032409668,-9.872318267822266
1745736144.1588614,0.045866984874010086,-0.031388405710458755,-0.36007004976272583,0.5622108578681946,-0.6365127563476562,-9.754791259765625
1745736144.1951442,0.04050586745142937,-0.028415363281965256,-0.36091694235801697,0.760959804058075,-1.1333892345428467,-9.636895179748535
1745736144.1973464,0.032311033457517624,-0.03482532501220703,-0.36168503761291504,0.7375431060791016,-0.6779996156692505,-9.616870880126953
1745736144.1986828,0.03369523584842682,-0.027132362127304077,-0.36399704217910767,0.685911238193512,-1.1322598457336426,-9.964747428894043
1745736144.2082546,0.02156188152730465,-0.0340956449508667,-0.3620643615722656,0.815051257610321,-0.7595988512039185,-9.784675598144531
1745736144.241284,0.029181405901908875,-0.027293097227811813,-0.3650673031806946,0.7559983730316162,-1.0958560705184937,-9.870985984802246
1745736144.2425447,0.03268999606370926,-0.03229527920484543,-0.3637165427207947,0.6022722721099854,-0.46646326780319214,-9.6415433883667
1745736144.2438123,0.03126416355371475,-0.02405116707086563,-0.36531761288642883,0.66785728931427,-1.1698417663574219,-9.809797286987305
1745736144.2461905,0.03313986212015152,-0.03278109431266785,-0.3638625741004944,0.7008838057518005,-0.7713735699653625,-9.727897644042969
1745736144.2879353,0.032284434884786606,-0.027274955064058304,-0.36249834299087524,0.5616762638092041,-0.9930925369262695,-9.91330337524414
1745736144.2903976,0.014721068553626537,-0.029961761087179184,-0.36405596137046814,0.7606558799743652,-1.027289628982544,-9.728389739990234
1745736144.2920687,0.016719724982976913,-0.028278792276978493,-0.3636307120323181,0.5912087559700012,-0.7798752188682556,-9.605428695678711
1745736144.2940228,0.006593798287212849,-0.028905760496854782,-0.3666727840900421,0.8206020593643188,-1.2116692066192627,-9.685744285583496
1745736144.2962916,0.000587940972764045,-0.03018016740679741,-0.36573997139930725,0.6358107924461365,-0.6382495760917664,-9.799742698669434
1745736144.32572,-0.0034614517353475094,-0.021702345460653305,-0.36675769090652466,0.6857388615608215,-1.2012898921966553,-9.929901123046875
1745736144.3281732,0.0005921378615312278,-0.029423117637634277,-0.36478549242019653,0.6619787216186523,-0.6084148287773132,-9.515298843383789
1745736144.3304982,-0.0019983609672635794,-0.023064475506544113,-0.3674907386302948,0.5758116245269775,-0.9635937809944153,-9.752702713012695
1745736144.333123,0.009276113472878933,-0.029272640123963356,-0.3650813698768616,0.756221354007721,-0.722266674041748,-9.855691909790039
1745736144.370015,0.0038753666449338198,-0.022463548928499222,-0.3621923327445984,0.532843291759491,-0.5426596403121948,-9.833279609680176
1745736144.3731234,-0.010814733803272247,-0.021400269120931625,-0.3636009693145752,0.6951521635055542,-1.0645252466201782,-9.702077865600586
1745736144.373749,-0.00821838341653347,-0.033150844275951385,-0.36194145679473877,0.6620505452156067,-0.6493794322013855,-9.619898796081543
1745736144.3751757,-0.008373601362109184,-0.023974427953362465,-0.3637722134590149,0.5937998294830322,-1.0355513095855713,-9.897256851196289
1745736144.410373,-0.01088598184287548,-0.026790380477905273,-0.3629622757434845,0.7223389744758606,-0.7485721111297607,-9.670442581176758
1745736144.412968,-0.014359141699969769,-0.02134515903890133,-0.3629348874092102,0.5350449681282043,-0.7943555116653442,-9.591192245483398
1745736144.4143412,-0.01927187480032444,-0.02878989651799202,-0.36268162727355957,0.769402801990509,-0.9615094065666199,-9.727782249450684
1745736144.4157586,-0.0024704665411263704,-0.026936212554574013,-0.3637051284313202,0.5377972722053528,-0.4936419427394867,-9.873739242553711
1745736144.417454,-0.019408566877245903,-0.02435338869690895,-0.3646617829799652,0.6579648852348328,-1.0515985488891602,-9.892812728881836
1745736144.4549081,0.003976107109338045,-0.028520066291093826,-0.3659229576587677,0.5894906520843506,-0.46286264061927795,-9.513772964477539
1745736144.4562397,-0.013205650262534618,-0.024969233199954033,-0.36345958709716797,0.6287471652030945,-1.0402573347091675,-9.657323837280273
1745736144.4579778,-0.005472236778587103,-0.030559834092855453,-0.36266055703163147,0.7052903175354004,-0.7117347717285156,-9.738213539123535
1745736144.4966986,0.005210057832300663,-0.021598082035779953,-0.36028003692626953,0.5433165431022644,-0.8342606425285339,-9.889259338378906
1745736144.5075657,-0.015087929554283619,-0.0289137102663517,-0.36151352524757385,0.6976830363273621,-0.8528913259506226,-9.663479804992676
1745736144.5076277,0.004609959665685892,-0.026631424203515053,-0.36108946800231934,0.49702200293540955,-0.5495349168777466,-9.641923904418945
1745736144.5076902,-0.014695296995341778,-0.025753837078809738,-0.3613837659358978,0.6686188578605652,-1.0687936544418335,-9.837218284606934
1745736144.5077477,0.011955766007304192,-0.02472022734582424,-0.3616792857646942,0.542738139629364,-0.4262145161628723,-9.661892890930176
1745736144.543176,-0.013473792001605034,-0.02197263203561306,-0.36417481303215027,0.6940843462944031,-1.0825728178024292,-9.723640441894531
1745736144.5432603,0.0012697891797870398,-0.029438534751534462,-0.36378952860832214,0.6279648542404175,-0.6886547207832336,-9.604352951049805
1745736144.5490022,-0.003872958244755864,-0.020966771990060806,-0.36056452989578247,0.5382487177848816,-0.8757556080818176,-9.776225090026855
1745736144.549348,-0.013042977079749107,-0.02579721435904503,-0.3612041473388672,0.732428252696991,-0.9050583839416504,-9.852134704589844
1745736144.5855002,0.007182314991950989,-0.022934550419449806,-0.36016321182250977,0.5345231294631958,-0.6824509501457214,-9.741578102111816
1745736144.5879033,-0.014117968268692493,-0.02212134376168251,-0.3585173487663269,0.5448487401008606,-0.8544650077819824,-9.718816757202148
1745736144.6003215,-0.00904739648103714,-0.031041476875543594,-0.36069196462631226,0.669156551361084,-0.7034186720848083,-9.778569221496582
1745736144.6003761,0.007117166183888912,-0.025839274749159813,-0.36126774549484253,0.5280383825302124,-0.5783079266548157,-9.799358367919922
1745736144.600411,-0.01722075045108795,-0.028129125013947487,-0.3621322512626648,0.6890855431556702,-0.9809366464614868,-9.75245475769043
1745736144.62673,0.018026068806648254,-0.02843259833753109,-0.36240628361701965,0.5220192074775696,-0.45301300287246704,-9.617204666137695
1745736144.6290908,-0.016549402847886086,-0.025408148765563965,-0.3612503409385681,0.6849608421325684,-1.0857309103012085,-9.742963790893555
1745736144.6305623,0.007205271627753973,-0.029344862326979637,-0.35989296436309814,0.5919710397720337,-0.6203612089157104,-9.661559104919434
1745736144.6322656,-0.005487384274601936,-0.022037383168935776,-0.3603231906890869,0.6254500150680542,-1.0334837436676025,-9.826826095581055
1745736144.671929,-0.011128309182822704,-0.031824298202991486,-0.35700517892837524,0.6426542401313782,-0.7177691459655762,-9.777362823486328
1745736144.674944,-0.0030835403595119715,-0.022201692685484886,-0.3596506714820862,0.506959855556488,-0.7708472013473511,-9.776006698608398
1745736144.6812181,-0.018716106191277504,-0.02745903469622135,-0.36066895723342896,0.6427826881408691,-0.9073823690414429,-9.706575393676758
1745736144.685492,0.009508868679404259,-0.02440068870782852,-0.35941213369369507,0.46531373262405396,-0.45116958022117615,-9.630524635314941
1745736144.6916785,-0.020973993465304375,-0.02420288696885109,-0.36335980892181396,0.7230039834976196,-0.9488712549209595,-9.77330207824707
1745736144.7130847,0.014403359964489937,-0.02441748045384884,-0.3613029420375824,0.5469371676445007,-0.531150221824646,-9.660097122192383
1745736144.716314,-0.008270869962871075,-0.023963389918208122,-0.3511946499347687,0.6144033670425415,-0.8094843029975891,-9.818860054016113
1745736144.7189326,-0.009321777150034904,-0.02809479832649231,-0.3512750267982483,0.5309601426124573,-0.6640299558639526,-9.718716621398926
1745736144.72101,0.012200751341879368,-0.022525716572999954,-0.34816136956214905,0.5729455947875977,-0.7430699467658997,-9.66156005859375
1745736144.7574914,-0.016694514080882072,-0.032463960349559784,-0.348808228969574,0.6423918604850769,-0.7249948978424072,-9.736784934997559
1745736144.76546,0.019760655239224434,-0.022007273510098457,-0.34818121790885925,0.47948089241981506,-0.7538703083992004,-9.848800659179688
1745736144.7655282,-0.013127483427524567,-0.025582963600754738,-0.3480323255062103,0.6379990577697754,-0.7982577681541443,-9.728384017944336
1745736144.7655823,0.01312017161399126,-0.029230210930109024,-0.34656569361686707,0.45745402574539185,-0.638911783695221,-9.721396446228027
1745736144.8041277,-0.01091880165040493,-0.02621508203446865,-0.3477828800678253,0.6457210779190063,-0.8154401779174805,-9.800156593322754
1745736144.8082864,-9.251944720745087e-05,-0.03072817251086235,-0.3480633497238159,0.49788999557495117,-0.640081524848938,-9.852449417114258
1745736144.8122861,0.01237331423908472,-0.021619031205773354,-0.34959933161735535,0.569724440574646,-0.7796753644943237,-9.69994068145752
1745736144.8148334,-0.014179189689457417,-0.03257191553711891,-0.3480210602283478,0.6190630197525024,-0.6497886776924133,-9.621978759765625
1745736144.8164783,0.022317828610539436,-0.02307036891579628,-0.3468374013900757,0.5031802654266357,-0.7983158826828003,-9.736785888671875
1745736144.8427463,-0.011097443290054798,-0.028169170022010803,-0.34491613507270813,0.5745387673377991,-0.6899150609970093,-9.755271911621094
1745736144.8461053,0.024934988468885422,-0.023585552349686623,-0.3427431285381317,0.42948150634765625,-0.6258382797241211,-9.778966903686523
1745736144.8484569,0.003841729834675789,-0.023177366703748703,-0.3457115590572357,0.5920445919036865,-0.7134760618209839,-9.649270057678223
1745736144.85067,0.01908794604241848,-0.03123755194246769,-0.3445972800254822,0.4724234640598297,-0.5625229477882385,-9.738149642944336
1745736144.8859496,0.009306379593908787,-0.021379265934228897,-0.3457137644290924,0.6075096726417542,-0.9833758473396301,-9.895411491394043
1745736144.8893797,0.0050844489596784115,-0.027579206973314285,-0.3447481393814087,0.5280067920684814,-0.7092182636260986,-9.730433464050293
1745736144.8929527,0.017922893166542053,-0.02062133140861988,-0.34355786442756653,0.48747944831848145,-0.8941424489021301,-9.59118366241455
1745736144.9015162,-0.013090981170535088,-0.02347838133573532,-0.3418208062648773,0.5857567191123962,-0.7062691450119019,-9.579577445983887
1745736144.902251,0.015358242206275463,-0.02260269783437252,-0.33977943658828735,0.543181836605072,-0.7599058151245117,-9.954561233520508
1745736144.9305696,-0.0038612144999206066,-0.02488640323281288,-0.3423152267932892,0.6052250862121582,-0.7050987482070923,-9.897119522094727
1745736144.9347773,0.01904243417084217,-0.02152247168123722,-0.33802473545074463,0.45997413992881775,-0.7962821125984192,-9.71102237701416
1745736144.938491,-0.006741025950759649,-0.02462337352335453,-0.338273823261261,0.6920336484909058,-0.7204915285110474,-9.717340469360352
1745736144.9419856,0.010816438123583794,-0.02730628475546837,-0.3393722474575043,0.430156946182251,-0.72918301820755,-9.928720474243164
1745736144.972762,0.012344482354819775,-0.020266223698854446,-0.33842745423316956,0.5814321637153625,-0.7377916574478149,-9.661211967468262
1745736144.978508,0.001270927838049829,-0.027507444843649864,-0.34026116132736206,0.49446287751197815,-0.6177158355712891,-9.59552001953125
1745736144.9812095,0.017507610842585564,-0.01923905871808529,-0.3389601707458496,0.5111438632011414,-0.9291628003120422,-9.751702308654785
1745736144.9848926,-0.0022297347895801067,-0.02587057650089264,-0.33573007583618164,0.4909992218017578,-0.5126903653144836,-9.746343612670898
1745736145.0125537,0.021140985190868378,-0.015491528436541557,-0.3378819525241852,0.4968106746673584,-0.9056914448738098,-9.878989219665527
1745736145.0159261,0.0027373728808015585,-0.02214687317609787,-0.33595162630081177,0.5781248211860657,-0.6158555746078491,-9.617563247680664
1745736145.017447,0.016286063939332962,-0.022893408313393593,-0.33818718791007996,0.4551427364349365,-0.7367416620254517,-9.711968421936035
1745736145.0197031,-0.0016372058307752013,-0.021741826087236404,-0.3369032144546509,0.6660938858985901,-0.940264880657196,-9.84422492980957
1745736145.0209465,0.0036066644825041294,-0.02413765713572502,-0.3365868926048279,0.43934011459350586,-0.6644660234451294,-9.799163818359375
1745736145.0631204,0.0019057169556617737,-0.01697450876235962,-0.3360665440559387,0.5691667795181274,-0.9486194849014282,-9.627232551574707
1745736145.0665276,-0.015673065558075905,-0.022959530353546143,-0.33438578248023987,0.47784748673439026,-0.5339509844779968,-9.604425430297852
1745736145.0714157,-0.008025385439395905,-0.014493334107100964,-0.33057188987731934,0.48109015822410583,-0.9992243051528931,-9.830384254455566
1745736145.0775373,-0.0031280287075787783,-0.02185126580297947,-0.32806122303009033,0.5225551724433899,-0.39312753081321716,-9.641874313354492
1745736145.1059318,-0.0034439489245414734,-0.015304535627365112,-0.33077412843704224,0.477602481842041,-0.7693517804145813,-9.809165954589844
1745736145.1065733,-0.0009761896217241883,-0.016862040385603905,-0.3284648358821869,0.5787743330001831,-0.7038379907608032,-9.657122611999512
1745736145.1081908,0.005642062984406948,-0.015706777572631836,-0.3290506899356842,0.3747900426387787,-0.4865442216396332,-9.694491386413574
1745736145.1109228,-0.00202755443751812,-0.01436143834143877,-0.3280181884765625,0.6102098822593689,-0.8927275538444519,-9.907784461975098
1745736145.142394,0.010602269321680069,-0.016976602375507355,-0.32725682854652405,0.3985869586467743,-0.3266140818595886,-9.782662391662598
1745736145.1448777,0.004404167644679546,-0.017075736075639725,-0.3317522406578064,0.5568381547927856,-0.9098690748214722,-9.749659538269043
1745736145.148132,-0.00045859365491196513,-0.02305605076253414,-0.3296770453453064,0.5289653539657593,-0.562286376953125,-9.658561706542969
1745736145.1518052,0.0021571912802755833,-0.014760039746761322,-0.3279403746128082,0.48229488730430603,-0.8992459177970886,-9.855657577514648
1745736145.154979,-0.0050565628334879875,-0.02125730738043785,-0.3296676278114319,0.638664722442627,-0.6823965311050415,-9.708147048950195
1745736145.187429,-0.0042181736789643764,-0.014054449275135994,-0.32791298627853394,0.4168664515018463,-0.6822118759155273,-9.749120712280273
1745736145.1935112,-0.011278114281594753,-0.019345145672559738,-0.32887741923332214,0.6432573199272156,-0.8880195617675781,-9.779500961303711
1745736145.1990287,0.005599367432296276,-0.020414162427186966,-0.3269510269165039,0.3712088465690613,-0.34207838773727417,-9.78099250793457
1745736145.2030604,-0.006389358080923557,-0.012944589368999004,-0.3279950022697449,0.5049931406974792,-0.9128978848457336,-9.844403266906738
1745736145.2312028,0.01123323105275631,-0.0221177339553833,-0.32776886224746704,0.4382745623588562,-0.2929512560367584,-9.581233024597168
1745736145.2322288,0.0019260566914454103,-0.01610996015369892,-0.3292892277240753,0.45903271436691284,-0.8891938328742981,-9.750211715698242
1745736145.2345197,0.0052500334568321705,-0.0198047012090683,-0.32959145307540894,0.5544081926345825,-0.5135418176651001,-9.753460884094238
1745736145.2375305,0.011916404590010643,-0.011537380516529083,-0.3279823362827301,0.43080076575279236,-0.7163820266723633,-9.834775924682617
1745736145.2402077,-0.001147933886386454,-0.018251826986670494,-0.3284171521663666,0.6330443620681763,-0.8004540205001831,-9.690923690795898
1745736145.274738,0.0042205872014164925,-0.01767224259674549,-0.3292749524116516,0.4305357038974762,-0.504958987236023,-9.781805992126465
1745736145.278985,-0.007724856026470661,-0.01608557067811489,-0.32801181077957153,0.5779436230659485,-1.0448639392852783,-9.922147750854492
1745736145.2842057,0.019733313471078873,-0.01656181737780571,-0.3288291096687317,0.3977850079536438,-0.5236749053001404,-9.727449417114258
1745736145.2884839,-0.0001651570200920105,-0.020315200090408325,-0.32841289043426514,0.609026312828064,-0.9434353113174438,-9.87315559387207
1745736145.3161945,0.014181718230247498,-0.0179318655282259,-0.3263934552669525,0.4404946267604828,-0.5107482671737671,-9.800867080688477
1745736145.319593,-0.001093208440579474,-0.011894822120666504,-0.32780906558036804,0.5464309453964233,-0.9657893180847168,-9.683418273925781
1745736145.3226612,0.008596817962825298,-0.021271251142024994,-0.3269694745540619,0.5655996203422546,-0.44842514395713806,-9.514358520507812
1745736145.3271995,-0.0047065396793186665,-0.012279311195015907,-0.32775822281837463,0.46270662546157837,-0.7827681303024292,-9.865817070007324
1745736145.3579597,0.0014913462800905108,-0.01935427449643612,-0.3305646479129791,0.5557312965393066,-0.5913032293319702,-9.901556015014648
1745736145.362272,0.017610343173146248,-0.012801917269825935,-0.32992473244667053,0.33248674869537354,-0.4403732717037201,-9.70343017578125
1745736145.3662205,-0.0006638756021857262,-0.018516799435019493,-0.3318932354450226,0.5790606737136841,-0.825515627861023,-9.627592086791992
1745736145.369522,0.030458927154541016,-0.01690717786550522,-0.3286338448524475,0.4015862047672272,-0.3311002254486084,-9.733972549438477
1745736145.3709033,0.007256681565195322,-0.014533760957419872,-0.3290040194988251,0.5470155477523804,-0.9922870397567749,-9.947880744934082
1745736145.4033732,0.02621542289853096,-0.016165073961019516,-0.3259901702404022,0.47022947669029236,-0.47636571526527405,-9.612083435058594
1745736145.4070692,0.01736706867814064,-0.012424116022884846,-0.3276950418949127,0.513536810874939,-0.9099723100662231,-9.679048538208008
1745736145.4122322,0.012557752430438995,-0.01947568915784359,-0.32793140411376953,0.5643887519836426,-0.5595390796661377,-9.788148880004883
1745736145.417924,0.023305844515562057,-0.021536123007535934,-0.31774288415908813,0.4270321726799011,-0.7669874429702759,-9.731100082397461
1745736145.4445496,-0.002626448404043913,-0.02837943658232689,-0.3195907175540924,0.5305994153022766,-0.6189684867858887,-9.595926284790039
1745736145.4474843,0.031224828213453293,-0.025293955579400063,-0.3183879852294922,0.4259869456291199,-0.7076331377029419,-9.750126838684082
1745736145.44892,-0.002163033466786146,-0.02147803083062172,-0.3183050751686096,0.5577166080474854,-0.7572649717330933,-9.81861686706543
1745736145.4521453,0.01688670553267002,-0.024292519316077232,-0.3176577091217041,0.39045530557632446,-0.6281340718269348,-9.76689338684082
1745736145.4867742,0.011578858830034733,-0.020352181047201157,-0.3163164258003235,0.5116510987281799,-0.7926538586616516,-9.62647819519043
1745736145.4902587,0.004651656839996576,-0.025165800005197525,-0.3161396384239197,0.4199068546295166,-0.535649299621582,-9.73571491241455
1745736145.4930382,0.024531101807951927,-0.020156875252723694,-0.3151106536388397,0.45085516571998596,-0.7572890520095825,-9.902207374572754
1745736145.4949834,-0.0012122236657887697,-0.02680070325732231,-0.31522464752197266,0.47789469361305237,-0.5754739046096802,-9.69929027557373
1745736145.4953752,0.0235074982047081,-0.020753320306539536,-0.31818023324012756,0.45048266649246216,-0.703966498374939,-9.651742935180664
1745736145.5296926,-0.005784960463643074,-0.027006980031728745,-0.31804078817367554,0.6074973344802856,-0.7857918739318848,-9.743001937866211
1745736145.5312684,0.017732474952936172,-0.022926468402147293,-0.3150811195373535,0.4081133306026459,-0.6433264017105103,-9.923360824584961
1745736145.532551,-0.004594739526510239,-0.023240137845277786,-0.31665360927581787,0.5708863735198975,-0.7888324856758118,-9.797818183898926
1745736145.534788,0.0014314398868009448,-0.026880493387579918,-0.31363430619239807,0.36018261313438416,-0.6053088307380676,-9.649408340454102
1745736145.574822,0.014863172546029091,-0.02244071662425995,-0.3147073984146118,0.5259494781494141,-0.7581962943077087,-9.677813529968262
1745736145.5781682,-0.0052175214514136314,-0.030957341194152832,-0.317825585603714,0.4653942584991455,-0.3934966027736664,-9.825812339782715
1745736145.581381,0.028129220008850098,-0.019531022757291794,-0.31522777676582336,0.39062806963920593,-0.7046716809272766,-9.869190216064453
1745736145.5857754,0.007007136009633541,-0.025230050086975098,-0.3195786476135254,0.4819020628929138,-0.4639800488948822,-9.552492141723633
1745736145.6176822,0.029946621507406235,-0.022901730611920357,-0.31799107789993286,0.4029034972190857,-0.7117660641670227,-9.687602043151855
1745736145.6190317,0.012670795433223248,-0.02224617637693882,-0.3165436387062073,0.5689477920532227,-0.7512845396995544,-9.815199851989746
1745736145.622655,0.020863255485892296,-0.02586551383137703,-0.31444644927978516,0.4225996136665344,-0.6338915228843689,-9.914522171020508
1745736145.6313927,0.012483438476920128,-0.02016303688287735,-0.3140169382095337,0.4968414902687073,-0.9269886016845703,-9.744169235229492
1745736145.6403327,0.028423434123396873,-0.01899651065468788,-0.3168703317642212,0.3436278700828552,-0.5427572131156921,-9.740680694580078
1745736145.661812,0.029090095311403275,-0.013294232077896595,-0.318604439496994,0.5727470517158508,-0.8486843109130859,-9.929174423217773
1745736145.6639004,0.025201190263032913,-0.019996166229248047,-0.31883177161216736,0.4199489653110504,-0.4799744486808777,-9.806560516357422
1745736145.665876,0.033281005918979645,-0.014662891626358032,-0.31707268953323364,0.5383403897285461,-0.8978521227836609,-9.637807846069336
1745736145.667559,0.0174748245626688,-0.022511286661028862,-0.31738942861557007,0.5119808912277222,-0.5626896619796753,-9.631878852844238
1745736145.7018886,0.032190464437007904,-0.013467828743159771,-0.3175894618034363,0.4168541431427002,-0.8254463076591492,-9.93864631652832
1745736145.7054684,0.014781707897782326,-0.0157497338950634,-0.31864532828330994,0.5162253379821777,-0.5572025179862976,-9.703986167907715
1745736145.709428,0.019671684131026268,-0.01331879198551178,-0.31946486234664917,0.3324030041694641,-0.6430962681770325,-9.735060691833496
1745736145.7128935,0.02132071554660797,-0.016480522230267525,-0.32169073820114136,0.5368709564208984,-0.7781160473823547,-9.73750114440918
1745736145.7182648,0.01995309628546238,-0.018574966117739677,-0.32088738679885864,0.32859697937965393,-0.398223340511322,-9.820919036865234
1745736145.7472255,0.02665250562131405,-0.009151648730039597,-0.32180866599082947,0.4707815647125244,-0.9557290077209473,-9.80420970916748
1745736145.750322,0.024103235453367233,-0.017261860892176628,-0.3210722804069519,0.41189250349998474,-0.34712210297584534,-9.520737648010254
1745736145.755586,0.03080480918288231,-0.012674570083618164,-0.32104235887527466,0.47639259696006775,-0.9785760641098022,-9.783297538757324
1745736145.755665,0.022565975785255432,-0.014194922521710396,-0.3196621537208557,0.5177558064460754,-0.5960307121276855,-9.810998916625977
1745736145.7911665,0.025893066078424454,-0.05531838536262512,-0.2623384892940521,0.21895381808280945,-0.42665863037109375,-9.660259246826172
1745736145.7987227,-0.011587368324398994,-0.03748653084039688,-0.2598620653152466,0.03203728795051575,-0.994045078754425,-10.34368896484375
1745736145.79877,-0.01752869412302971,-0.039978183805942535,-0.251088410615921,0.23774835467338562,-1.2701985836029053,-9.821161270141602
1745736145.7988195,-0.029117310419678688,-0.040569279342889786,-0.24028179049491882,0.17373116314411163,-0.9229931831359863,-9.091348648071289
1745736145.8312535,-0.0590963140130043,-0.046620339155197144,-0.23389177024364471,0.37668851017951965,-1.2208430767059326,-9.734835624694824
1745736145.835755,-0.03538469597697258,-0.04546298831701279,-0.2302314043045044,0.20595303177833557,-0.21416926383972168,-10.299436569213867
1745736145.8387198,-0.042839165776968,-0.040515173226594925,-0.22742800414562225,0.014900917187333107,-0.7776404619216919,-10.065935134887695
1745736145.8420618,-0.020948924124240875,-0.04688293859362602,-0.2283237725496292,-0.028903910890221596,-0.0441567525267601,-9.125816345214844
1745736145.8758035,-0.018534425646066666,-0.06550178676843643,-0.2326972782611847,0.06304743140935898,-0.6285444498062134,-9.603797912597656
1745736145.881401,-0.028719520196318626,-0.05239285156130791,-0.2408791482448578,-0.6422588229179382,-0.3305128514766693,-10.660497665405273
1745736145.8918562,-0.035117827355861664,-0.035366736352443695,-0.2397274225950241,-0.47471174597740173,-0.8883963823318481,-9.323257446289062
1745736145.8924115,-0.04088171571493149,-0.03707774356007576,-0.22527757287025452,0.4246981739997864,-1.4544004201889038,-8.533133506774902
1745736145.89413,-0.053111203014850616,-0.06481900066137314,-0.20547878742218018,0.39110684394836426,-0.766837477684021,-10.233431816101074
1745736145.9199088,-0.08638308197259903,-0.04280192404985428,-0.2023969143629074,0.5644999742507935,-1.6975841522216797,-11.32951831817627
1745736145.9245162,-0.05138038471341133,-0.027375126257538795,-0.19156154990196228,0.5159848928451538,-0.31669050455093384,-9.155776977539062
1745736145.9280365,-0.10568437725305557,-0.05651669576764107,-0.1896933615207672,0.3969786763191223,-0.7468299865722656,-8.85697078704834
1745736145.9317946,-0.0858130007982254,-0.08458974212408066,-0.18834662437438965,0.4671996235847473,-0.05470870062708855,-10.49389934539795
1745736145.9610786,-0.07410110533237457,-0.034199923276901245,-0.18997283279895782,-0.20411190390586853,-0.4352579712867737,-11.237513542175293
1745736145.9644651,-0.06833747774362564,-0.04087220877408981,-0.19099120795726776,-0.32475581765174866,-0.09356272220611572,-8.8035249710083
1745736145.9650173,-0.07839184254407883,-0.06459985673427582,-0.18841299414634705,0.0820486918091774,-0.1702062487602234,-8.080392837524414
1745736145.967476,-0.032748978585004807,-0.06238635629415512,-0.18454793095588684,0.6438261270523071,-0.2812299430370331,-10.793085098266602
1745736146.006765,-0.08059275150299072,-0.05714952200651169,-0.14809122681617737,0.31184735894203186,-0.6884164810180664,-10.456161499023438
1745736146.0129302,-0.09239180386066437,-0.02863674983382225,-0.15115198493003845,0.32181867957115173,-0.9249628186225891,-11.637068748474121
1745736146.0167017,-0.10007498413324356,-0.028371836990118027,-0.14078289270401,0.14364364743232727,-0.7767329812049866,-9.21926498413086
1745736146.0204291,-0.10422147810459137,-0.0334685742855072,-0.1269334852695465,0.2040453851222992,-1.044757604598999,-8.113091468811035
1745736146.0265386,-0.1151302307844162,-0.04159432277083397,-0.10796946287155151,0.5694280862808228,-0.7823564410209656,-9.984750747680664
1745736146.0470562,-0.07416855543851852,-0.022769005969166756,-0.09876388311386108,0.4391651749610901,-0.3476637005805969,-11.452677726745605
1745736146.0481527,-0.09361781924962997,-0.015772966668009758,-0.09500391781330109,0.3221748173236847,-0.3448449969291687,-9.754319190979004
1745736146.051531,-0.04528932645916939,-0.0252119991928339,-0.09040559083223343,0.34553062915802,0.13188262283802032,-8.226601600646973
1745736146.0533502,-0.08990009129047394,-0.04007988050580025,-0.09544218331575394,0.4581539034843445,-0.301215797662735,-10.004056930541992
1745736146.095893,-0.06056264787912369,-0.03331948071718216,-0.09477324783802032,0.4620276987552643,-0.1837148517370224,-11.397928237915039
1745736146.100728,-0.07187652587890625,-0.004413077142089605,-0.09267491102218628,0.30406874418258667,-0.5176819562911987,-9.776881217956543
1745736146.1058826,-0.08082298189401627,-0.025668859481811523,-0.08444677293300629,0.2735026776790619,-0.4944068491458893,-8.240718841552734
1745736146.1092644,-0.07929925620555878,-0.03223884850740433,-0.07720528542995453,0.5640829205513,-0.3738557994365692,-9.564704895019531
1745736146.13206,-0.07548987865447998,-0.018044061958789825,-0.06840068101882935,0.6465458273887634,-0.5497277975082397,-11.328518867492676
1745736146.1353083,-0.02384686842560768,-0.001243924954906106,-0.06098061800003052,0.07683726400136948,-0.08172197639942169,-10.203351974487305
1745736146.1370995,-0.06290854513645172,0.047385964542627335,0.09093119204044342,0.09829975664615631,-0.11235646903514862,-9.206171989440918
1745736146.13999,-0.09790550172328949,0.03665805608034134,0.09334851056337357,0.32587695121765137,-0.24684295058250427,-9.43563461303711
1745736146.14297,-0.07854728400707245,0.03609428182244301,0.09587667882442474,0.4096325933933258,-0.347370445728302,-10.192315101623535
1745736146.1769757,-0.0951029509305954,0.04859036207199097,0.09843546152114868,0.541006863117218,-0.5390751957893372,-10.13038444519043
1745736146.1789968,-0.11706801503896713,0.03782808780670166,0.10293009132146835,0.2927951216697693,-0.48302212357521057,-9.43446159362793
1745736146.1813529,-0.13018473982810974,0.04030994698405266,0.10673091560602188,0.49770984053611755,-0.8176543116569519,-9.289579391479492
1745736146.1862285,-0.14503946900367737,0.03455613926053047,0.11228586733341217,0.48557114601135254,-0.20897312462329865,-9.92286205291748
1745736146.2182488,-0.14527471363544464,0.03981524705886841,0.11499913781881332,0.2736903727054596,-0.47882694005966187,-10.362348556518555
1745736146.2205656,-0.15919965505599976,0.0396934375166893,0.11551499366760254,0.34003686904907227,-0.2110556811094284,-9.570480346679688
1745736146.2221816,-0.14318454265594482,0.043929338455200195,0.1184966117143631,0.16584034264087677,0.11711286008358002,-9.08731460571289
1745736146.2239525,-0.16374817490577698,0.028625592589378357,0.1163673847913742,0.4254623353481293,-0.2069358378648758,-9.725519180297852
1745736146.2265656,-0.13160893321037292,0.033860065042972565,0.1222086176276207,0.3824101388454437,0.21375325322151184,-10.277985572814941
1745736146.264243,-0.13851681351661682,0.049892526119947433,0.12082161009311676,0.4252317547798157,-0.2760464549064636,-9.92938232421875
1745736146.2664735,-0.12946948409080505,0.029008889570832253,0.12663599848747253,0.39732855558395386,0.08875297009944916,-9.028806686401367
1745736146.269821,-0.1387343853712082,0.03078833594918251,0.12715834379196167,0.47375646233558655,-0.2800168991088867,-9.652878761291504
1745736146.2713594,-0.1365978717803955,0.029420843347907066,0.13458725810050964,0.5508727431297302,-0.11072244495153427,-10.338727951049805
1745736146.3078756,-0.1211949810385704,0.05008646100759506,0.14002418518066406,0.4470948576927185,-0.191801518201828,-9.8555908203125
1745736146.3114595,-0.15156400203704834,0.030745163559913635,0.1448388248682022,0.6304088830947876,-0.14916089177131653,-9.116739273071289
1745736146.3142169,-0.13994689285755157,0.02126508578658104,0.1466369926929474,0.536112904548645,-0.15347987413406372,-9.645423889160156
1745736146.3181896,-0.14939948916435242,0.04000505059957504,0.1515277922153473,0.6876826286315918,-0.276580274105072,-10.335883140563965
1745736146.3203988,-0.16538174450397491,0.03174986317753792,0.15424878895282745,0.5263941884040833,0.09744821488857269,-9.9100923538208
1745736146.3506293,-0.14912812411785126,0.026019567623734474,0.15691670775413513,0.6396188139915466,-0.16427060961723328,-9.211946487426758
1745736146.3517306,-0.1134016364812851,0.03361709043383598,0.1834801435470581,0.5498406887054443,-0.05152159929275513,-9.850680351257324
1745736146.354784,-0.13963636755943298,0.015421232208609581,0.18356852233409882,0.47626495361328125,-0.04335641860961914,-9.426915168762207
1745736146.3559752,-0.12618322670459747,0.029800433665513992,0.18891754746437073,0.47601404786109924,-0.2896510064601898,-9.645544052124023
1745736146.396834,-0.16627225279808044,0.023247739300131798,0.1900726854801178,0.5789391398429871,-0.13642075657844543,-9.82374382019043
1745736146.398575,-0.16026923060417175,0.021036481484770775,0.19414551556110382,0.5242660045623779,-0.1748790740966797,-9.858906745910645
1745736146.4010284,-0.18310756981372833,0.024481650441884995,0.19779983162879944,0.705517053604126,-0.1200234517455101,-9.674032211303711
1745736146.4030743,-0.16769452393054962,0.02046564593911171,0.19941183924674988,0.37385448813438416,0.22083088755607605,-9.70590877532959
1745736146.4367702,-0.18545033037662506,0.017369432374835014,0.20412929356098175,0.5469584465026855,-0.04234398528933525,-9.771533966064453
1745736146.43987,-0.15897955000400543,0.016273893415927887,0.20909249782562256,0.5474441051483154,0.4482332170009613,-9.706820487976074
1745736146.4463706,-0.152506485581398,0.022188644856214523,0.21181528270244598,0.4641393721103668,0.17024947702884674,-9.840484619140625
1745736146.4487963,-0.14625291526317596,0.008025093004107475,0.21231940388679504,0.4750979542732239,0.45886096358299255,-9.67676067352295
1745736146.479856,-0.12159186601638794,0.015723366290330887,0.21456602215766907,0.4348877966403961,0.2361878901720047,-9.742883682250977
1745736146.4800477,-0.1323275864124298,0.014209958724677563,0.21669641137123108,0.5605712532997131,0.2512609660625458,-9.754125595092773
1745736146.480128,-0.12412836402654648,0.0097946897149086,0.21558669209480286,0.4303781986236572,0.22203269600868225,-9.77417278289795
1745736146.4827073,-0.1415661871433258,-0.010149158537387848,0.27155983448028564,0.3565773665904999,0.4073663651943207,-9.802671432495117
1745736146.483749,-0.1498728096485138,-0.015014204196631908,0.2758958339691162,0.5735677480697632,0.3028488755226135,-9.482308387756348
1745736146.522212,-0.13715285062789917,-0.0149607565253973,0.2774239182472229,0.45850029587745667,0.5895154476165771,-9.797788619995117
1745736146.5235636,-0.14578169584274292,-0.015925200656056404,0.27748313546180725,0.5656326413154602,0.2788122296333313,-10.127172470092773
1745736146.5260074,-0.13901421427726746,-0.020060556009411812,0.2811795771121979,0.41473865509033203,0.5849925875663757,-9.783159255981445
1745736146.5293067,-0.13203813135623932,-0.01068161241710186,0.28226110339164734,0.4929974675178528,0.2941540479660034,-9.484285354614258
1745736146.5627773,-0.14827200770378113,-0.023209061473608017,0.2842763662338257,0.4800492227077484,0.5085486769676208,-9.732046127319336
1745736146.586436,-0.12893758714199066,-0.019108951091766357,0.2849591076374054,0.4452710747718811,0.41794806718826294,-10.07319450378418
1745736146.5866108,-0.14560016989707947,-0.01838177815079689,0.28389936685562134,0.5462361574172974,0.3836226165294647,-9.87281322479248
1745736146.5867236,-0.12899687886238098,-0.017202679067850113,0.2871658504009247,0.29499948024749756,0.5765692591667175,-9.567706108093262
1745736146.5867984,-0.15731389820575714,-0.021038692444562912,0.2877004146575928,0.5134652256965637,0.2274477183818817,-9.6499605178833
1745736146.6144059,-0.1351529061794281,-0.023595109581947327,0.28838643431663513,0.46899762749671936,0.5633296966552734,-9.900915145874023
1745736146.6144927,-0.14994201064109802,-0.013389749452471733,0.28872090578079224,0.5566776990890503,0.3078598380088806,-10.03797721862793
1745736146.61455,-0.1511850506067276,-0.023748857900500298,0.29309219121932983,0.4111136496067047,0.6034168004989624,-9.653416633605957
1745736146.6146178,-0.13642781972885132,-0.02060253918170929,0.29412978887557983,0.42799291014671326,0.36454400420188904,-9.586359024047852
1745736146.6507568,-0.152652308344841,-0.019704310223460197,0.29452067613601685,0.530241847038269,0.6020538210868835,-9.798786163330078
1745736146.654446,-0.13387666642665863,-0.015956584364175797,0.295665442943573,0.3470887541770935,0.5737918615341187,-10.064596176147461
1745736146.659253,-0.14146661758422852,-0.0202733613550663,0.2975415587425232,0.5707787275314331,0.547221302986145,-9.645726203918457
1745736146.6617799,-0.1297861784696579,-0.021063903346657753,0.29833775758743286,0.37485069036483765,0.6481620073318481,-9.63132095336914
1745736146.6667385,-0.13117192685604095,-0.01825217343866825,0.2987412214279175,0.5234339833259583,0.4216596484184265,-9.919157028198242
1745736146.6952684,-0.13950636982917786,-0.021271754056215286,0.3000217080116272,0.45586666464805603,0.6333526372909546,-9.921130180358887
1745736146.70807,-0.12323057651519775,-0.017615729942917824,0.3011793792247772,0.5163465738296509,0.34842240810394287,-9.714899063110352
1745736146.7083578,-0.12570936977863312,-0.029524292796850204,0.309375137090683,0.4291134774684906,0.8731915354728699,-9.856112480163574
1745736146.7084162,-0.11918926239013672,-0.01858631707727909,0.3097861409187317,0.5373469591140747,0.4355529248714447,-9.979666709899902
1745736146.736757,-0.12496845424175262,-0.024095797911286354,0.308737188577652,0.3985269367694855,0.8714278340339661,-9.689964294433594
1745736146.7396543,-0.1215110570192337,-0.021920813247561455,0.3094482719898224,0.4072536528110504,0.45124131441116333,-9.623985290527344
1745736146.7471867,-0.12426862865686417,-0.02987072989344597,0.3103424310684204,0.6029766798019409,0.6136882901191711,-9.68824577331543
1745736146.7495046,-0.12006215006113052,-0.017484087496995926,0.3128717839717865,0.3985466957092285,0.6813045740127563,-10.041425704956055
1745736146.7790222,-0.13617469370365143,-0.024497853592038155,0.3113156259059906,0.49999433755874634,0.4152868688106537,-9.799765586853027
1745736146.781253,-0.1226671114563942,-0.026350419968366623,0.3141852617263794,0.3620285987854004,0.7490295171737671,-9.437104225158691
1745736146.783076,-0.13443705439567566,-0.01813824474811554,0.31489458680152893,0.550774335861206,0.4714049696922302,-9.731977462768555
1745736146.7860742,-0.13263912498950958,-0.02637805975973606,0.31755757331848145,0.4830307066440582,0.762069821357727,-10.08328628540039
1745736146.822065,-0.11387953907251358,-0.019442789256572723,0.3155576288700104,0.4704650342464447,0.641673743724823,-9.82011890411377
1745736146.8263695,-0.13026361167430878,-0.0255456380546093,0.31828755140304565,0.500679612159729,0.721813976764679,-9.514089584350586
1745736146.829524,-0.10923342406749725,-0.022711819037795067,0.3192227780818939,0.31943491101264954,0.6973403692245483,-9.774881362915039
1745736146.832621,-0.13764764368534088,-0.024416493251919746,0.3196655809879303,0.5464965105056763,0.5253311395645142,-9.915133476257324
1745736146.8349507,-0.09942817687988281,-0.03239268809556961,0.33066806197166443,0.3449786305427551,0.9502288103103638,-9.814136505126953
1745736146.8721902,-0.10302861034870148,-0.02826022543013096,0.33033305406570435,0.4790969491004944,0.639456570148468,-9.51517105102539
1745736146.8722768,-0.10753235965967178,-0.02981407567858696,0.3328976035118103,0.4440170228481293,1.0477712154388428,-9.569910049438477
1745736146.8723705,-0.09703591465950012,-0.025199109688401222,0.3320302367210388,0.44998154044151306,0.7863224744796753,-10.028564453125
1745736146.872502,-0.09679214656352997,-0.035460006445646286,0.3330462574958801,0.5167273283004761,1.1116387844085693,-9.78222942352295
1745736146.9080195,-0.07286975532770157,-0.024937693029642105,0.33031928539276123,0.3132270276546478,0.9911357760429382,-9.605355262756348
1745736146.90957,-0.0894937589764595,-0.03101104125380516,0.33219632506370544,0.45210522413253784,0.9466147422790527,-9.644917488098145
1745736146.918467,-0.07466741651296616,-0.030520398169755936,0.3319496810436249,0.3122428059577942,0.9980894327163696,-9.87270450592041
1745736146.918514,-0.07252130657434464,-0.027822071686387062,0.3303817808628082,0.5558950304985046,0.7220559120178223,-9.743642807006836
1745736146.9185815,-0.08410511910915375,-0.029082944616675377,0.3320995271205902,0.4293068051338196,1.0841249227523804,-9.66169548034668
1745736146.9504676,-0.07674039155244827,-0.03178691118955612,0.3297567367553711,0.4606039524078369,0.678747832775116,-9.772440910339355
1745736146.9534187,-0.08422565460205078,-0.034038253128528595,0.33108335733413696,0.5008772015571594,0.9492209553718567,-9.705799102783203
1745736146.9548223,-0.08106160908937454,-0.021776480600237846,0.333205908536911,0.40176334977149963,0.8213268518447876,-9.790546417236328
1745736146.9584618,-0.09268268197774887,-0.03033902682363987,0.3324236273765564,0.4522589147090912,0.7815995216369629,-9.727922439575195
1745736146.9940553,-0.06989295780658722,-0.029353627935051918,0.3346916735172272,0.3155292868614197,1.1190177202224731,-9.557912826538086
1745736146.9963093,-0.08933419734239578,-0.02752348780632019,0.33338919281959534,0.4927676320075989,0.7134789228439331,-9.763312339782715
1745736146.9978611,-0.0686708316206932,-0.029657572507858276,0.3339230418205261,0.3184160590171814,1.2481025457382202,-9.81930923461914
1745736147.0042348,-0.07883817702531815,-0.025671685114502907,0.33201292157173157,0.40156444907188416,0.7444551587104797,-9.779566764831543
1745736147.0049565,-0.0658271461725235,-0.03139342740178108,0.3325875401496887,0.4745567739009857,1.0854036808013916,-9.544085502624512
1745736147.038103,-0.07007081806659698,-0.023366576060652733,0.33294931054115295,0.4396486282348633,0.8535779118537903,-9.80932331085205
1745736147.04118,-0.07799039036035538,-0.03167877718806267,0.3343524932861328,0.4766318202018738,0.9064689874649048,-9.863679885864258
1745736147.0450459,-0.059317510575056076,-0.026388686150312424,0.33416828513145447,0.3643954396247864,0.9510405659675598,-9.664647102355957
1745736147.0477908,-0.07987327128648758,-0.0245851781219244,0.33676785230636597,0.5440775156021118,0.814416766166687,-9.526983261108398
1745736147.0808654,-0.06086640805006027,-0.030488720163702965,0.3326115012168884,0.40031400322914124,1.1539286375045776,-9.75691032409668
1745736147.0824375,-0.05563708394765854,-0.02134966477751732,0.3333396017551422,0.3374479413032532,0.9230819940567017,-9.608348846435547
1745736147.0847843,-0.07423494756221771,-0.03356368467211723,0.33090949058532715,0.39203721284866333,0.9299032092094421,-9.622114181518555
1745736147.0883994,-0.038381993770599365,-0.026926180347800255,0.33386608958244324,0.40532174706459045,0.9031473398208618,-9.774781227111816
1745736147.1244967,-0.07378898561000824,-0.023674681782722473,0.3341023325920105,0.5023940801620483,0.8869285583496094,-9.852303504943848
1745736147.126668,-0.04803982004523277,-0.02801916003227234,0.3347528278827667,0.2923830449581146,1.028652548789978,-9.691306114196777
1745736147.1307137,-0.06003639101982117,-0.029820537194609642,0.3340485394001007,0.5307390689849854,0.8133786916732788,-9.602079391479492
1745736147.1340904,-0.05528901889920235,-0.024202698841691017,0.3360976278781891,0.38600626587867737,1.1139665842056274,-9.763421058654785
1745736147.176736,-0.054092127829790115,-0.02032417431473732,0.334668904542923,0.425348699092865,0.7346406579017639,-9.89494514465332
1745736147.1770437,-0.06238177418708801,-0.029935821890830994,0.33538100123405457,0.4678032398223877,1.0981485843658447,-9.554848670959473
1745736147.1770988,-0.04634901136159897,-0.022627124562859535,0.3346122205257416,0.4301849901676178,0.8315475583076477,-9.701565742492676
1745736147.1782558,-0.0691913440823555,-0.026013651862740517,0.3340950310230255,0.47306257486343384,1.1041069030761719,-9.876623153686523
1745736147.1819236,-0.049328260123729706,-0.026508573442697525,0.3339480757713318,0.3401521146297455,1.0470705032348633,-9.8236722946167
1745736147.2107131,-0.01023491844534874,-0.03311023861169815,0.332760751247406,0.4311242997646332,1.0983377695083618,-9.769783020019531
1745736147.2277858,0.008205551654100418,-0.028922777622938156,0.333957701921463,0.3953118920326233,1.0502135753631592,-9.606688499450684
1745736147.2299879,-0.006590188946574926,-0.03084428980946541,0.3336975574493408,0.484240859746933,0.9808138608932495,-9.744236946105957
1745736147.2339587,0.016386207193136215,-0.025199666619300842,0.3331679403781891,0.26985684037208557,1.1858117580413818,-9.898087501525879
1745736147.2527673,-0.008868197910487652,-0.028781777247786522,0.3304511308670044,0.4597868025302887,0.8180360794067383,-9.71335220336914
1745736147.256282,0.018779676407575607,-0.03333031386137009,0.3297005295753479,0.40729275345802307,1.1913177967071533,-9.497142791748047
1745736147.2575865,-0.008622764609754086,-0.02390463836491108,0.33013832569122314,0.5056264996528625,0.7848297357559204,-9.879809379577637
1745736147.260722,-0.0028196622151881456,-0.03460325673222542,0.32816800475120544,0.40487194061279297,1.0503121614456177,-9.90074634552002
1745736147.2957597,0.007527794688940048,-0.02280564047396183,0.3310917913913727,0.4334260821342468,0.873062789440155,-9.593446731567383
1745736147.3014133,-0.01582709327340126,-0.028386810794472694,0.33218228816986084,0.47389084100723267,0.9956575632095337,-9.519742012023926
1745736147.3057494,0.008798321709036827,-0.027961010113358498,0.3316931426525116,0.3610260486602783,0.9794052839279175,-9.904577255249023
1745736147.3099475,-0.004750801250338554,-0.028010690584778786,0.3328307271003723,0.5331941843032837,1.0124742984771729,-9.835949897766113
1745736147.3114603,0.017367882654070854,-0.027361955493688583,0.3309638202190399,0.29585781693458557,1.1979678869247437,-9.655523300170898
1745736147.338816,0.001735780038870871,-0.025413310155272484,0.3314668536186218,0.44123896956443787,0.9523110389709473,-9.640327453613281
1745736147.3403654,0.011379292234778404,-0.033748410642147064,0.3290611803531647,0.3693724274635315,1.0669604539871216,-9.782999038696289
1745736147.34221,0.022526104003190994,-0.023342501372098923,0.3300696611404419,0.47315502166748047,0.8828880190849304,-9.837634086608887
1745736147.3458548,-0.006859282497316599,-0.02902855910360813,0.3298424482345581,0.4088559150695801,1.0086020231246948,-9.737618446350098
1745736147.3824942,0.01972006820142269,-0.031229469925165176,0.33004894852638245,0.40013569593429565,0.8823416829109192,-9.634153366088867
1745736147.3835363,-0.001612645573914051,-0.030343597754836082,0.3317408561706543,0.527786374092102,0.9522925615310669,-9.704821586608887
1745736147.3878014,0.012345653958618641,-0.022785354405641556,0.3308195173740387,0.32112208008766174,1.0352784395217896,-9.867692947387695
1745736147.3931577,0.0029152724891901016,-0.026530694216489792,0.33271312713623047,0.494831383228302,0.7556923031806946,-9.704473495483398
1745736147.3984046,0.012242108583450317,-0.03230468928813934,0.3324885368347168,0.3711531460285187,1.2408114671707153,-9.549076080322266
1745736147.4247248,0.012658809311687946,-0.024021804332733154,0.33126530051231384,0.4442753791809082,0.7866901159286499,-9.881376266479492
1745736147.4279015,0.0024006396997720003,-0.03023252822458744,0.3309662342071533,0.3211783766746521,1.1748813390731812,-9.840540885925293
1745736147.432751,0.0170085821300745,-0.02167016640305519,0.3320814073085785,0.34480708837509155,0.795289158821106,-9.605145454406738
1745736147.4342117,0.008438341319561005,-0.02820330299437046,0.331373006105423,0.4844110608100891,1.0771653652191162,-9.441502571105957
1745736147.4700615,0.011256758123636246,-0.024073144420981407,0.3299100995063782,0.2921176254749298,0.9588502049446106,-9.972696304321289
1745736147.473516,0.001953108236193657,-0.027466747909784317,0.3296259045600891,0.5213650465011597,0.8065043687820435,-9.907819747924805
1745736147.4774196,0.016781846061348915,-0.023851748555898666,0.33180296421051025,0.3598109483718872,1.1037780046463013,-9.499178886413574
1745736147.480596,0.0005692612612619996,-0.020265717059373856,0.33145585656166077,0.45250049233436584,0.7165058255195618,-9.610353469848633
1745736147.510459,0.008435163646936417,-0.029619643464684486,0.33128708600997925,0.3845294415950775,1.042433500289917,-9.889577865600586
1745736147.5119247,0.011804013513028622,-0.019922848790884018,0.3327142000198364,0.42491617798805237,0.9206745028495789,-9.831621170043945
1745736147.5137925,0.0038616093806922436,-0.02731023170053959,0.3316692113876343,0.4198612570762634,1.0309332609176636,-9.596010208129883
1745736147.5162263,0.01734350621700287,-0.023981140926480293,0.3308194875717163,0.29772794246673584,1.0458216667175293,-9.750700950622559
1745736147.5174866,-0.001093005994334817,-0.023462887853384018,0.3303301930427551,0.4695020616054535,0.8004768490791321,-9.8606595993042
1745736147.5551145,0.028161734342575073,-0.024460559710860252,0.33064383268356323,0.3446945250034332,1.1290287971496582,-9.624467849731445
1745736147.5598707,0.020767370238900185,-0.020402152091264725,0.33611729741096497,0.4782124161720276,0.7500830292701721,-9.808136940002441
1745736147.5640752,0.001785916043445468,-0.02360914647579193,0.3362472653388977,0.49158376455307007,1.0946922302246094,-9.70866870880127
1745736147.5680864,0.030503835529088974,-0.020479002967476845,0.33502641320228577,0.3350006639957428,0.9447200894355774,-9.83122444152832
1745736147.5976539,0.0013235155493021011,-0.025328949093818665,0.3348502516746521,0.4277551770210266,0.8757650256156921,-9.767510414123535
1745736147.60094,0.026388486847281456,-0.023253116756677628,0.33498886227607727,0.28003352880477905,0.9173924326896667,-9.646368026733398
1745736147.6026156,0.009213092736899853,-0.02110864967107773,0.33610886335372925,0.506003737449646,0.7527550458908081,-9.585426330566406
1745736147.603067,0.0036567319184541702,-0.025093305855989456,0.3367418646812439,0.3270605206489563,0.9705120921134949,-9.8628511428833
1745736147.6389961,0.014040079899132252,-0.022738022729754448,0.334728866815567,0.5169183015823364,0.715367317199707,-9.874486923217773
1745736147.640244,0.00021205097436904907,-0.02413748949766159,0.3367672264575958,0.4265671670436859,1.040625810623169,-9.626636505126953
1745736147.6418595,0.013335591182112694,-0.017518382519483566,0.3362422585487366,0.32078999280929565,0.8088714480400085,-9.693178176879883
1745736147.6445909,-0.002381398808211088,-0.025925327092409134,0.33655381202697754,0.48000216484069824,0.806266188621521,-9.75849723815918
1745736147.64798,0.01607995294034481,-0.021226797252893448,0.336881548166275,0.3290775716304779,1.0153086185455322,-9.746591567993164
1745736147.688421,0.0003415009123273194,-0.019295770674943924,0.33738917112350464,0.4384327530860901,0.7789815068244934,-9.711054801940918
1745736147.6970475,0.00823180191218853,-0.025214528664946556,0.3367013931274414,0.292361855506897,1.1263662576675415,-9.723638534545898
1745736147.6973174,0.005846978630870581,-0.018727049231529236,0.3374851644039154,0.48496168851852417,0.6892266869544983,-9.781105041503906
1745736147.6995037,0.007976850494742393,-0.0257328562438488,0.33350667357444763,0.4349014163017273,1.1713107824325562,-9.645193099975586
1745736147.7266867,0.0036471791099756956,-0.021084822714328766,0.33433395624160767,0.36057132482528687,0.6951368451118469,-9.910287857055664
1745736147.7270823,0.0020957670640200377,-0.029792627319693565,0.3351474702358246,0.5233669281005859,0.9366686940193176,-9.725113868713379
1745736147.728292,0.012960320338606834,-0.0190171729773283,0.33541256189346313,0.34784621000289917,0.9285875558853149,-9.705766677856445
1745736147.7283268,-0.006236043758690357,-0.023572441190481186,0.33458608388900757,0.4289950728416443,0.8004236221313477,-9.708097457885742
1745736147.7700903,0.018660923466086388,-0.024807235226035118,0.33758631348609924,0.2763773798942566,0.9839431047439575,-9.764676094055176
1745736147.7730627,5.84187000640668e-05,-0.020898722112178802,0.33635711669921875,0.4833967685699463,0.7753118276596069,-9.697209358215332
1745736147.776464,0.016402671113610268,-0.026464145630598068,0.33683666586875916,0.3718213737010956,1.097405195236206,-9.706785202026367
1745736147.7826748,0.021832749247550964,-0.019603267312049866,0.3372032940387726,0.3737947642803192,0.8623777627944946,-9.553606033325195
1745736147.8105876,-0.013651693239808083,-0.028337573632597923,0.33513835072517395,0.4555254876613617,0.7398242950439453,-9.785970687866211
1745736147.8146908,0.012769115157425404,-0.026228681206703186,0.3334302008152008,0.3733600974082947,0.9451321363449097,-9.901183128356934
1745736147.8221183,-0.007748194970190525,-0.0211710873991251,0.3350293040275574,0.4508982300758362,0.7160071134567261,-9.676030158996582
1745736147.8232722,-0.0005743733490817249,-0.023135513067245483,0.334956556558609,0.22396349906921387,1.0112565755844116,-9.55699348449707
1745736147.8253725,-0.0055000619031488895,-0.02452615275979042,0.3364143669605255,0.46563583612442017,0.6310389637947083,-9.76573371887207
1745736147.8621578,-0.0054044900462031364,-0.027385320514440536,0.33863550424575806,0.4368712902069092,1.0795233249664307,-9.817776679992676
1745736147.862714,0.01374086458235979,-0.019512897357344627,0.3351322412490845,0.3643089532852173,0.8658491969108582,-9.854111671447754
1745736147.862795,-0.010965196415781975,-0.0297909677028656,0.33700695633888245,0.37104037404060364,1.0280394554138184,-9.68627643585205
1745736147.862855,0.01883540116250515,-0.021796545013785362,0.3365476727485657,0.2971179783344269,0.8295928835868835,-9.650684356689453
1745736147.9011827,-0.0011531909694895148,-0.022284306585788727,0.33567267656326294,0.4994575083255768,0.8471500277519226,-9.63526725769043
1745736147.9012659,-0.001289918553084135,-0.027567172423005104,0.3344908654689789,0.28104525804519653,0.9254060983657837,-9.907793998718262
1745736147.902317,0.002717489842325449,-0.025686044245958328,0.3363212049007416,0.5633663535118103,0.6731041073799133,-9.797797203063965
1745736147.9045296,0.0004752495442517102,-0.014070376753807068,0.34428662061691284,0.3953332304954529,0.7303041219711304,-9.728507995605469
1745736147.9070601,-0.0022996459156274796,-0.025858795270323753,0.3441469967365265,0.44566482305526733,0.9490148425102234,-9.722902297973633
1745736147.9419441,0.005375475622713566,-0.021847812458872795,0.3422122597694397,0.3046010434627533,0.9119917750358582,-9.895021438598633
1745736147.9460468,-0.004662802908569574,-0.022320719435811043,0.3408052921295166,0.46779385209083557,0.7049114108085632,-9.761787414550781
1745736147.9472678,0.0022416748106479645,-0.018939534202218056,0.3431611955165863,0.3373662829399109,1.0036699771881104,-9.541589736938477
1745736147.948281,-0.019285280257463455,-0.023859187960624695,0.3406965732574463,0.4713151454925537,0.5209997296333313,-9.81640625
1745736147.9869304,-0.004749414511024952,-0.02386380359530449,0.34348416328430176,0.4295822083950043,1.046012282371521,-9.841066360473633
1745736147.9976606,-0.011976788751780987,-0.013403515331447124,0.3451533913612366,0.4329378008842468,0.694743812084198,-9.7818021774292
1745736148.0006297,-0.013504402711987495,-0.02553500607609749,0.3454352021217346,0.3989667296409607,1.027625322341919,-9.546701431274414
1745736148.0007055,0.005025370512157679,-0.023887157440185547,0.34447431564331055,0.4097405970096588,0.8262544870376587,-9.822985649108887
1745736148.0301056,-0.01140277087688446,-0.020930083468556404,0.34521612524986267,0.48463067412376404,0.9121119379997253,-9.937320709228516
1745736148.0327656,0.017855264246463776,-0.01756724901497364,0.34574055671691895,0.30057036876678467,1.0747554302215576,-9.715985298156738
1745736148.03619,-0.005726352799683809,-0.024744119495153427,0.34603530168533325,0.4530280530452728,0.7742491960525513,-9.589759826660156
1745736148.0397305,0.01962217129766941,-0.02740952931344509,0.3425634503364563,0.3680344820022583,1.083147406578064,-9.787562370300293
1745736148.0421634,0.006237804889678955,-0.01865285076200962,0.34248918294906616,0.4148928225040436,0.8075523376464844,-9.936647415161133
1745736148.074538,0.001566413789987564,-0.027261268347501755,0.3393115997314453,0.2461029291152954,0.9376638531684875,-9.69195556640625
1745736148.0775585,0.01626710407435894,-0.026162829250097275,0.33970922231674194,0.3861331045627594,0.7396686673164368,-9.53541088104248
1745736148.0833004,-0.006697243545204401,-0.029456961899995804,0.33876994252204895,0.413057804107666,0.8079792857170105,-9.8185396194458
1745736148.0872138,0.014709318056702614,-0.02337789535522461,0.3397645354270935,0.2006571739912033,0.7523826360702515,-9.992267608642578
1745736148.113179,-0.0031304857693612576,-0.02659108303487301,0.3415856659412384,0.41525498032569885,0.6456470489501953,-9.54744815826416
1745736148.1164107,0.0018978966400027275,-0.023193882778286934,0.34133878350257874,0.2763335704803467,0.909797191619873,-9.482065200805664
1745736148.1216493,-0.006691296584904194,-0.027170455083251,0.34007707238197327,0.4766414761543274,0.6508215069770813,-9.929539680480957
1745736148.1250644,-0.009381570853292942,-0.02810332179069519,0.33775201439857483,0.28902822732925415,0.9852479696273804,-10.032318115234375
1745736148.1540504,-0.00881263893097639,-0.029421895742416382,0.33458179235458374,0.31050223112106323,0.6539479494094849,-9.936467170715332
1745736148.1592767,-0.016169914975762367,-0.025098498910665512,0.33621731400489807,0.5111931562423706,0.9818623661994934,-9.95796012878418
1745736148.1635835,-0.008246173150837421,-0.022205114364624023,0.3369200825691223,0.20456953346729279,0.9502666592597961,-9.71535873413086
1745736148.1662798,-0.00883115828037262,-0.03169097751379013,0.3355221748352051,0.4688442349433899,0.7509617805480957,-9.453267097473145
1745736148.17159,0.006021501962095499,-0.028682485222816467,0.3378330171108246,0.36540570855140686,1.1618659496307373,-9.76862621307373
1745736148.2006023,0.008255950175225735,-0.01985839195549488,0.3370484709739685,0.38908493518829346,0.7095742225646973,-10.174349784851074
1745736148.2069464,0.011055313050746918,-0.03335979953408241,0.3362559378147125,0.36588436365127563,1.2004597187042236,-9.59660530090332
1745736148.2071352,0.029585057869553566,-0.02670266106724739,0.33622676134109497,0.3125949203968048,0.6691693067550659,-9.510223388671875
1745736148.2072666,0.006794708780944347,-0.03206557780504227,0.3346622586250305,0.3626248836517334,1.0120971202850342,-9.785722732543945
1745736148.23971,0.00708808982744813,-0.0243367962539196,0.33253663778305054,0.27867335081100464,0.6188194751739502,-10.06010627746582
1745736148.2446687,0.008950888179242611,-0.02978603169322014,0.33455485105514526,0.605070948600769,0.6366206407546997,-9.496600151062012
1745736148.2489548,-0.016810152679681778,-0.02431809902191162,0.33659568428993225,0.3118111491203308,0.8333598375320435,-9.636982917785645
1745736148.2530658,-0.01815742999315262,-0.03189203143119812,0.33647769689559937,0.5681502223014832,0.40064677596092224,-10.009567260742188
1745736148.2555645,-0.010157589800655842,-0.026585325598716736,0.34802719950675964,0.3837072253227234,0.961101233959198,-9.789467811584473
1745736148.2868216,-0.014178549870848656,-0.012849519029259682,0.35002854466438293,0.4134455621242523,0.6434246897697449,-9.869207382202148
1745736148.289546,-0.020163705572485924,-0.021613145247101784,0.34725889563560486,0.459117591381073,0.9675005674362183,-9.607259750366211
1745736148.2916608,-0.011089935898780823,-0.024144642055034637,0.34653857350349426,0.32989048957824707,0.857384979724884,-9.754744529724121
1745736148.2960038,-0.014770559966564178,-0.019700150936841965,0.3465009033679962,0.5189810991287231,0.7436572313308716,-9.860280990600586
1745736148.3282988,-0.0041942591778934,-0.017074834555387497,0.3477923274040222,0.32957011461257935,1.08340322971344,-9.712259292602539
1745736148.3308084,-0.019122138619422913,-0.022310618311166763,0.34748178720474243,0.4141746461391449,0.6035471558570862,-9.719803810119629
1745736148.333566,0.00043341872515156865,-0.024402454495429993,0.3483371436595917,0.37701427936553955,1.1028797626495361,-9.646528244018555
1745736148.3371582,-0.00706246355548501,-0.012343915179371834,0.3486722409725189,0.4019637107849121,0.6857354044914246,-9.875410079956055
1745736148.3699057,-0.00840584933757782,-0.022803792729973793,0.34861883521080017,0.3752139210700989,0.9600543975830078,-9.713078498840332
1745736148.373823,0.010647347196936607,-0.02091807872056961,0.3506320118904114,0.41965556144714355,0.7456847429275513,-9.679475784301758
1745736148.3759506,-0.017904600128531456,-0.02067660726606846,0.3504623472690582,0.5156659483909607,0.8052116632461548,-9.766082763671875
1745736148.3776848,0.010488602332770824,-0.020248036831617355,0.34969621896743774,0.32482996582984924,0.9106220006942749,-9.882340431213379
1745736148.3793635,-0.020969390869140625,-0.022743653506040573,0.3502042293548584,0.4552718997001648,0.6195204257965088,-9.789212226867676
1745736148.4155858,0.002547797281295061,-0.019896185025572777,0.34947043657302856,0.3396666646003723,0.9098759889602661,-9.61927604675293
1745736148.4172342,-0.017455555498600006,-0.01917354203760624,0.35124480724334717,0.4744991660118103,0.6991124749183655,-9.670832633972168
1745736148.4187164,-0.021204013377428055,-0.02850528061389923,0.3496735692024231,0.3660528063774109,0.8517281413078308,-9.886659622192383
1745736148.42274,-0.002508328529074788,-0.01758369244635105,0.3482785224914551,0.4641038477420807,0.812526524066925,-9.829683303833008
1745736148.457406,-0.024112112820148468,-0.0214015431702137,0.35048753023147583,0.4336234927177429,0.9005359411239624,-9.657575607299805
1745736148.4621718,0.0018715327605605125,-0.02218504808843136,0.35007157921791077,0.2753552794456482,0.8515804409980774,-9.714166641235352
1745736148.4681857,-0.011976668611168861,-0.026968354359269142,0.35234612226486206,0.5070831179618835,0.7701928019523621,-9.77894401550293
1745736148.470618,0.0008314285660162568,-0.017905471846461296,0.353576123714447,0.3225914537906647,0.9581149816513062,-9.777952194213867
1745736148.4746704,-0.002095475560054183,-0.023433377966284752,0.35213702917099,0.4734998643398285,0.7204045057296753,-9.670923233032227
1745736148.501962,-0.0030701595824211836,-0.025984197854995728,0.35046637058258057,0.34558579325675964,0.6187921762466431,-9.724295616149902
1745736148.5043857,-0.01772039756178856,-0.025078851729631424,0.35014161467552185,0.5671290159225464,0.7611562013626099,-9.755173683166504
1745736148.5057716,-0.010683630593121052,-0.019820380955934525,0.3520921766757965,0.284231573343277,0.797514021396637,-9.885342597961426
1745736148.5421817,-0.023141175508499146,-0.023104120045900345,0.35228654742240906,0.43040794134140015,0.610843300819397,-9.651333808898926
1745736148.546647,-0.005882597528398037,-0.02712159790098667,0.35476216673851013,0.36599355936050415,1.0263125896453857,-9.532851219177246
1745736148.550255,-0.019278425723314285,-0.01828722283244133,0.3560110330581665,0.47718125581741333,0.6574492454528809,-9.925045013427734
1745736148.5568643,-0.007416588254272938,-0.028585363179445267,0.35536646842956543,0.4095323085784912,1.0851678848266602,-9.873261451721191
1745736148.5583305,-0.003174466546624899,-0.02389618009328842,0.3526163697242737,0.326336532831192,0.7701112031936646,-9.746980667114258
1745736148.593326,-0.009135032072663307,-0.023445237427949905,0.3528410792350769,0.410193532705307,0.8676368594169617,-9.575031280517578
1745736148.5967362,-0.005675803404301405,-0.022828496992588043,0.35215047001838684,0.323833703994751,0.9202567934989929,-9.72956657409668
1745736148.6012568,-0.020302075892686844,-0.03138727694749832,0.35422977805137634,0.49651867151260376,0.5586381554603577,-9.91602897644043
1745736148.6038964,0.002111891284584999,-0.026390183717012405,0.3523663878440857,0.41748887300491333,1.0258293151855469,-9.695043563842773
1745736148.6324959,-0.024737676605582237,-0.02364937774837017,0.3589700758457184,0.35602790117263794,1.0356805324554443,-9.920681953430176
1745736148.6350002,-0.009495923295617104,-0.022007545456290245,0.35734108090400696,0.36351609230041504,0.843615710735321,-9.80039119720459
1745736148.6375031,-0.02606581524014473,-0.029742514714598656,0.357003390789032,0.4276358485221863,0.9071977734565735,-9.633013725280762
1745736148.6403742,0.001444026012904942,-0.02172893099486828,0.35775992274284363,0.31122881174087524,0.896811306476593,-9.734869956970215
1745736148.6766999,-0.03526876121759415,-0.024498719722032547,0.3559197783470154,0.48785847425460815,0.6905761957168579,-9.809053421020508
1745736148.6792872,-0.014228004030883312,-0.028141647577285767,0.3569850027561188,0.3264201879501343,0.7762916684150696,-9.817207336425781
1745736148.681713,-0.02850254997611046,-0.01980488933622837,0.35967034101486206,0.5389004945755005,0.6571007966995239,-9.631185531616211
1745736148.6837964,-0.0316983163356781,-0.024417806416749954,0.35864710807800293,0.3030214011669159,0.9466515779495239,-9.718377113342285
1745736148.71856,-0.028053302317857742,-0.02417409047484398,0.35816359519958496,0.3805045485496521,0.6600703001022339,-9.828546524047852
1745736148.7217162,-0.03294878453016281,-0.02663729153573513,0.3597998321056366,0.4470483362674713,1.0001553297042847,-9.678316116333008
1745736148.7217617,-0.023586943745613098,-0.016603074967861176,0.3592730164527893,0.31839752197265625,0.820651650428772,-9.759627342224121
1745736148.7217975,-0.033978171646595,-0.027728045359253883,0.35844650864601135,0.431331068277359,0.8886080980300903,-9.711960792541504
1745736148.724763,-0.01650158129632473,-0.02461499348282814,0.35767900943756104,0.2988192141056061,0.9285624623298645,-9.767354011535645
1745736148.7577488,-0.022945718839764595,-0.017352394759655,0.36041635274887085,0.46797895431518555,0.7412484884262085,-9.782781600952148
1745736148.7595754,-0.017491154372692108,-0.023711275309324265,0.3586820960044861,0.3332039713859558,1.071535587310791,-9.665806770324707
1745736148.7628038,-0.023129601031541824,-0.024792740121483803,0.3610146641731262,0.44324707984924316,0.5732965469360352,-9.817873001098633
1745736148.7645214,-0.021608222275972366,-0.02543899416923523,0.3571162819862366,0.4634196162223816,1.079450249671936,-9.765054702758789
1745736148.8165035,-0.019437182694673538,-0.018526701256632805,0.3585534691810608,0.3484896719455719,0.7385128140449524,-9.882048606872559
1745736148.8166022,-0.029779184609651566,-0.029875189065933228,0.3582424223423004,0.401561975479126,0.8254776000976562,-9.643617630004883
1745736148.8166578,-0.011417663656175137,-0.023551784455776215,0.3588510751724243,0.30170392990112305,0.8551887273788452,-9.599384307861328
1745736148.8194492,-0.041036538779735565,-0.020984096452593803,0.36062732338905334,0.46815887093544006,0.6834316253662109,-9.777621269226074
1745736148.8233988,-0.012641196139156818,-0.02426668256521225,0.35907846689224243,0.32425829768180847,1.0503184795379639,-9.82068920135498
1745736148.8449543,-0.032607682049274445,-0.022834347561001778,0.3605267405509949,0.46678590774536133,0.6398965120315552,-9.833395957946777
1745736148.8449972,-0.015271186828613281,-0.01809009537100792,0.3594508171081543,0.3805719017982483,0.8598861694335938,-9.767046928405762
1745736148.8463387,-0.041498370468616486,-0.01978541538119316,0.3584936559200287,0.422463595867157,0.76045161485672,-9.690637588500977
1745736148.8474245,-0.018695537000894547,-0.023134754970669746,0.3589405417442322,0.2625858187675476,0.9889985918998718,-9.681157112121582
1745736148.8889017,-0.029256243258714676,-0.02292494848370552,0.3592365086078644,0.5674571990966797,0.7413458228111267,-9.769937515258789
1745736148.8935914,-0.021773699671030045,-0.020663326606154442,0.35924220085144043,0.3670728802680969,1.1002733707427979,-9.856999397277832
1745736148.8965423,-0.017535217106342316,-0.0194944329559803,0.35836532711982727,0.4207214415073395,0.742993950843811,-9.776979446411133
1745736148.8972337,-0.02591606043279171,-0.027651917189359665,0.3593238592147827,0.38954490423202515,0.9767392873764038,-9.607635498046875
1745736148.931483,-0.00357616925612092,-0.018406454473733902,0.3598312437534332,0.34591811895370483,0.7799924612045288,-9.798271179199219
1745736148.9345849,-0.03236939385533333,-0.02171497978270054,0.35779494047164917,0.43593376874923706,0.9524508714675903,-9.761438369750977
1745736148.9375036,-0.01152941957116127,-0.025934800505638123,0.3581773638725281,0.2588018774986267,0.8026790618896484,-9.789595603942871
1745736148.9423366,-0.025135835632681847,-0.022703928872942924,0.3568544387817383,0.5433798432350159,0.8182088732719421,-9.65202522277832
1745736148.9456902,-0.01995689608156681,-0.02003992162644863,0.3572070598602295,0.33601611852645874,0.93372642993927,-9.794130325317383
1745736148.979308,-0.026369284838438034,-0.022191105410456657,0.3581794202327728,0.42189154028892517,0.5821460485458374,-9.84777545928955
1745736148.9813657,-0.010368057526648045,-0.02404135838150978,0.35711270570755005,0.3293275237083435,1.0582621097564697,-9.818296432495117
1745736148.9814475,-0.009419125504791737,-0.021970320492982864,0.3541729748249054,0.34569498896598816,0.7540310621261597,-9.681516647338867
1745736148.9815204,-0.013991418294608593,-0.02468261681497097,0.3553752303123474,0.4599669873714447,0.8542124629020691,-9.59687328338623
1745736149.0201895,-0.008793869987130165,-0.018877867609262466,0.35582777857780457,0.30404844880104065,0.9287971258163452,-9.823049545288086
1745736149.022364,-0.027534479275345802,-0.02655627392232418,0.35409897565841675,0.46755456924438477,0.6450076103210449,-9.912217140197754
1745736149.0256479,-0.004231179133057594,-0.02634209394454956,0.35272884368896484,0.3830469250679016,1.0903977155685425,-9.64225959777832
1745736149.0272303,-0.025190820917487144,-0.019355136901140213,0.3562537729740143,0.46534594893455505,0.6206613779067993,-9.673956871032715
1745736149.0604198,-0.013198994100093842,-0.03012654557824135,0.35531577467918396,0.28524428606033325,1.0529505014419556,-9.762310981750488
1745736149.0638826,-0.008155623450875282,-0.019507363438606262,0.35524705052375793,0.3781479001045227,0.7190321087837219,-9.827147483825684
1745736149.0659015,-0.02238347940146923,-0.022244740277528763,0.3550069332122803,0.37979817390441895,0.9677305221557617,-9.613862037658691
1745736149.067594,-6.531485996674746e-05,-0.019463473930954933,0.3561013340950012,0.3212573826313019,0.8901402354240417,-9.655036926269531
1745736149.0688767,-0.026446383446455002,-0.02870088443160057,0.35476499795913696,0.4480498731136322,0.8279186487197876,-9.865791320800781
1745736149.1047814,0.0027966266497969627,-0.020972058176994324,0.35186514258384705,0.30876579880714417,0.9269288182258606,-9.846628189086914
1745736149.1056266,-0.024347519502043724,-0.01962820626795292,0.3528456687927246,0.5038769245147705,0.7576438188552856,-9.556802749633789
1745736149.1073864,-0.018829092383384705,-0.029050711542367935,0.3523023724555969,0.30687394738197327,0.8767399787902832,-9.713770866394043
1745736149.1150684,-0.018255138769745827,-0.022229675203561783,0.35303717851638794,0.49725469946861267,0.634340763092041,-9.926518440246582
1745736149.1462252,-0.02809927426278591,-0.020733987912535667,0.35547953844070435,0.383902907371521,0.9903026819229126,-9.76762866973877
1745736149.149376,-0.010266046971082687,-0.020540859550237656,0.3542754054069519,0.2930302619934082,0.7859590649604797,-9.633038520812988
1745736149.1503544,-0.024590207263827324,-0.02966904267668724,0.3551158308982849,0.45650237798690796,0.9467483758926392,-9.655509948730469
1745736149.1526747,-0.007600821554660797,-0.017905479297041893,0.3543972969055176,0.30977731943130493,0.9507706761360168,-9.922792434692383
1745736149.1889997,-0.01738135889172554,-0.023233521729707718,0.35514551401138306,0.4644342064857483,0.8443870544433594,-9.755987167358398
1745736149.1906831,-0.007171331904828548,-0.026821542531251907,0.3523062467575073,0.25826603174209595,1.03701651096344,-9.652528762817383
1745736149.1935084,-0.008314964361488819,-0.018452689051628113,0.35408201813697815,0.3098793923854828,0.7891219258308411,-9.752367973327637
1745736149.1966875,-0.026377469301223755,-0.02615782618522644,0.353596955537796,0.3941011130809784,0.7357142567634583,-9.745224952697754
1745736149.2323568,-0.004043259657919407,-0.026394784450531006,0.3539595603942871,0.3166709244251251,0.9441316723823547,-9.669402122497559
1745736149.2372162,-0.02920222282409668,-0.0172320194542408,0.3547535538673401,0.47289466857910156,0.6386979818344116,-9.709709167480469
1745736149.2402081,-0.013578591868281364,-0.0250377357006073,0.3536301255226135,0.3307269215583801,1.0718884468078613,-9.74860954284668
1745736149.2446685,-0.02582537569105625,-0.022594338282942772,0.35373127460479736,0.4223898947238922,0.6593515872955322,-9.87297248840332
1745736149.2478666,-0.01620396226644516,-0.02280166745185852,0.3533533215522766,0.4033849239349365,1.0231729745864868,-9.70610237121582
1745736149.2821112,-0.019174572080373764,-0.016774103045463562,0.35242760181427,0.3852817118167877,0.8515766859054565,-9.63945484161377
1745736149.282207,-0.03574160486459732,-0.030581112951040268,0.3537709712982178,0.4467008113861084,0.750750720500946,-9.79358196258545
1745736149.2833726,-0.00801299698650837,-0.021893033757805824,0.35158368945121765,0.3679349422454834,1.0402352809906006,-9.823369979858398
1745736149.2841978,-0.035035356879234314,-0.01793334260582924,0.3538527488708496,0.4208649694919586,0.7263584733009338,-9.756795883178711
1745736149.3166957,-0.009574872441589832,-0.027346670627593994,0.35421833395957947,0.2506415545940399,1.0423966646194458,-9.625386238098145
1745736149.3201902,-0.012850068509578705,-0.022016936913132668,0.3555578589439392,0.49661383032798767,0.7374829053878784,-9.708226203918457
1745736149.3239508,-0.017257314175367355,-0.021611202508211136,0.3558626174926758,0.35390999913215637,1.0740625858306885,-9.860125541687012
1745736149.3291574,0.001538231736049056,-0.019898459315299988,0.355896532535553,0.44107288122177124,0.8236604928970337,-9.667266845703125
1745736149.3326545,-0.006114347372204065,-0.030201369896531105,0.3549453616142273,0.3522948622703552,1.0697647333145142,-9.678213119506836
1745736149.3618777,0.01874259114265442,-0.020116200670599937,0.3538801968097687,0.3937358558177948,0.8154492378234863,-9.899785041809082
1745736149.3639014,-0.008914037607610226,-0.023612968623638153,0.3513110280036926,0.44609254598617554,0.9720959663391113,-9.716087341308594
1745736149.365848,0.011969315819442272,-0.025511955842375755,0.35374945402145386,0.3032124638557434,0.7501535415649414,-9.69609260559082
1745736149.367906,-0.008155690506100655,-0.028408020734786987,0.3527015149593353,0.5742207765579224,0.76385498046875,-9.742838859558105
1745736149.4061637,0.003920914139598608,-0.02138146571815014,0.3541609048843384,0.3191656470298767,0.89289391040802,-9.889524459838867
1745736149.409666,-0.009986454620957375,-0.021352045238018036,0.35469287633895874,0.3927742540836334,0.6076403856277466,-9.733439445495605
1745736149.412419,-0.004235321190208197,-0.029715776443481445,0.3554167151451111,0.3780568242073059,1.021955132484436,-9.510902404785156
1745736149.416122,-0.0076078930869698524,-0.01916508935391903,0.3570016920566559,0.42921820282936096,0.725354015827179,-9.793233871459961
1745736149.447732,-0.011450209654867649,-0.027354683727025986,0.3549138605594635,0.3772696554660797,1.0406696796417236,-9.877405166625977
1745736149.4491658,0.0008127998444251716,-0.024616584181785583,0.35343965888023376,0.28956618905067444,0.8460626602172852,-9.823381423950195
1745736149.4523976,-0.0005527542089112103,-0.022563805803656578,0.35448962450027466,0.4783017039299011,0.8890690803527832,-9.52414608001709
1745736149.4558403,0.0031340133864432573,-0.02312607318162918,0.35367703437805176,0.28728339076042175,1.0476622581481934,-9.688556671142578
1745736149.4571612,-0.011813373304903507,-0.028012502938508987,0.3526286482810974,0.4604700207710266,0.5708998441696167,-9.970975875854492
1745736149.4925342,0.01028126198798418,-0.0236265417188406,0.3530828058719635,0.4263230264186859,1.0996968746185303,-9.713404655456543
1745736149.4941423,-0.00774508249014616,-0.019286680966615677,0.3552187383174896,0.45825791358947754,0.6230413913726807,-9.66480541229248
1745736149.4972537,-0.006480621639639139,-0.03351264446973801,0.35447949171066284,0.37198010087013245,0.9714535474777222,-9.700360298156738
1745736149.498392,0.006855466868728399,-0.0218446496874094,0.35434478521347046,0.4119596481323242,0.7785804867744446,-9.870061874389648
1745736149.534168,-0.01605888269841671,-0.020291652530431747,0.35614973306655884,0.44850611686706543,0.9137921333312988,-9.715226173400879
1745736149.5362306,0.012489067390561104,-0.02801058068871498,0.3551548719406128,0.3404783606529236,0.9698554277420044,-9.655433654785156
1745736149.540017,0.007215472403913736,-0.020706694573163986,0.3541906774044037,0.2907174825668335,0.8363383412361145,-9.516996383666992
1745736149.5829425,-0.014847800135612488,-0.03206293657422066,0.35555070638656616,0.49781590700149536,0.8086770176887512,-9.582805633544922
1745736149.5857854,0.002135148271918297,-0.024603119120001793,0.3554532825946808,0.32612308859825134,0.9489381909370422,-10.006571769714355
1745736149.5876875,-0.005978892557322979,-0.023736095055937767,0.3541085124015808,0.4598011374473572,0.7654441595077515,-9.871663093566895
1745736149.5888753,-0.0037217668723315,-0.029019569978117943,0.3526993691921234,0.2595673203468323,1.094007134437561,-9.52607536315918
1745736149.5903568,0.00526528200134635,-0.02557164989411831,0.3528479039669037,0.4143076539039612,0.6660670042037964,-9.660089492797852
1745736149.6214335,-0.005075653083622456,-0.02725539728999138,0.3530259430408478,0.40540456771850586,1.114793062210083,-9.829797744750977
1745736149.627435,0.0008204840123653412,-0.024523600935935974,0.35191431641578674,0.33038508892059326,0.6067456007003784,-9.954155921936035
1745736149.6274788,-0.004035974852740765,-0.0286336001008749,0.3553270399570465,0.5363184809684753,0.8856518864631653,-9.549749374389648
1745736149.627508,0.00428741006180644,-0.02414894662797451,0.3530094027519226,0.3511205017566681,0.8591936230659485,-9.702669143676758
1745736149.661984,-0.012921703048050404,-0.029425177723169327,0.35351887345314026,0.4222256541252136,0.6356387138366699,-9.933197021484375
1745736149.6654737,0.004306250251829624,-0.028564736247062683,0.35570523142814636,0.32705092430114746,0.9922828674316406,-9.698058128356934
1745736149.6667058,-0.017307795584201813,-0.018313711509108543,0.35485735535621643,0.45499175786972046,0.617043137550354,-9.575166702270508
1745736149.6697,-0.004479457624256611,-0.0345597043633461,0.3555178642272949,0.36262255907058716,1.0732884407043457,-9.691991806030273
1745736149.7045748,-0.007583604194223881,-0.03027741052210331,0.3584993779659271,0.3393968343734741,1.0488777160644531,-9.962040901184082
1745736149.7068362,-0.023122642189264297,-0.02610180154442787,0.3580109477043152,0.4305860102176666,0.586288332939148,-9.891290664672852
1745736149.7096055,-0.012006071396172047,-0.028837252408266068,0.3568970859050751,0.36672860383987427,1.0155991315841675,-9.506591796875
1745736149.713172,-0.02288379892706871,-0.024040600284934044,0.35828202962875366,0.3666202425956726,0.761634886264801,-9.61929988861084
1745736149.7135143,-0.03250070661306381,-0.03596162050962448,0.35824519395828247,0.4315347671508789,0.7719540596008301,-9.958632469177246
1745736149.7486968,-0.008062973618507385,-0.024194568395614624,0.3557893633842468,0.38120895624160767,0.9249053001403809,-9.890918731689453
1745736149.7524009,-0.0360109806060791,-0.024272769689559937,0.3572615087032318,0.42628178000450134,0.7552193403244019,-9.566264152526855
1745736149.7557595,-0.011765584349632263,-0.03360854461789131,0.3559970557689667,0.2559032440185547,0.9802284240722656,-9.579924583435059
1745736149.7602668,-0.02473083883523941,-0.028889283537864685,0.3584747016429901,0.5162417888641357,0.7097960710525513,-9.882772445678711
1745736149.7930145,-0.01916358806192875,-0.024045247584581375,0.3560181260108948,0.33537784218788147,1.0357944965362549,-9.89493465423584
1745736149.796631,-0.015416234731674194,-0.02488056942820549,0.3581218123435974,0.42226845026016235,0.7154199481010437,-9.61728572845459
1745736149.80596,-0.028722962364554405,-0.03717588633298874,0.3566570281982422,0.3836086094379425,0.9525547027587891,-9.617877960205078
1745736149.80695,-0.0036317179910838604,-0.021948421373963356,0.3570627272129059,0.31907209753990173,0.8037503361701965,-9.959495544433594
1745736149.8083696,-0.03856994956731796,-0.026602324098348618,0.35517650842666626,0.4473429322242737,0.8730009198188782,-9.750874519348145
1745736149.8358057,-0.013330573216080666,-0.03004070557653904,0.35620227456092834,0.311262309551239,0.8002870678901672,-9.577394485473633
1745736149.8383927,-0.032863784581422806,-0.026191871613264084,0.3549617528915405,0.5225745439529419,0.7949974536895752,-9.671630859375
1745736149.846324,-0.024504203349351883,-0.026937326416373253,0.35611361265182495,0.2712681293487549,0.9397942423820496,-9.965764045715332
1745736149.8495562,-0.02543622814118862,-0.024148933589458466,0.35595905780792236,0.40471816062927246,0.6460541486740112,-9.777198791503906
1745736149.8795464,-0.0276959128677845,-0.02760847471654415,0.3572312295436859,0.3917641341686249,1.02040433883667,-9.449591636657715
1745736149.8855877,-0.025643592700362206,-0.021191220730543137,0.35622042417526245,0.3668532371520996,0.7157787680625916,-9.7671537399292
1745736149.8868303,-0.029098737984895706,-0.031181737780570984,0.3577805459499359,0.4692990779876709,1.0168259143829346,-9.902261734008789
1745736149.891784,-0.016433697193861008,-0.02532072365283966,0.356654554605484,0.30047717690467834,0.8782981038093567,-9.859159469604492
1745736149.894116,-0.007919165305793285,-0.023874860256910324,0.3591410219669342,0.42641663551330566,0.8550273180007935,-9.83021068572998
1745736149.9213402,-0.03105274774134159,-0.021853646263480186,0.3562711775302887,0.4715648293495178,0.8758460283279419,-9.913774490356445
1745736149.9252646,-0.0023599285632371902,-0.025590628385543823,0.3578192889690399,0.2924472689628601,1.045542597770691,-9.670251846313477
1745736149.9280505,-0.024210847914218903,-0.02748372219502926,0.3567488193511963,0.42533940076828003,0.72286456823349,-9.640603065490723
1745736149.9307678,0.0004706704057753086,-0.025472531095147133,0.3575044870376587,0.2684217095375061,1.1337370872497559,-9.761356353759766
1745736149.97006,-0.020139895379543304,-0.019100701436400414,0.35559791326522827,0.4060397744178772,0.7119271159172058,-9.829484939575195
1745736149.9701583,-0.014780024066567421,-0.03139927238225937,0.35564202070236206,0.34977880120277405,0.9238618612289429,-9.676774024963379
1745736149.9732666,-0.003799132304266095,-0.019735712558031082,0.35470643639564514,0.44619807600975037,0.8205995559692383,-9.692598342895508
1745736149.9742076,-0.02749449387192726,-0.024073591455817223,0.35589441657066345,0.41328445076942444,0.8219472765922546,-9.844705581665039
1745736150.0129476,0.0005656285211443901,-0.023382671177387238,0.35902100801467896,0.2887524962425232,0.8434491157531738,-9.797889709472656
1745736150.0141919,-0.020337505266070366,-0.024185027927160263,0.3582043945789337,0.494268000125885,0.7826991081237793,-9.594605445861816
1745736150.0157676,-0.010251439176499844,-0.0199191365391016,0.35890355706214905,0.25463294982910156,0.962844729423523,-9.699257850646973
1745736150.0178244,-0.012606392614543438,-0.022742170840501785,0.35942864418029785,0.4668117165565491,0.7764593362808228,-9.789301872253418
1745736150.021532,-0.013682598248124123,-0.027264580130577087,0.3583844304084778,0.31689557433128357,1.0330712795257568,-9.848223686218262
1745736150.0528896,0.00011423826072132215,-0.041477739810943604,0.31112155318260193,0.34042131900787354,1.0603926181793213,-9.870566368103027
1745736150.0543592,-0.009094465523958206,-0.051790036261081696,0.2997089922428131,0.04842781648039818,0.6507989168167114,-10.672867774963379
1745736150.0559585,0.01219024695456028,-0.03485943749547005,0.29706162214279175,0.024895211681723595,0.9950092434883118,-9.531376838684082
1745736150.0575297,0.017343442887067795,-0.038716237992048264,0.2910030782222748,-0.2375142127275467,1.2431306838989258,-8.904810905456543
1745736150.0928533,0.0004002031055279076,-0.06883697211742401,0.2839512825012207,-0.11834721267223358,0.7026005387306213,-10.021071434020996
1745736150.0944095,0.07503120601177216,-0.031900182366371155,0.2837596833705902,-0.27672213315963745,1.078605055809021,-10.416964530944824
1745736150.0962472,0.020807668566703796,-0.03198570758104324,0.2792752683162689,-0.19526879489421844,0.5153878927230835,-9.547264099121094
1745736150.0980904,0.04804273694753647,-0.05929941684007645,0.2804930508136749,0.0976053923368454,0.6520885229110718,-8.893279075622559
1745736150.135812,0.03634798526763916,-0.04033248499035835,0.27526694536209106,0.3011434078216553,0.3792255222797394,-10.161118507385254
1745736150.1372585,0.010370294563472271,-0.050002388656139374,0.2750341296195984,0.08405475318431854,0.7406856417655945,-10.741863250732422
1745736150.1393926,0.0026749498210847378,-0.045773833990097046,0.2667786478996277,0.13566505908966064,0.2628752589225769,-9.51904010772705
1745736150.1417253,-0.012068643234670162,-0.05474080890417099,0.26319941878318787,0.18886740505695343,0.6745853424072266,-8.739474296569824
1745736150.180979,-0.043027691543102264,-0.05860881879925728,0.26049792766571045,-0.07163271307945251,0.8280824422836304,-10.141012191772461
1745736150.1821604,-0.03322838619351387,-0.0597405731678009,0.2520692050457001,0.16635774075984955,0.7101044058799744,-10.616350173950195
1745736150.1837862,0.001682498725131154,-0.04334880784153938,0.24946360290050507,-0.12854604423046112,1.4690173864364624,-9.39598560333252
1745736150.185907,-0.006398989353328943,-0.05855264514684677,0.24687397480010986,0.08297388255596161,1.0578997135162354,-9.071131706237793
1745736150.186287,0.04254936799407005,-0.07437046617269516,0.24473366141319275,0.12579438090324402,1.302134394645691,-10.060016632080078
1745736150.2223735,0.0799054279923439,-0.04582394286990166,0.24352069199085236,-0.008923575282096863,1.0703794956207275,-10.573226928710938
1745736150.2257605,0.0682501420378685,-0.054614901542663574,0.24341586232185364,-0.04290936514735222,0.9664678573608398,-9.434771537780762
1745736150.2295458,0.10903109610080719,-0.0625513345003128,0.2439032793045044,0.001976248575374484,0.71219402551651,-8.963848114013672
1745736150.2308338,0.08014295250177383,-0.061635978519916534,0.24476894736289978,0.07381312549114227,0.6915696859359741,-10.015765190124512
1745736150.2657602,0.09267929941415787,-0.05155717208981514,0.23788368701934814,-0.3405190110206604,0.7804247140884399,-10.619542121887207
1745736150.2721648,-0.005873551592230797,-0.04336445778608322,0.21262362599372864,0.35376420617103577,0.957037627696991,-9.166613578796387
1745736150.272224,0.01753128133714199,-0.07451847195625305,0.20908598601818085,0.7261388897895813,1.0493472814559937,-9.437220573425293
1745736150.2751129,0.06349809467792511,-0.06668012589216232,0.21035239100456238,0.09935268759727478,1.3627606630325317,-10.768074035644531
1745736150.30757,0.10324959456920624,-0.04527046158909798,0.2138303816318512,-0.2895158529281616,0.9354344606399536,-10.353582382202148
1745736150.3094165,0.11937054246664047,-0.03741055727005005,0.2127903401851654,-0.32166099548339844,1.089840292930603,-8.535904884338379
1745736150.311957,0.1109725683927536,-0.054109156131744385,0.2026396542787552,0.1721571981906891,0.6730844974517822,-9.069371223449707
1745736150.3151305,0.10412565618753433,-0.05114836245775223,0.18847915530204773,0.19241920113563538,1.594412088394165,-10.694697380065918
1745736150.3180668,0.12452484667301178,-0.03281477093696594,0.16635748744010925,0.23948852717876434,0.787528932094574,-10.525606155395508
1745736150.3513498,0.1078309565782547,-0.03657010942697525,0.15923559665679932,0.48066139221191406,0.7435371279716492,-8.90226936340332
1745736150.3543873,0.07626549154520035,-0.053848277777433395,0.16058290004730225,0.5574808716773987,-0.08016790449619293,-9.430058479309082
1745736150.3573492,0.05945601314306259,-0.05268123000860214,0.16798649728298187,0.4445788860321045,-0.09846833348274231,-10.725848197937012
1745736150.3609557,0.06925062835216522,-0.026553397998213768,0.17394524812698364,-0.15662097930908203,0.5744699239730835,-10.147176742553711
1745736150.3943636,0.060809504240751266,-0.029382431879639626,0.17389056086540222,0.05598049238324165,0.6712931394577026,-8.70259952545166
1745736150.396305,0.09336584061384201,-0.04891391098499298,0.16592708230018616,0.020843328908085823,1.4821135997772217,-9.299884796142578
1745736150.4038305,0.04296732693910599,0.08411607891321182,0.2157466858625412,0.3470609188079834,-0.19516466557979584,-9.386018753051758
1745736150.4079192,-0.0370565727353096,0.027096301317214966,0.21748360991477966,0.5697709918022156,0.010618728585541248,-6.7547807693481445
1745736150.4380085,-0.02248721942305565,0.019872743636369705,0.22522535920143127,0.7191807627677917,0.023254651576280594,-10.283079147338867
1745736150.4411013,-0.02680262364447117,0.059494901448488235,0.2342543601989746,0.6266933679580688,0.5062114000320435,-12.733563423156738
1745736150.442848,0.021575698629021645,0.06619825214147568,0.2443915158510208,0.13513672351837158,0.8514216542243958,-9.387517929077148
1745736150.4448898,0.034167371690273285,0.03799670562148094,0.2531436085700989,0.33090847730636597,0.755635142326355,-6.868409633636475
1745736150.4810185,0.05780826881527901,0.030462736263871193,0.2533743977546692,0.1861356496810913,1.4733750820159912,-9.891253471374512
1745736150.4837794,0.08920854330062866,0.060288894921541214,0.2466190755367279,0.446979284286499,1.0508441925048828,-12.285170555114746
1745736150.4869962,0.12808634340763092,0.06363467872142792,0.2380448877811432,0.44041329622268677,1.2114475965499878,-9.447216987609863
1745736150.4910727,0.11753485351800919,0.04864788427948952,0.23709067702293396,0.4403603971004486,0.5201916098594666,-7.624577522277832
1745736150.4943662,0.07585114240646362,0.024167228490114212,0.23893801867961884,0.6645983457565308,0.10113915055990219,-9.854057312011719
1745736150.5257692,0.09401825815439224,0.05332444980740547,0.2448451817035675,0.5788062810897827,-0.0589601993560791,-11.646506309509277
1745736150.5283155,0.05498286336660385,0.07181642949581146,0.2530216574668884,0.6427850723266602,-0.2302740514278412,-9.491178512573242
1745736150.5374978,0.04018666595220566,0.045352157205343246,0.26219651103019714,0.35101059079170227,0.1646900475025177,-7.97133731842041
1745736150.5375807,0.02492644637823105,0.03719676285982132,0.2652754783630371,0.545506477355957,0.1404210329055786,-9.758332252502441
1745736150.567351,0.03271877393126488,0.0547836609184742,0.26313310861587524,0.4067703187465668,0.6681798696517944,-11.353625297546387
1745736150.5707684,0.04813198000192642,0.06805874407291412,0.2615926265716553,0.24052977561950684,0.3473110795021057,-9.824167251586914
1745736150.5744448,0.01911112293601036,0.04275798797607422,0.2616918385028839,0.2284787893295288,0.38514721393585205,-8.171392440795898
1745736150.5801594,0.026264986023306847,0.04289107024669647,0.2638939321041107,0.23256854712963104,0.15812428295612335,-9.59398365020752
1745736150.5821712,0.0008583804592490196,0.05728653818368912,0.2677075266838074,0.699672520160675,0.23266983032226562,-10.89600944519043
1745736150.6098092,0.018052546307444572,0.059911955147981644,0.27038243412971497,0.5809237957000732,0.4684069752693176,-9.919195175170898
1745736150.6123812,-0.0063802218064665794,0.04357994720339775,0.2699173390865326,0.711706817150116,0.1738053560256958,-8.804216384887695
1745736150.6147985,0.01877964846789837,0.03671132028102875,0.27865737676620483,0.3025234341621399,0.7389006614685059,-9.326384544372559
1745736150.6516626,0.04643959924578667,0.03979210928082466,0.2785422205924988,0.3275657892227173,0.663536548614502,-9.927611351013184
1745736150.656541,0.03985565900802612,0.038772448897361755,0.2768999934196472,0.6988860368728638,0.37346234917640686,-10.0053129196167
1745736150.6604285,0.04152245074510574,0.03587845712900162,0.2785528302192688,0.46595248579978943,0.39863353967666626,-9.748029708862305
1745736150.6643198,0.025195330381393433,0.03452553600072861,0.2837710380554199,0.4718139171600342,-0.02753697708249092,-9.499731063842773
1745736150.6676898,0.009330214001238346,0.02903183177113533,0.2865811884403229,0.5021613836288452,0.09805937111377716,-9.550209045410156
1745736150.6976047,-0.006436034105718136,0.03802340477705002,0.2917211651802063,0.6256929039955139,-0.09552697092294693,-9.902145385742188
1745736150.7008104,-0.034252773970365524,0.0295435581356287,0.2946372330188751,0.5019662380218506,0.17393748462200165,-9.922800064086914
1745736150.7044568,-0.021509844809770584,0.032308101654052734,0.2945779263973236,0.3037562668323517,0.4891899526119232,-9.442673683166504
1745736150.7063823,-0.05380982160568237,0.02616148255765438,0.2905651926994324,0.5309033393859863,0.34008026123046875,-9.47404956817627
1745736150.741931,-0.02531706914305687,0.022572243586182594,0.28999367356300354,0.4047486186027527,0.7388705015182495,-9.954225540161133
1745736150.747323,-0.048413969576358795,0.02476329170167446,0.29144591093063354,0.5269705653190613,0.27529025077819824,-10.108732223510742
1745736150.7565567,-0.01637640967965126,0.0228620283305645,0.294219434261322,0.3801843225955963,0.6575911641120911,-9.43260383605957
1745736150.7583785,-0.04080423712730408,-0.03381936624646187,0.30168741941452026,0.3366486132144928,0.34794822335243225,-9.522488594055176
1745736150.7801285,-0.060359496623277664,-0.0352664515376091,0.30213844776153564,0.3958386778831482,0.7945560216903687,-9.442412376403809
1745736150.7819135,-0.04296712204813957,-0.030834298580884933,0.3017648458480835,0.3183547854423523,0.4266478419303894,-10.122328758239746
1745736150.7841918,-0.042917829006910324,-0.034637920558452606,0.3036847710609436,0.5953370332717896,0.6473435163497925,-9.886308670043945
1745736150.7863998,-0.029267463833093643,-0.029487991705536842,0.30485519766807556,0.2944919466972351,0.6246543526649475,-9.705011367797852
1745736150.7871757,-0.034193478524684906,-0.03867728263139725,0.30211618542671204,0.5305598974227905,0.559738278388977,-9.636075973510742
1745736150.8298228,-0.023966936394572258,-0.03910427913069725,0.30368557572364807,0.4008628726005554,0.5644001960754395,-9.958467483520508
1745736150.829854,-0.01678585633635521,-0.030906984582543373,0.3022119104862213,0.39905112981796265,0.4206363260746002,-9.96190071105957
1745736150.8320189,-0.055317334830760956,-0.038281820714473724,0.30346953868865967,0.2592907249927521,0.3925582766532898,-9.658849716186523
1745736150.8359604,-0.0169770997017622,-0.036563340574502945,0.30251437425613403,0.36257094144821167,0.3076501488685608,-9.450087547302246
1745736150.8687584,-0.07351703941822052,-0.03221290931105614,0.3065760135650635,0.5318455696105957,0.401557981967926,-9.819562911987305
1745736150.8712883,-0.046043511480093,-0.03497913107275963,0.30632132291793823,0.44845837354660034,0.2926422953605652,-10.20156192779541
1745736150.8744845,-0.06823109090328217,-0.030180562287569046,0.3086870312690735,0.6830548048019409,0.408860445022583,-9.667747497558594
1745736150.876561,-0.06825727224349976,-0.03188531473278999,0.31105566024780273,0.38484320044517517,0.5320199728012085,-9.556746482849121
1745736150.8806787,-0.06980786472558975,-0.03575528785586357,0.31579023599624634,0.6406117081642151,0.4211655259132385,-9.798624038696289
1745736150.9133172,-0.06655784696340561,-0.03076760843396187,0.3146200478076935,0.4825451970100403,0.7851036190986633,-10.105047225952148
1745736150.9230878,-0.049254585057497025,-0.026190202683210373,0.31675225496292114,0.38935524225234985,0.7853189706802368,-9.805183410644531
1745736150.923131,-0.05257618427276611,-0.034709881991147995,0.31421828269958496,0.41761094331741333,0.7680652737617493,-9.439299583435059
1745736150.9231632,-0.016953885555267334,-0.03013838827610016,0.3139864206314087,0.34248900413513184,0.9535372853279114,-9.752228736877441
1745736150.954514,-0.042338062077760696,-0.030652571469545364,0.31250107288360596,0.5081988573074341,0.617209792137146,-10.15959358215332
1745736150.9559062,-0.0018414169317111373,-0.03002559207379818,0.316660612821579,0.35443639755249023,0.6652435064315796,-9.863160133361816
1745736150.9591088,-0.024084636941552162,-0.02165374532341957,0.3170240521430969,0.5694366693496704,0.35598593950271606,-9.48253059387207
1745736150.9650335,-0.030971016734838486,-0.03381075710058212,0.3213260769844055,0.36497098207473755,0.4786202013492584,-9.753719329833984
1745736150.9970312,-0.06808675825595856,-0.030164694413542747,0.32629579305648804,0.5479722023010254,0.5436912775039673,-9.62048625946045
1745736150.998474,-0.05873753875494003,-0.02262086607515812,0.3230789303779602,0.3601910471916199,0.5399619340896606,-10.17094612121582
1745736151.0011852,-0.06950636953115463,-0.015994664281606674,0.32472601532936096,0.4639827311038971,0.49640339612960815,-9.962441444396973
1745736151.004957,-0.07528884708881378,-0.022551679983735085,0.3238782286643982,0.24031023681163788,0.6063137650489807,-9.463957786560059
1745736151.008078,-0.0591219961643219,-0.019982093945145607,0.3296835720539093,0.5498558282852173,0.40882158279418945,-9.558545112609863
1745736151.039184,-0.06795328855514526,-0.020155811682343483,0.32860827445983887,0.4778594970703125,0.8850170969963074,-10.123559951782227
1745736151.0410683,-0.04890815168619156,-0.01721261814236641,0.3304618000984192,0.4016624093055725,0.5089954733848572,-10.16352653503418
1745736151.0449214,-0.046308115124702454,-0.01783149130642414,0.3316947817802429,0.5380552411079407,0.8557470440864563,-9.366914749145508
1745736151.0451658,-0.034568894654512405,-0.014723578467965126,0.3312053084373474,0.3400672376155853,0.7254464626312256,-9.55510139465332
1745736151.0910723,-0.039231546223163605,-0.01905965246260166,0.3327510356903076,0.4902149736881256,0.5487602949142456,-10.160943984985352
1745736151.091215,-0.027527326717972755,-0.014196743257343769,0.3294874131679535,0.33977359533309937,0.7909166812896729,-9.990534782409668
1745736151.0913546,-0.033871907740831375,-0.012982934713363647,0.3317228853702545,0.4768894612789154,0.285102903842926,-9.535408020019531
1745736151.0914373,-0.04643294960260391,-0.01791292615234852,0.3302207291126251,0.3553614020347595,0.7180944681167603,-9.522957801818848
1745736151.1276543,-0.03772256523370743,-0.017287880182266235,0.3498474657535553,0.4882086217403412,0.8405588269233704,-9.252653121948242
1745736151.130697,-0.04915263131260872,-0.009926690720021725,0.3491886556148529,0.42383140325546265,0.47691673040390015,-9.919013977050781
1745736151.1307638,-0.054296959191560745,-0.016324328258633614,0.34872499108314514,0.531177282333374,0.6380692720413208,-10.118989944458008
1745736151.1317425,-0.03508072346448898,-0.008102497085928917,0.35108131170272827,0.39018258452415466,0.7409742474555969,-9.596086502075195
1745736151.1352036,-0.05840190500020981,-0.009619813412427902,0.35244593024253845,0.4895516037940979,0.5594466328620911,-9.349357604980469
1745736151.1701455,-0.03780045360326767,-0.020320013165473938,0.35169827938079834,0.3749769628047943,0.8035343885421753,-9.8230562210083
1745736151.173361,-0.04544202983379364,-0.010153146460652351,0.353166401386261,0.5875592827796936,0.5698848962783813,-10.06226921081543
1745736151.1767898,-0.030846115201711655,-0.014179402962327003,0.3520827293395996,0.4299136996269226,0.9166290163993835,-9.728089332580566
1745736151.180785,-0.03757854551076889,-0.015568278729915619,0.354287326335907,0.4143557548522949,0.5828512907028198,-9.5477876663208
1745736151.2119286,-0.04092669114470482,-0.020707443356513977,0.35244444012641907,0.47433820366859436,0.7251027226448059,-9.682341575622559
1745736151.2130754,-0.01941477134823799,-0.011094358749687672,0.3525191843509674,0.4600710868835449,0.7583944201469421,-9.891114234924316
1745736151.2170885,-0.05727941542863846,-0.019920559599995613,0.35190415382385254,0.5013410449028015,0.5613034963607788,-9.850201606750488
1745736151.2245069,-0.024279166013002396,-0.021266650408506393,0.3512168526649475,0.38985225558280945,0.7126806378364563,-9.60478401184082
1745736151.2549388,-0.0485696867108345,-0.015531359240412712,0.3538029193878174,0.5406903624534607,0.5456675291061401,-9.633487701416016
1745736151.2580364,-0.03916695713996887,-0.019648104906082153,0.353649377822876,0.36211174726486206,0.8167694211006165,-9.852450370788574
1745736151.2607331,-0.03658752143383026,-0.019387096166610718,0.35415059328079224,0.55525803565979,0.4706018567085266,-9.866639137268066
1745736151.2630818,-0.04217349737882614,-0.0202410276979208,0.35711848735809326,0.46856871247291565,0.9064167737960815,-9.593670845031738
1745736151.26575,-0.025352593511343002,-0.020394863560795784,0.35538384318351746,0.4009358286857605,0.5874180197715759,-9.721687316894531
1745736151.2982883,-0.04910795018076897,-0.02252263016998768,0.35590389370918274,0.4725112318992615,0.7782796621322632,-9.79562759399414
1745736151.3019538,-0.024335984140634537,-0.02163735032081604,0.35410186648368835,0.3664112091064453,0.6381204128265381,-9.801151275634766
1745736151.3060951,-0.0375213660299778,-0.023142924532294273,0.3544985353946686,0.5572570562362671,0.6488543748855591,-9.591507911682129
1745736151.3084862,-0.041494499891996384,-0.0236259326338768,0.35537290573120117,0.3490125238895416,0.7602940797805786,-9.80833625793457
1745736151.3423734,-0.047068603336811066,-0.028572717681527138,0.35707712173461914,0.5435886383056641,0.696763813495636,-9.725261688232422
1745736151.3446047,-0.03535371273756027,-0.029197877272963524,0.3549971580505371,0.3137422204017639,0.914016604423523,-9.863521575927734
1745736151.3473089,-0.03908746689558029,-0.02586156502366066,0.35631924867630005,0.520866870880127,0.5181990265846252,-9.750521659851074
1745736151.3513753,-0.03163667768239975,-0.027779245749115944,0.35435763001441956,0.4159659445285797,1.0573657751083374,-9.502681732177734
1745736151.3889387,-0.04234151914715767,-0.029497886076569557,0.3543810248374939,0.45211949944496155,0.47669610381126404,-9.884414672851562
1745736151.3890958,-0.032617997378110886,-0.0370875708758831,0.35501205921173096,0.5272207856178284,0.8225616216659546,-9.871694564819336
1745736151.3891702,-0.03042653575539589,-0.02395409718155861,0.35455554723739624,0.3894427716732025,0.6466206908226013,-9.7241792678833
1745736151.3932643,-0.04729120433330536,-0.03165345638990402,0.3558906614780426,0.44755110144615173,0.6596972346305847,-9.536974906921387
1745736151.3967316,-0.022165954113006592,-0.03266705200076103,0.356962651014328,0.41951698064804077,0.7709164619445801,-9.74211311340332
1745736151.431538,-0.04354778677225113,-0.030578408390283585,0.35796231031417847,0.5839564800262451,0.6424829959869385,-9.941211700439453
1745736151.4384737,-0.02227635867893696,-0.031120818108320236,0.35711607336997986,0.31912699341773987,0.9521255493164062,-9.77101993560791
1745736151.4406903,-0.03939030319452286,-0.033427007496356964,0.35449475049972534,0.4260411262512207,0.5738397836685181,-9.63347053527832
1745736151.4445806,-0.029967278242111206,-0.03701571747660637,0.3563065528869629,0.43715906143188477,0.8020833730697632,-9.667708396911621
1745736151.4736652,-0.024204278364777565,-0.028085490688681602,0.3553919196128845,0.4500783085823059,0.6404833793640137,-9.85322380065918
1745736151.478166,0.009912515059113503,-0.055618397891521454,0.30089783668518066,0.5929158329963684,0.1560099571943283,-10.235814094543457
1745736151.489175,-0.06579917669296265,-0.05646688491106033,0.29207608103752136,-0.0459047369658947,-0.13985314965248108,-11.131629943847656
1745736151.4892962,-0.0957397073507309,-0.0605599507689476,0.28633037209510803,0.13162171840667725,-0.13495180010795593,-9.251301765441895
1745736151.5129807,-0.10520030558109283,-0.05370789021253586,0.2795667052268982,-0.21754106879234314,0.5776289701461792,-8.517560005187988
1745736151.5156112,-0.19318005442619324,-0.07682205736637115,0.26998600363731384,0.055318646132946014,0.6464646458625793,-10.28844928741455
1745736151.5207412,-0.1266060322523117,-0.0729561448097229,0.2586759328842163,-0.12717440724372864,1.1453555822372437,-10.918050765991211
1745736151.5245101,-0.09772743284702301,-0.04610094428062439,0.24993541836738586,-0.1752789467573166,1.7333457469940186,-9.263790130615234
1745736151.529252,-0.0780562311410904,-0.0842670351266861,0.24548104405403137,0.13990439474582672,1.8966106176376343,-8.770692825317383
1745736151.5571976,0.036510758101940155,-0.08389075845479965,0.24486954510211945,0.24648483097553253,1.550551176071167,-10.557853698730469
1745736151.5592053,0.06107593700289726,-0.07211765646934509,0.24535369873046875,0.04906968027353287,1.486812949180603,-11.001394271850586
1745736151.5644763,0.11948549747467041,-0.06702539324760437,0.24733667075634003,-0.12839844822883606,1.0660864114761353,-9.178525924682617
1745736151.5659978,0.10714863240718842,-0.07990531623363495,0.24120283126831055,0.035948146134614944,0.8990191221237183,-8.443262100219727
1745736151.5979562,0.11406826972961426,-0.09121374785900116,0.23735657334327698,0.1756061613559723,0.6352984309196472,-10.313637733459473
1745736151.6007652,0.11835479736328125,-0.06533348560333252,0.233891561627388,-0.399882048368454,0.6861921548843384,-11.16777515411377
1745736151.6032004,0.08878383040428162,-0.05108903720974922,0.22072234749794006,-0.09706858545541763,0.35902541875839233,-8.908727645874023
1745736151.6057794,0.03377644345164299,-0.09430819749832153,0.21102473139762878,0.29718536138534546,-0.3638090193271637,-8.506440162658691
1745736151.6082227,-0.06290774047374725,-0.10300998389720917,0.20974941551685333,-0.13119524717330933,-0.41742080450057983,-11.075460433959961
