timestamp,angular_vel_x,angular_vel_y,angular_vel_z,linear_acc_x,linear_acc_y,linear_acc_z
1745659482.9555385,0.027581531554460526,0.02468695119023323,0.015367090702056885,0.7005825638771057,0.1816522777080536,-13.038961410522461
1745659482.9595659,0.07108744978904724,0.030496779829263687,0.017526861280202866,0.3305177092552185,0.36263880133628845,-7.329294681549072
1745659482.9596167,0.03006497398018837,-0.018060633912682533,0.023005764931440353,0.589783251285553,-0.2013683021068573,-6.636109828948975
1745659482.9609144,0.028003010898828506,-0.03138837590813637,0.029046665877103806,0.7353121638298035,-0.4470488429069519,-12.220919609069824
1745659482.9914184,0.047398924827575684,0.022461751475930214,0.030337557196617126,-0.005347123835235834,-0.05186116695404053,-12.660799026489258
1745659482.993603,0.01867160201072693,0.04135426878929138,0.029936665669083595,-0.3440583646297455,-0.18024535477161407,-7.226265907287598
1745659482.997674,-0.010314762592315674,-0.02061311900615692,0.026129329577088356,0.5001522898674011,-0.23527197539806366,-6.405322074890137
1745659482.9994678,-0.03137049823999405,-2.109650449710898e-05,0.022855835035443306,0.615369439125061,-0.11041557788848877,-12.105289459228516
1745659483.0018156,-0.02578616514801979,0.02263317070901394,0.019527355208992958,0.7218421101570129,-0.3768863379955292,-13.055910110473633
1745659483.0376124,-0.03292445093393326,0.029292279854416847,0.027931150048971176,0.31118860840797424,-0.4099656939506531,-7.584300994873047
1745659483.0390418,-0.054180704057216644,0.0001242579019162804,0.03960301727056503,0.41428032517433167,-0.68495774269104,-6.722521781921387
1745659483.0400624,-0.08294262737035751,-0.0027968958020210266,0.0543789342045784,0.740207314491272,-0.3777555823326111,-11.523776054382324
1745659483.0432978,-0.04872346669435501,0.032843030989170074,0.059399861842393875,0.6446239948272705,0.12128472328186035,-12.605189323425293
1745659483.0783088,-0.028954505920410156,0.03669985011219978,0.06229675933718681,0.5053080916404724,0.36401069164276123,-8.239130020141602
1745659483.0818384,-0.03459988534450531,0.01200863253325224,0.05954457074403763,0.3159114122390747,0.5453342199325562,-7.153143405914307
1745659483.0826213,-0.04525836557149887,0.00587434833869338,0.06524805724620819,1.0155576467514038,0.030381295830011368,-11.070451736450195
1745659483.0893269,-0.05356302857398987,0.012848695740103722,0.09314822405576706,0.9721148610115051,-0.06030961126089096,-7.482271671295166
1745659483.1241043,-0.054831404238939285,0.01943334937095642,0.10084439814090729,1.1126563549041748,0.06221700832247734,-10.479397773742676
1745659483.127106,-0.01586659625172615,0.03531033545732498,0.1048775464296341,1.2541269063949585,0.7764203548431396,-11.826343536376953
1745659483.1283817,-0.008803815580904484,0.030876409262418747,0.10437959432601929,0.5438240170478821,0.5757833123207092,-9.6786470413208
1745659483.1293972,0.039854515343904495,0.027821186929941177,0.10830841213464737,0.403974711894989,0.4688754081726074,-7.794315338134766
1745659483.1647522,0.024011295288801193,0.031502507627010345,0.11293842643499374,0.3599321246147156,0.45041990280151367,-9.676807403564453
1745659483.1683147,0.044463831931352615,0.04129544645547867,0.11673520505428314,0.6527948379516602,-0.11390049755573273,-11.326092720031738
1745659483.1699858,0.059596121311187744,0.05198868364095688,0.12571421265602112,0.8214052319526672,-0.23399648070335388,-9.808377265930176
1745659483.171201,0.0394761748611927,0.05743216350674629,0.1323464810848236,0.30838969349861145,-0.3403390944004059,-8.449274063110352
1745659483.1712582,-0.015276988968253136,0.044852517545223236,0.14175355434417725,0.9530269503593445,-0.9727520942687988,-9.15882682800293
1745659483.2174134,-0.020498137921094894,0.06095316261053085,0.15047495067119598,1.114025354385376,-0.6867571473121643,-10.824956893920898
1745659483.2238145,-0.0636821761727333,0.06344433128833771,0.15538108348846436,0.9136167764663696,-0.6461139917373657,-10.540684700012207
1745659483.2266095,-0.11518070846796036,0.05118544027209282,0.16263237595558167,0.560171902179718,-0.7669901847839355,-8.96660041809082
1745659483.2276855,-0.0744708776473999,0.038148123770952225,0.30981433391571045,0.8096805810928345,0.0011843085521832108,-9.262140274047852
1745659483.2491803,-0.12555456161499023,0.018752630800008774,0.3131185472011566,1.0814059972763062,-0.2387128323316574,-9.883718490600586
1745659483.2528796,-0.11652426421642303,0.023066947236657143,0.3195441961288452,0.9902427792549133,-0.11426158249378204,-10.222025871276855
1745659483.256981,-0.1248566061258316,0.038277748972177505,0.3233511447906494,0.8791288137435913,0.20174849033355713,-9.636116027832031
1745659483.2610571,-0.1433696448802948,0.007745392620563507,0.32786086201667786,0.7144367098808289,0.24206674098968506,-9.292959213256836
1745659483.2639549,-0.10500004142522812,0.02338024601340294,0.3304082453250885,0.8340017199516296,0.4651743471622467,-9.58603286743164
1745659483.2963219,-0.10209254175424576,0.01731611229479313,0.3372010290622711,0.8407747149467468,0.5824782252311707,-10.19947624206543
1745659483.3003051,-0.07367943227291107,0.013980251736938953,0.33763283491134644,0.6992588043212891,0.6143463850021362,-9.915261268615723
1745659483.300396,-0.06371568143367767,0.014513115398585796,0.34196797013282776,0.9363213777542114,0.28569895029067993,-9.362323760986328
1745659483.3036423,-0.046525247395038605,0.005572018679231405,0.34467628598213196,0.7399973273277283,0.45491981506347656,-9.627395629882812
1745659483.3364165,-0.07651082426309586,0.00489117531105876,0.34451737999916077,1.0551385879516602,0.09057064354419708,-10.117362022399902
1745659483.3414216,-0.060820937156677246,-0.006448638625442982,0.3447219431400299,1.0671699047088623,0.07190002501010895,-9.959136962890625
1745659483.3448012,-0.08185885846614838,0.005381499882787466,0.3481076657772064,0.7649196982383728,0.15868696570396423,-9.616634368896484
1745659483.3475194,-0.1161922961473465,-0.018516113981604576,0.3522193431854248,0.9938801527023315,-0.1663019359111786,-9.564465522766113
1745659483.351021,-0.1023087278008461,-0.0051591405645012856,0.3568725287914276,0.8471989631652832,0.08952951431274414,-9.79435920715332
1745659483.3837013,-0.12006304413080215,-0.004425663035362959,0.3602515459060669,0.9004119634628296,0.1545775830745697,-9.895753860473633
1745659483.3871524,-0.11581029742956161,-0.02086174301803112,0.3675485849380493,0.758145272731781,0.354619562625885,-9.710004806518555
1745659483.3912683,-0.09749474376440048,-0.002995856339111924,0.37081000208854675,0.8151935338973999,0.39194756746292114,-9.514284133911133
1745659483.395349,-0.08264835923910141,-0.022288024425506592,0.37140682339668274,0.8421857953071594,0.5606060028076172,-9.719247817993164
1745659483.422113,-0.08522108942270279,-0.016163809224963188,0.37297505140304565,0.7058684229850769,0.4054458737373352,-10.069872856140137
1745659483.4249518,-0.06996302306652069,-0.02213430404663086,0.3770068287849426,0.9679116010665894,0.18031266331672668,-9.738394737243652
1745659483.4282262,-0.07715816795825958,-0.018603142350912094,0.37440600991249084,0.6810838580131531,0.5398634672164917,-9.539034843444824
1745659483.4294436,-0.10223851352930069,-0.028628503903746605,0.37574902176856995,0.9817787408828735,-0.045130323618650436,-9.803799629211426
1745659483.4653144,-0.12118153274059296,-0.04285211116075516,0.3817252218723297,0.9051772356033325,0.14277024567127228,-9.49797534942627
1745659483.4679945,-0.10123739391565323,-0.026140209287405014,0.38895291090011597,0.8219385147094727,0.3563183844089508,-9.64676284790039
1745659483.4695432,-0.1085197776556015,-0.03582892194390297,0.3943102955818176,0.909337043762207,0.3987954258918762,-10.02568244934082
1745659483.4718418,-0.09171747416257858,-0.04256509616971016,0.39449310302734375,0.6889219880104065,0.5817657709121704,-9.924701690673828
1745659483.5083814,-0.06703027337789536,-0.03174527734518051,0.39706724882125854,0.81556236743927,0.44786614179611206,-9.569886207580566
1745659483.5103173,-0.07532086223363876,-0.04684807360172272,0.398804247379303,0.6743813753128052,0.6371063590049744,-9.679265022277832
1745659483.5144777,-0.07915042340755463,-0.04326273873448372,0.39664798974990845,0.7383545637130737,0.20418760180473328,-10.049245834350586
1745659483.5183487,-0.06890113651752472,-0.04665074497461319,0.3995618224143982,1.0017757415771484,0.33214086294174194,-9.775007247924805
1745659483.522016,-0.09828966110944748,-0.047417521476745605,0.3972330689430237,0.5877128839492798,0.2286873310804367,-9.745787620544434
1745659483.5513318,-0.11128070205450058,-0.05380843207240105,0.40094757080078125,1.004385232925415,-0.06305134296417236,-9.631303787231445
1745659483.5548427,-0.10929801315069199,-0.05147980898618698,0.40457552671432495,0.8178095817565918,0.24916188418865204,-9.805681228637695
1745659483.5580783,-0.12556996941566467,-0.04481255263090134,0.40836381912231445,0.8008154034614563,0.22035880386829376,-9.856958389282227
1745659483.5618615,-0.12418128550052643,-0.05955013632774353,0.41247835755348206,0.8603278398513794,0.36396101117134094,-9.66137409210205
1745659483.5954123,-0.10641863197088242,-0.0566309317946434,0.4486727714538574,0.6702364683151245,0.8649764060974121,-9.890270233154297
1745659483.6001146,-0.07250972837209702,-0.04988052323460579,0.4479011595249176,0.4493280053138733,0.7224228382110596,-9.810195922851562
1745659483.6065743,-0.08826639503240585,-0.051720477640628815,0.44785675406455994,0.6334222555160522,0.8090533018112183,-9.589048385620117
1745659483.6081414,-0.08382011950016022,-0.05839981883764267,0.4476071894168854,0.5066541433334351,0.33926844596862793,-9.89600658416748
1745659483.6116972,-0.0638788491487503,-0.04359646886587143,0.4478461742401123,0.8120729327201843,0.655705988407135,-9.733975410461426
1745659483.6365068,-0.11041579395532608,-0.0560811385512352,0.4484018385410309,0.5572279691696167,0.44035273790359497,-9.917925834655762
1745659483.6393085,-0.07849838584661484,-0.04881943017244339,0.4486396908760071,0.7491186857223511,0.31439024209976196,-9.68978214263916
1745659483.6429348,-0.0919392928481102,-0.044838547706604004,0.45681262016296387,0.6608582139015198,0.6007423400878906,-9.600491523742676
1745659483.646613,-0.10660050809383392,-0.054128021001815796,0.45384225249290466,0.5311092138290405,0.8056098222732544,-10.009350776672363
1745659483.6819673,-0.062248051166534424,-0.08055578172206879,0.4384801983833313,0.6262181997299194,1.0850136280059814,-9.848024368286133
1745659483.686754,-0.04990985244512558,-0.03636910766363144,0.4209291934967041,-0.6089614033699036,1.5436785221099854,-10.161468505859375
1745659483.6914887,-0.030382473021745682,-0.07797320187091827,0.406390905380249,-0.17608493566513062,1.513485074043274,-9.03449821472168
1745659483.6960244,-0.004419670905917883,-0.07644597440958023,0.39701834321022034,-0.37491679191589355,0.1373617947101593,-9.742737770080566
1745659483.6998093,0.06340446323156357,-0.03474096208810806,0.394182026386261,-0.6469632387161255,0.7373757362365723,-10.004183769226074
1745659483.7259738,-0.07117269933223724,-0.060889460146427155,0.3946245312690735,-0.18743911385536194,-0.7810962200164795,-9.722017288208008
1745659483.7263439,-0.030542273074388504,-0.03739861398935318,0.4039977192878723,0.5092300176620483,-1.1611489057540894,-8.988923072814941
1745659483.728747,-0.035595543682575226,-0.058676593005657196,0.4021156430244446,0.7280893325805664,0.5186036825180054,-9.868711471557617
1745659483.7315018,-0.21573567390441895,-0.08462255448102951,0.3946459889411926,0.3439788222312927,-0.7388126254081726,-11.523506164550781
1745659483.770825,-0.0928967148065567,-0.05367196351289749,0.3901473879814148,0.3859221935272217,-0.06517715752124786,-9.467767715454102
1745659483.7729683,-0.21810054779052734,-0.06755955517292023,0.3787063956260681,-0.07505826652050018,0.8512824773788452,-8.316946029663086
1745659483.774187,-0.24674487113952637,-0.09398074448108673,0.3687005043029785,0.10163722187280655,0.32964977622032166,-9.919776916503906
1745659483.7760177,-0.1723417341709137,-0.06798434257507324,0.36053580045700073,0.15134426951408386,1.4400132894515991,-10.949418067932129
1745659483.809702,-0.1578703373670578,-0.056758712977170944,0.3513410687446594,-0.07229528576135635,1.755605697631836,-9.640012741088867
1745659483.8136084,0.06466333568096161,-0.08005853742361069,0.34928420186042786,0.05882805585861206,0.7216482162475586,-9.5027437210083
1745659483.815254,0.10041941702365875,-0.07334334403276443,0.35012197494506836,0.024321993812918663,0.7596853971481323,-8.473273277282715
1745659483.818741,0.059955500066280365,-0.0918666422367096,0.3438183069229126,0.23618514835834503,0.37289923429489136,-9.9343843460083
1745659483.8537207,0.03679332509636879,-0.07598547637462616,0.3321198523044586,0.016575250774621964,0.23128437995910645,-11.055320739746094
1745659483.8553765,0.013124248012900352,-0.06370913237333298,0.3169816732406616,0.2161455601453781,0.1194482296705246,-9.53426456451416
1745659483.8575718,-0.06647201627492905,-0.08470197021961212,0.31083744764328003,0.18511629104614258,-0.2796005606651306,-8.731210708618164
1745659483.8601503,-0.08926057815551758,-0.08061505854129791,0.3098905384540558,0.358084499835968,-0.3607957363128662,-9.995683670043945
1745659483.8965664,-0.1360529661178589,-0.07931075990200043,0.31413453817367554,0.3874545991420746,-0.2145552635192871,-10.838892936706543
1745659483.9010084,-0.11914841830730438,-0.06212474778294563,0.32318711280822754,0.03503350168466568,0.2837288975715637,-9.730097770690918
1745659483.9042685,-0.11429743468761444,-0.07672389596700668,0.3249656558036804,0.17876729369163513,0.7895726561546326,-8.71039867401123
1745659483.9078262,-0.07680021226406097,-0.08166135102510452,0.32496288418769836,-0.08923130482435226,1.4414952993392944,-9.950758934020996
1745659483.9115803,-0.021397631615400314,-0.06121228262782097,0.31713947653770447,0.07524371147155762,1.579724907875061,-10.745915412902832
1745659483.9392238,0.09975923597812653,-0.02250450849533081,0.22056682407855988,0.23933234810829163,1.354375958442688,-11.226350784301758
1745659483.9414244,0.18400192260742188,0.007303932216018438,0.20644338428974152,-0.23129157721996307,1.348613977432251,-11.544790267944336
1745659483.943694,0.17975345253944397,0.025898229330778122,0.1947261393070221,-0.380791574716568,0.9369087219238281,-8.283886909484863
1745659483.9470675,0.17944470047950745,-0.0009569363901391625,0.19283315539360046,-0.38832318782806396,0.28383851051330566,-7.650368690490723
1745659483.9823,0.15061895549297333,0.012401843443512917,0.19359788298606873,0.31342238187789917,0.05841431766748428,-10.599030494689941
1745659483.9857304,0.15252149105072021,0.03311259299516678,0.19607418775558472,0.5498539209365845,-0.26232901215553284,-11.831578254699707
1745659483.9880512,0.13892850279808044,0.04450095072388649,0.19624005258083344,0.767695426940918,0.25340762734413147,-9.10232925415039
1745659483.9911883,0.07978881150484085,-0.001981019973754883,0.19693975150585175,0.8123688697814941,-0.18900829553604126,-8.347672462463379
1745659484.024832,0.11827971041202545,0.020310651510953903,0.19840630888938904,0.6564986109733582,0.4109662175178528,-10.640138626098633
1745659484.0282893,0.06642314791679382,0.015226605348289013,0.19475725293159485,0.29149284958839417,0.21743647754192352,-11.442809104919434
1745659484.0315123,0.10863242298364639,0.032932840287685394,0.19547180831432343,-0.14611127972602844,0.564490556716919,-9.007307052612305
1745659484.0327814,0.1095900908112526,0.030623555183410645,0.19516995549201965,-0.08696796000003815,0.9841009974479675,-7.9899797439575195
1745659484.0663729,0.11380211263895035,0.009087786078453064,0.1826539933681488,0.04797958582639694,1.1658315658569336,-10.230884552001953
1745659484.0689292,0.17558154463768005,0.03978725150227547,0.17586815357208252,0.5478901863098145,0.923631489276886,-11.322924613952637
1745659484.0722673,0.18498709797859192,0.04293764382600784,0.17391225695610046,0.4490678906440735,0.655277669429779,-9.67935848236084
1745659484.0729778,0.18714138865470886,0.023321861401200294,0.17618176341056824,0.37642139196395874,0.27747076749801636,-8.377889633178711
1745659484.074654,0.17816953361034393,0.026191871613264084,0.18802237510681152,0.7071366310119629,-0.4181325435638428,-9.667691230773926
1745659484.1121361,0.17911048233509064,0.04407283663749695,0.1945572793483734,0.2510107159614563,0.013415390625596046,-10.941530227661133
1745659484.1154902,0.13582250475883484,0.05086689442396164,0.19904831051826477,0.42971357703208923,-0.11990933120250702,-9.616265296936035
1745659484.1174247,0.13778504729270935,0.035645902156829834,0.1935492306947708,0.09325146675109863,0.4933503270149231,-8.61795425415039
1745659484.1192713,0.12708905339241028,0.049871914088726044,0.18491622805595398,0.05093202739953995,0.7607480883598328,-9.671062469482422
1745659484.1539524,0.1180744543671608,0.04476683586835861,0.17550687491893768,0.31775572896003723,0.4357845187187195,-10.572959899902344
1745659484.1557946,0.12339857965707779,0.05428851768374443,0.17165938019752502,0.2202347218990326,0.35101306438446045,-9.771463394165039
1745659484.1579864,0.16370384395122528,0.05368192866444588,0.20255830883979797,0.43841442465782166,0.6214009523391724,-9.973640441894531
1745659484.1605067,0.17455129325389862,0.05753850191831589,0.2006545513868332,0.2149392068386078,0.6839967966079712,-9.452631950378418
1745659484.1611702,0.18235798180103302,0.03896162658929825,0.19292810559272766,0.26026609539985657,0.6303452253341675,-9.51198959350586
1745659484.1979816,0.18132682144641876,0.056123800575733185,0.18703481554985046,-0.07014831155538559,0.21822531521320343,-9.929656028747559
1745659484.2015538,0.1486944854259491,0.06826971471309662,0.19330261647701263,0.43249043822288513,-0.41081076860427856,-9.684114456176758
1745659484.201664,0.1203908771276474,0.048957616090774536,0.20076613128185272,0.6921707987785339,-0.45602598786354065,-9.405679702758789
1745659484.2032127,0.0878131091594696,0.07403498142957687,0.21319523453712463,0.9565545320510864,-0.8069002032279968,-9.959874153137207
1745659484.2397063,0.0600714311003685,0.0653858631849289,0.2305123507976532,1.2428038120269775,-0.12292931228876114,-9.872345924377441
1745659484.243885,0.025951016694307327,0.05967865511775017,0.23456136882305145,1.2594653367996216,-0.20384268462657928,-9.780447006225586
1745659484.2487748,0.05754010006785393,0.052799440920352936,0.24023103713989258,1.1241313219070435,0.578197717666626,-9.792378425598145
1745659484.2525868,0.03187135234475136,0.06520871073007584,0.24044902622699738,0.4040297567844391,0.8433948755264282,-9.954675674438477
1745659484.256088,0.08416230976581573,0.058950670063495636,0.24278593063354492,0.3475887179374695,0.7822243571281433,-9.368846893310547
1745659484.2915049,0.10962861776351929,0.07989589869976044,0.24115478992462158,0.13668705523014069,1.4126336574554443,-9.087778091430664
1745659484.2978237,-0.0654868483543396,0.030068030580878258,0.33876100182533264,0.7331810593605042,0.10016568750143051,-9.693373680114746
1745659484.3041263,-0.029749149456620216,0.04755513370037079,0.34446024894714355,0.7646727561950684,0.5905214548110962,-9.930542945861816
1745659484.3246984,-0.01675862818956375,0.03261597827076912,0.342817097902298,0.44384318590164185,0.8803685307502747,-9.84168815612793
1745659484.3273544,0.019646309316158295,0.0340346023440361,0.339497447013855,0.44274935126304626,0.6461990475654602,-9.466686248779297
1745659484.3288827,0.034641336649656296,0.03440297767519951,0.33488959074020386,0.6746808290481567,0.5236490368843079,-9.504232406616211
1745659484.329549,0.02701606974005699,0.03090513125061989,0.331011563539505,0.5559046864509583,0.25931316614151,-10.067193984985352
1745659484.3337212,0.011689779348671436,0.02079182304441929,0.33276742696762085,0.9759830236434937,-0.46114087104797363,-9.94677448272705
1745659484.3710966,-0.004180411342531443,0.03050747513771057,0.340027391910553,0.8007147908210754,-0.41235679388046265,-9.6010160446167
1745659484.3742044,-0.049753643572330475,0.020427385345101357,0.3496078848838806,0.8856635093688965,-0.5920039415359497,-9.603022575378418
1745659484.3762364,-0.07396392524242401,0.00589930173009634,0.35205692052841187,0.9603219032287598,-0.3585510849952698,-9.870462417602539
1745659484.3793304,-0.06987366825342178,0.027552276849746704,0.35565850138664246,0.7418127655982971,-0.03645823523402214,-9.959223747253418
1745659484.412191,-0.09227844327688217,0.005419433582574129,0.3585221469402313,0.685977578163147,0.1716722995042801,-9.695645332336426
1745659484.4157546,-0.07685299217700958,0.005466119851917028,0.35397812724113464,0.4615054130554199,0.4319848418235779,-9.59785270690918
1745659484.4186206,-0.0661444216966629,0.009953985922038555,0.3566115200519562,0.6221252679824829,0.2533121705055237,-9.840554237365723
1745659484.4253414,-0.05513773113489151,0.003497399389743805,0.35381078720092773,0.4571212828159332,0.5645378828048706,-9.896410942077637
1745659484.4283402,-0.06095653027296066,0.0021555020939558744,0.3551483154296875,0.7982641458511353,0.06786805391311646,-9.709810256958008
1745659484.456059,-0.0390799380838871,-0.008929905481636524,0.35532957315444946,0.9017634391784668,0.33681437373161316,-9.63518238067627
1745659484.4581869,-0.05693291872739792,-0.001984319183975458,0.3589666783809662,0.7769606113433838,0.08295238018035889,-10.03660774230957
1745659484.4656656,-0.06547669321298599,-0.018055614084005356,0.36255207657814026,1.0008281469345093,-0.10432978719472885,-9.873506546020508
1745659484.4664886,-0.06211962550878525,-0.005543213803321123,0.3659571707248688,0.7104246020317078,0.04254120960831642,-9.631354331970215
1745659484.5024016,-0.08221141993999481,-0.014253387227654457,0.3683694005012512,0.7328690886497498,0.11503217369318008,-9.624662399291992
1745659484.5073957,-0.07669416815042496,-0.025663256645202637,0.36702367663383484,0.5928052663803101,0.24577443301677704,-9.8612699508667
1745659484.5103934,-0.0696987584233284,-0.02585814893245697,0.3701772391796112,0.6222594976425171,0.1268625259399414,-9.892936706542969
1745659484.5114481,-0.08908455073833466,-0.032993875443935394,0.3714984059333801,0.8140848278999329,-0.2741866707801819,-9.766077041625977
1745659484.5445387,-0.08717279136180878,-0.03438346087932587,0.3735795319080353,0.7311058640480042,0.07878049463033676,-9.685343742370605
1745659484.5477402,-0.10197444260120392,-0.020766885951161385,0.37643948197364807,0.6026721000671387,0.11443357169628143,-9.740211486816406
1745659484.5512946,-0.12092287838459015,-0.05595960095524788,0.3776819407939911,0.9996373057365417,0.2766208052635193,-9.924246788024902
1745659484.5543728,-0.04233422130346298,-0.06827254593372345,0.3725462853908539,-0.06929744780063629,1.1317425966262817,-10.191507339477539
1745659484.5841718,-0.04458250477910042,-0.01861073076725006,0.351853609085083,-0.33281660079956055,0.95457524061203,-9.729178428649902
1745659484.585985,-0.03530651703476906,-0.09271831065416336,0.33998969197273254,-0.37852126359939575,0.877718448638916,-8.986464500427246
1745659484.5875795,-0.05028148368000984,-0.09174122661352158,0.33269160985946655,-0.45012980699539185,-0.45019635558128357,-10.14367961883545
1745659484.592782,0.007410593330860138,-0.023938992992043495,0.3311040699481964,-1.136298418045044,0.32184892892837524,-10.587381362915039
1745659484.5955997,-0.12036542594432831,-0.0879255086183548,0.3389522433280945,-0.34520748257637024,-1.1733684539794922,-8.853392601013184
1745659484.6364696,-0.05356240272521973,-0.04089432954788208,0.34966549277305603,0.7422370910644531,-1.475694179534912,-8.530845642089844
1745659484.63652,-0.17067928612232208,-0.07921947538852692,0.3450377881526947,0.8918970823287964,0.48965245485305786,-10.72233772277832
1745659484.6370077,-0.1455473005771637,-0.12562233209609985,0.3374149799346924,0.6504491567611694,-1.1807644367218018,-12.182815551757812
1745659484.6407278,0.0010787881910800934,-0.07514947652816772,0.3237113952636719,-0.6835905909538269,0.31952786445617676,-10.680513381958008
1745659484.670044,-0.05375950410962105,-0.14909085631370544,0.3251124322414398,-0.5322955846786499,-0.012053394690155983,-8.986187934875488
1745659484.6707225,-0.01843387447297573,-0.10388761758804321,0.31606385111808777,0.785618782043457,-0.4821433126926422,-8.758938789367676
1745659484.6738086,-0.0807093158364296,-0.052475012838840485,0.3046174645423889,0.16260454058647156,1.78742253780365,-11.122722625732422
1745659484.6784248,-0.04529488831758499,-0.19752530753612518,0.2888462245464325,0.36690109968185425,-0.7260770797729492,-10.609790802001953
1745659484.6790211,-0.051169704645872116,0.050011325627565384,0.2758888304233551,0.6098464727401733,1.0757933855056763,-7.95672607421875
1745659484.7166948,-0.21291570365428925,-0.21833527088165283,0.27158182859420776,0.9804047346115112,-0.9183761477470398,-9.883584976196289
1745659484.7228189,-0.06806614249944687,-0.049123771488666534,0.28449326753616333,0.33618372678756714,-0.23216243088245392,-12.408768653869629
1745659484.7229996,-0.10564416646957397,-0.00806860439479351,0.2589195668697357,0.21974119544029236,3.5807723999023438,-9.112192153930664
1745659484.7256997,-0.07341942191123962,-0.12111774832010269,0.23997452855110168,1.651573896408081,-0.8494652509689331,-7.626878261566162
1745659484.7589717,0.08268439769744873,-0.021243803203105927,0.22081339359283447,1.2691513299942017,3.5337111949920654,-10.208158493041992
1745659484.7602158,0.008396154269576073,-0.08794759213924408,0.19682207703590393,0.7824884653091431,0.5532370805740356,-13.099858283996582
1745659484.7623441,0.23398932814598083,-0.001266631530597806,0.2041536122560501,0.6002702713012695,0.9942115545272827,-9.127226829528809
1745659484.7639213,0.04080624133348465,-0.0381673164665699,0.2116582691669464,0.13737300038337708,-0.7391170859336853,-7.535712242126465
1745659484.799688,0.1198963075876236,-0.05575886368751526,0.2213541567325592,0.5430112481117249,-1.442497968673706,-10.72610855102539
1745659484.8035426,0.03513156250119209,0.007595537696033716,0.19609439373016357,0.5344663858413696,2.619776487350464,-11.378301620483398
1745659484.808791,0.019353527575731277,0.02079807221889496,0.1621757447719574,0.26780688762664795,-1.35204017162323,-9.74478816986084
1745659484.8113751,0.052845705300569534,0.014029365964233875,0.1362752616405487,1.244823694229126,2.141751527786255,-6.370635032653809
1745659484.840734,-0.09639336913824081,-0.04248304292559624,0.12056112289428711,1.1706370115280151,-1.5280482769012451,-12.176408767700195
1745659484.8449028,0.03713507205247879,0.01585550419986248,0.1422114372253418,0.4578469693660736,-0.21238115429878235,-12.997261047363281
1745659484.8461003,-0.09134422987699509,0.06838072836399078,0.15282219648361206,-0.00033907889155671,-0.030583858489990234,-8.343817710876465
1745659484.8498378,0.09837523847818375,0.08499597012996674,0.0985354632139206,0.41009393334388733,-0.6393815875053406,-12.377472877502441
1745659484.8853524,0.11042334884405136,0.10188643634319305,0.09495691955089569,1.1021616458892822,0.09184450656175613,-8.871133804321289
1745659484.8879585,0.04895476624369621,0.06482378393411636,0.08133719861507416,0.9980546236038208,0.6454316973686218,-7.561540126800537
1745659484.8928423,0.0702364444732666,0.04774877056479454,0.06913051754236221,1.142904281616211,0.423555850982666,-10.856036186218262
1745659484.8929636,0.08688861131668091,0.08463786542415619,0.05623232200741768,0.39633768796920776,0.9417486190795898,-12.380605697631836
1745659484.8934798,0.11788006871938705,0.08813704550266266,0.057596854865550995,0.07189616560935974,-0.05241229385137558,-9.237180709838867
1745659484.928126,0.09462088346481323,0.08829029649496078,0.06157103180885315,-0.16346096992492676,0.2615453600883484,-7.109205722808838
1745659484.932365,0.1103249043226242,0.08666200935840607,0.05895255133509636,-0.027978256344795227,0.4552101492881775,-9.409749031066895
1745659484.9333143,0.13413743674755096,0.12051625549793243,0.050876885652542114,0.48888832330703735,0.6291738748550415,-11.300405502319336
1745659484.9360874,0.14227166771888733,0.12592478096485138,0.034290120005607605,0.6878873109817505,1.099871039390564,-9.87796401977539
1745659484.972806,0.15173985064029694,0.10400693118572235,0.026439528912305832,1.022533655166626,0.1275373250246048,-8.816625595092773
1745659484.975333,0.14540378749370575,0.10553883016109467,0.019347917288541794,0.6838439702987671,0.723934531211853,-9.984235763549805
1745659484.9780824,0.13104809820652008,0.11760205030441284,0.014450142160058022,0.7664316296577454,-0.33568471670150757,-10.493054389953613
1745659484.9836185,0.12937703728675842,0.13480673730373383,0.015409219078719616,0.475210577249527,0.1639735996723175,-9.125226020812988
1745659485.0191739,0.13692377507686615,0.001144131296314299,0.03544943779706955,0.45521098375320435,-0.08262968063354492,-9.231424331665039
1745659485.019263,0.09568659216165543,0.014431369490921497,0.03659646958112717,-0.09192989021539688,-0.03345821052789688,-9.520153045654297
1745659485.0209255,0.06138821691274643,-0.04341203346848488,0.04303839057683945,-0.5100337266921997,-0.479478120803833,-10.003469467163086
1745659485.023845,0.05408270284533501,0.0025920115876942873,0.0532572865486145,-0.49609699845314026,-0.3491808772087097,-9.60240650177002
1745659485.057601,0.04529928043484688,-0.025659793987870216,0.06366356462240219,-0.8764520883560181,0.033434636890888214,-9.54101848602295
1745659485.0594056,-0.009272826835513115,-0.048187773674726486,0.0742664486169815,-0.3456656038761139,-0.7411890625953674,-9.8789644241333
1745659485.0621772,0.040362726897001266,-0.02078341692686081,0.07871069014072418,-0.6814641356468201,0.7190043330192566,-9.689200401306152
1745659485.0641916,0.0003790050686802715,-0.029441187158226967,0.06921253353357315,0.1470995545387268,0.49981775879859924,-9.235847473144531
1745659485.0658705,0.08845001459121704,-0.04112669453024864,0.06662687659263611,0.4496996998786926,0.5712214708328247,-9.45478630065918
1745659485.1038222,0.04874228313565254,-0.06332609802484512,0.08401434123516083,0.6179412007331848,-0.5295346975326538,-10.611631393432617
1745659485.1070828,0.0798054188489914,-0.06794377416372299,0.11084131896495819,0.17852643132209778,-0.6817435026168823,-10.732830047607422
1745659485.1131723,0.059613488614559174,-0.05510355159640312,0.12603476643562317,-0.77078777551651,-0.4478968679904938,-9.325874328613281
1745659485.1161356,0.04702845215797424,-0.05551224201917648,0.13140752911567688,-0.3145206570625305,-0.04566602781414986,-8.361893653869629
1745659485.1445389,0.03716583177447319,-0.06226781755685806,0.10569324344396591,0.008710676804184914,1.3058688640594482,-9.60963249206543
1745659485.1466072,0.04759501293301582,-0.06049619987607002,0.07822829484939575,0.6871621012687683,0.7122639417648315,-10.929340362548828
1745659485.1483982,0.047089435160160065,-0.0866670161485672,0.07119828462600708,0.5485982894897461,0.5886164903640747,-10.26555347442627
1745659485.1509652,0.07116901874542236,-0.04427070543169975,0.07057295739650726,-0.5169922113418579,-0.15637566149234772,-9.647470474243164
1745659485.1523476,0.044770248234272,-0.09528297930955887,0.07552093267440796,1.4409527778625488,-0.9158958196640015,-7.690222263336182
1745659485.1894195,0.10135157406330109,-0.009037451818585396,0.10354214906692505,0.3327651619911194,-0.22270074486732483,-11.269946098327637
1745659485.1939075,0.052406907081604004,-0.1177205890417099,0.10771042108535767,1.0335954427719116,0.14983704686164856,-10.567222595214844
1745659485.1965213,0.1619698703289032,-0.0032129972241818905,0.10817605257034302,-0.38959312438964844,0.5860086679458618,-9.374098777770996
1745659485.2000566,0.05396516993641853,-0.10411729663610458,0.08876176923513412,-0.1386682689189911,0.8302933573722839,-8.516520500183105
1745659485.2343688,0.19309501349925995,-0.030149132013320923,0.07472711056470871,1.036306619644165,-0.4454205632209778,-10.362815856933594
1745659485.2350197,-0.10842917114496231,-0.050309836864471436,0.03289373964071274,2.0286524295806885,-1.826183557510376,-11.11695384979248
1745659485.2350771,0.27357858419418335,0.01427644956856966,0.02875533141195774,1.8407118320465088,2.0167124271392822,-9.428850173950195
1745659485.2364728,-0.02811654470860958,-0.05432792380452156,0.02360476180911064,1.0965783596038818,-0.7931305170059204,-9.789166450500488
1745659485.2435791,0.24369139969348907,-0.05331362411379814,0.02398565039038658,2.12524151802063,0.13655003905296326,-9.898454666137695
1745659485.2734282,0.15267732739448547,-0.019178560003638268,0.029192674905061722,-0.7079811096191406,1.2176949977874756,-11.546422004699707
1745659485.2779484,0.24878089129924774,-0.02774660661816597,0.026894384995102882,-0.1721116006374359,-1.5670528411865234,-9.267165184020996
1745659485.279661,0.21513810753822327,0.017970938235521317,0.009265032596886158,-0.5511159300804138,1.884621024131775,-7.170432090759277
1745659485.28075,0.13034015893936157,-0.02643682062625885,-0.020117973908782005,0.6020427942276001,-0.7432572841644287,-10.202460289001465
1745659485.3192413,0.2947470247745514,0.046348508447408676,-0.05304856225848198,1.4384855031967163,1.6449718475341797,-11.478311538696289
1745659485.3204784,0.05728168413043022,-0.007967527955770493,-0.0660172551870346,1.2857637405395508,-1.5656535625457764,-10.562965393066406
1745659485.3224704,0.21944525837898254,-0.008660303428769112,-0.04811670631170273,2.028897762298584,-2.059161901473999,-8.502784729003906
1745659485.3240156,0.020314257591962814,-0.007146087940782309,-0.023883230984210968,0.31384003162384033,-1.3249164819717407,-10.435370445251465
1745659485.3599765,0.02597731724381447,0.007913848385214806,-0.004763639532029629,0.6905431747436523,-1.7619640827178955,-11.094649314880371
1745659485.3622494,0.11961885541677475,0.06040249392390251,-0.1682148277759552,0.9120529890060425,-0.4233663082122803,-9.672130584716797
1745659485.3642504,0.12221191078424454,0.06406835466623306,-0.17160603404045105,0.5631380677223206,-0.23350055515766144,-9.95667552947998
1745659485.3667305,0.15181702375411987,0.05556889623403549,-0.17250187695026398,0.7784807085990906,-0.17583748698234558,-9.766935348510742
1745659485.4003484,0.17502906918525696,0.05953151732683182,-0.18273906409740448,0.24939313530921936,0.2197352945804596,-9.704195976257324
1745659485.4032555,0.18594978749752045,0.05252733826637268,-0.1888725757598877,0.5969910621643066,-0.3464457392692566,-9.437396049499512
1745659485.406087,0.18424338102340698,0.05092431232333183,-0.1916055977344513,0.5731507539749146,-0.28862255811691284,-9.602019309997559
1745659485.4086194,0.17090454697608948,0.0564337782561779,-0.1935434639453888,0.7748125195503235,-1.0322377681732178,-10.015752792358398
1745659485.4098575,0.15701048076152802,0.04545377939939499,-0.19362005591392517,1.024139642715454,-0.8129867315292358,-9.646903038024902
1745659485.4464483,0.12885288894176483,0.05025792121887207,-0.19445888698101044,0.9148286581039429,-0.9375589489936829,-9.659975051879883
1745659485.4487805,0.11444537341594696,0.03749461844563484,-0.19658319652080536,1.1739771366119385,-0.8915854692459106,-9.739352226257324
1745659485.4566526,0.1070614606142044,0.02969745360314846,-0.19892844557762146,0.776616632938385,-0.42218390107154846,-9.942158699035645
1745659485.456706,0.10671435296535492,0.040929488837718964,-0.20077750086784363,0.6724281907081604,-0.6435198783874512,-9.71064567565918
1745659485.4875479,0.1206204891204834,0.03524536266922951,-0.20185275375843048,0.2959805130958557,-0.07689496874809265,-9.250760078430176
1745659485.4892342,0.12183811515569687,0.030596500262618065,-0.21034610271453857,0.5163710117340088,-0.44702672958374023,-9.375212669372559
1745659485.4920366,0.1459728181362152,0.036564428359270096,-0.21045824885368347,0.6041529774665833,-0.1908201277256012,-9.875528335571289
1745659485.4935913,0.16562113165855408,0.03606104105710983,-0.2153015434741974,0.6181471943855286,-0.4146110415458679,-9.934371948242188
1745659485.4968195,0.16565707325935364,0.025338416919112206,-0.2136457860469818,0.9138800501823425,-0.6557888388633728,-9.434674263000488
1745659485.5314922,0.1542840301990509,0.0296518262475729,-0.21220111846923828,0.7971848845481873,-0.7876602411270142,-9.456588745117188
1745659485.532839,0.14428558945655823,0.022093024104833603,-0.21226206421852112,1.0025691986083984,-1.0646240711212158,-9.833280563354492
1745659485.5368538,0.13026854395866394,0.021802935749292374,-0.21239590644836426,0.7319731712341309,-0.6726856827735901,-9.818106651306152
1745659485.539286,0.10806246846914291,0.024349035695195198,-0.21666887402534485,0.8399988412857056,-0.9042695164680481,-9.501235008239746
1745659485.5768378,0.10862118005752563,0.014632550068199635,-0.2181967794895172,0.6887335181236267,-0.37950628995895386,-9.4452486038208
1745659485.5801358,0.1009368896484375,0.01086363848298788,-0.22715182602405548,0.5305881500244141,-0.573723316192627,-10.025419235229492
1745659485.5854573,0.11334220319986343,0.009014544077217579,-0.23104722797870636,0.4708266854286194,-0.5355620384216309,-9.543254852294922
1745659485.5870504,0.12849406898021698,-0.0015886971959844232,-0.22717785835266113,0.8492898941040039,-0.8280402421951294,-9.429670333862305
1745659485.6189713,0.12156134843826294,0.0015982683980837464,-0.2238864004611969,0.7167763710021973,-0.6155580282211304,-9.827096939086914
1745659485.6237762,0.1396389752626419,0.004272419959306717,-0.22153067588806152,0.7940926551818848,-0.8767572641372681,-9.942174911499023
1745659485.6267207,0.13008157908916473,-0.010128401219844818,-0.22327539324760437,0.8911650776863098,-0.5391218066215515,-9.401885986328125
1745659485.629003,0.1248529925942421,-0.007969715632498264,-0.22770223021507263,0.6156722903251648,-0.7737526893615723,-9.61979866027832
1745659485.6629694,0.11706390231847763,-0.012148277834057808,-0.23106756806373596,0.8630116581916809,-0.7313693761825562,-9.825992584228516
1745659485.6700294,0.10006799548864365,-0.016079967841506004,-0.23797336220741272,0.5256006717681885,-0.6774086356163025,-9.785106658935547
1745659485.6701176,0.09265337884426117,-0.011135797016322613,-0.2384900599718094,0.8107800483703613,-1.0480048656463623,-9.37132453918457
1745659485.6703825,0.07871856540441513,-0.015863126143813133,-0.23860271275043488,0.5958188772201538,-0.6313045620918274,-9.47730827331543
1745659485.6704438,0.08104376494884491,-0.02045823261141777,-0.2389492690563202,0.7945223450660706,-0.9224397540092468,-9.94123649597168
1745659485.7264779,0.08881467580795288,-0.017166446894407272,-0.2349962294101715,0.8273876309394836,-0.6395607590675354,-9.799474716186523
1745659485.7265766,0.09918630123138428,-0.022905394434928894,-0.23683035373687744,0.6439616680145264,-0.6914105415344238,-9.606996536254883
1745659485.726651,0.017396800220012665,-0.05389304831624031,-0.2652769684791565,0.6286934614181519,-0.8301528692245483,-9.759295463562012
1745659485.7266898,0.0075088366866111755,-0.05203448608517647,-0.26687857508659363,0.5010037422180176,-0.6519325375556946,-9.769678115844727
1745659485.7467685,0.021568549796938896,-0.04154587537050247,-0.26893192529678345,0.6148164868354797,-0.9289315938949585,-9.707954406738281
1745659485.749595,0.006060945801436901,-0.05582104250788689,-0.27080678939819336,0.5637472867965698,-0.6768185496330261,-9.757238388061523
1745659485.7518847,0.015497070737183094,-0.0441230908036232,-0.272246778011322,0.6278096437454224,-1.0138928890228271,-9.961094856262207
1745659485.7530768,0.000859411433339119,-0.05042115971446037,-0.27275729179382324,0.6117039918899536,-0.7879613637924194,-9.858912467956543
1745659485.7570286,-0.0007471988792531192,-0.04887118935585022,-0.2722606062889099,0.5297633409500122,-0.9543584585189819,-9.741296768188477
1745659485.7909813,-0.012497495859861374,-0.04950074478983879,-0.27273043990135193,0.7054834365844727,-1.007080316543579,-9.72821044921875
1745659485.7948837,-0.01362879853695631,-0.049355119466781616,-0.272274911403656,0.4626603126525879,-0.8635860681533813,-9.942129135131836
1745659485.7961698,-0.008212631568312645,-0.04725312441587448,-0.2709164619445801,0.6909482479095459,-0.8701549768447876,-9.758794784545898
1745659485.8002288,-0.018171418458223343,-0.050514768809080124,-0.27262943983078003,0.4748767018318176,-0.6311885118484497,-9.786998748779297
1745659485.8323314,0.0014337114989757538,-0.044214241206645966,-0.2729331851005554,0.5189809799194336,-0.8912542462348938,-9.84720230102539
1745659485.8344574,-0.007498345337808132,-0.05202788859605789,-0.27353042364120483,0.5681275129318237,-0.623283863067627,-9.783373832702637
1745659485.8357995,0.00040022871689870954,-0.04378625005483627,-0.27639487385749817,0.40886983275413513,-0.8753718137741089,-9.81635856628418
1745659485.8406165,0.000822904403321445,-0.04165896028280258,-0.2763272225856781,0.6304589509963989,-0.810276210308075,-9.645330429077148
1745659485.880046,-0.00994066335260868,-0.046555329114198685,-0.27694639563560486,0.48539191484451294,-0.898661732673645,-9.757828712463379
1745659485.8801117,-0.007629440166056156,-0.038353897631168365,-0.2759110629558563,0.6723757982254028,-0.9710724949836731,-9.884443283081055
1745659485.8840575,-0.020449770614504814,-0.044401802122592926,-0.276138573884964,0.5476467609405518,-0.8325315713882446,-9.850052833557129
1745659485.88755,-0.006860661320388317,-0.04172254353761673,-0.26944500207901,0.4708346724510193,-1.0111335515975952,-9.774820327758789
1745659485.8921127,-0.02384653314948082,-0.04537196457386017,-0.26529791951179504,0.11394743621349335,-0.88543301820755,-9.760591506958008
1745659485.9206743,-0.014358818531036377,-0.031660329550504684,-0.25705045461654663,-0.011042642407119274,-1.129586100578308,-9.631246566772461
1745659485.9253194,-0.053040552884340286,-0.06603363156318665,-0.24780145287513733,-0.21017885208129883,-1.232725739479065,-9.829687118530273
1745659485.9284236,-0.060320835560560226,-0.028996819630265236,-0.2423529177904129,-0.35608971118927,-0.9129483103752136,-10.02091121673584
1745659485.930953,-0.05563468486070633,-0.040941908955574036,-0.24841611087322235,-0.13284853100776672,-0.5605674982070923,-9.401168823242188
1745659485.9617677,-0.08673353493213654,-0.05840742588043213,-0.2478092908859253,0.4328671097755432,-0.7090399861335754,-9.480250358581543
1745659485.9640214,-0.07049909979104996,-0.04855913668870926,-0.2430177927017212,0.3628774583339691,-0.7503575086593628,-10.492053985595703
1745659485.9659848,-0.07782834023237228,-0.07112526148557663,-0.23367199301719666,0.3409270644187927,-0.9418929219245911,-10.366114616394043
1745659485.9669952,-0.06292404234409332,-0.04330185800790787,-0.22194144129753113,0.10256363451480865,-1.0714665651321411,-9.309404373168945
1745659485.96918,-0.08773114532232285,-0.06769813597202301,-0.21223893761634827,0.18539856374263763,-0.8903795480728149,-9.089457511901855
1745659486.0089834,-0.06386958062648773,-0.06793978065252304,-0.20671024918556213,0.2496771514415741,-0.3956274390220642,-10.236592292785645
1745659486.009022,-0.04752957448363304,-0.058562152087688446,-0.2086728811264038,0.026618193835020065,-0.15615466237068176,-10.669183731079102
1745659486.0161443,-0.031561415642499924,-0.06665327399969101,-0.2085305154323578,-0.09889628738164902,-0.5133515000343323,-9.4351167678833
1745659486.02003,-0.0321430005133152,-0.06487193703651428,-0.21260139346122742,-0.04299437999725342,-0.5465748906135559,-8.811844825744629
1745659486.0467262,-0.07059161365032196,-0.07913590967655182,-0.20953135192394257,0.10280255973339081,-1.2628883123397827,-10.180721282958984
1745659486.048922,-0.05344373732805252,-0.05094165354967117,-0.20525722205638885,0.06762278079986572,-0.9189149737358093,-10.530908584594727
1745659486.0516293,-0.09650453180074692,-0.05782607942819595,-0.19727762043476105,0.40482601523399353,-1.3708937168121338,-9.385429382324219
1745659486.0538309,-0.16514909267425537,-0.009700972586870193,-0.16233599185943604,0.6737562417984009,-2.345954418182373,-8.689512252807617
1745659486.0907497,-0.19484634697437286,0.006926997099071741,-0.15046048164367676,0.5645202994346619,-1.2749427556991577,-9.913394927978516
1745659486.0925756,-0.19963529706001282,0.016029376536607742,-0.1543891280889511,0.6016381978988647,0.6109815835952759,-10.500407218933105
1745659486.0969377,-0.12250079959630966,0.02653280831873417,-0.17647036910057068,0.07911841571331024,0.4535122811794281,-10.217840194702148
1745659486.0979733,-0.07103271037340164,0.015542876906692982,-0.19338281452655792,0.4787369668483734,1.5402803421020508,-8.463201522827148
1745659486.133193,-0.07109285891056061,0.0015740536618977785,-0.2035352736711502,0.6245659589767456,-0.36559563875198364,-10.104515075683594
1745659486.1371117,0.005295705981552601,0.01474828738719225,-0.20587344467639923,0.05471508577466011,0.14980073273181915,-10.768991470336914
1745659486.1410785,-0.04351688548922539,0.0473322868347168,-0.2006542980670929,0.26196497678756714,-0.8083532452583313,-9.676328659057617
1745659486.1465452,0.021509584039449692,0.04205121845006943,-0.19065122306346893,0.9025043249130249,-0.5023070573806763,-8.473461151123047
1745659486.1483116,-0.02126057632267475,0.00953406747430563,-0.19017674028873444,1.2342180013656616,-0.32075047492980957,-9.912026405334473
1745659486.1815045,0.014188927598297596,0.02027815952897072,-0.19845722615718842,0.6917580366134644,0.02426496148109436,-11.460183143615723
1745659486.1820714,0.005401345901191235,0.045335523784160614,-0.20786216855049133,0.3173663020133972,-0.47713035345077515,-9.688085556030273
1745659486.1866455,0.0022030838299542665,0.030219268053770065,-0.21762831509113312,0.2705071270465851,-0.3612630367279053,-8.01963996887207
1745659486.1906056,-0.04862503334879875,0.025294532999396324,-0.2212110459804535,0.3274366855621338,-0.8484489321708679,-9.823381423950195
1745659486.2185652,-0.013106522150337696,0.03276101499795914,-0.22099661827087402,0.4121209681034088,-0.46934643387794495,-11.177528381347656
1745659486.2207618,-0.019573025405406952,0.06356394290924072,-0.22255566716194153,0.12090487778186798,-0.8165707588195801,-9.740138053894043
1745659486.223548,-0.031077314168214798,0.0454651415348053,-0.21966223418712616,0.5635573863983154,-0.650931715965271,-7.890995025634766
1745659486.225643,-0.051815737038850784,0.03173544257879257,-0.21713638305664062,0.9033041000366211,-0.8023379445075989,-9.714137077331543
1745659486.2270346,-0.01735646091401577,0.04974391311407089,-0.21759280562400818,0.7260954976081848,-0.263083279132843,-11.694245338439941
1745659486.263811,-0.024661019444465637,0.058285050094127655,-0.21984465420246124,0.5936410427093506,-0.3960476219654083,-9.957602500915527
1745659486.2672098,-0.0232689268887043,0.04450702294707298,-0.217555433511734,0.3426700234413147,-0.5763104557991028,-8.040769577026367
1745659486.2695777,-0.03609875962138176,0.03724679350852966,-0.2232622653245926,0.4868903160095215,-0.1849232167005539,-9.296063423156738
1745659486.271152,-0.04080349951982498,0.049743324518203735,-0.2306528389453888,0.36930909752845764,-0.21625995635986328,-11.315417289733887
1745659486.3090198,0.0012368668103590608,0.03493224456906319,-0.24329693615436554,0.6774315237998962,-0.3475772738456726,-9.810371398925781
1745659486.3130019,0.032356105744838715,0.04404659569263458,-0.24007968604564667,0.7110323309898376,-0.26285943388938904,-11.106823921203613
1745659486.3177876,0.02685171738266945,0.059937380254268646,-0.23649851977825165,0.4243176579475403,-0.6076998114585876,-9.924619674682617
1745659486.320976,0.036398276686668396,0.040750544518232346,-0.23349955677986145,0.6153978109359741,-0.6791805028915405,-8.323498725891113
1745659486.3491907,0.023983407765626907,0.033491767942905426,-0.23276284337043762,0.4502526819705963,-0.3384920060634613,-9.662958145141602
1745659486.352287,0.033176980912685394,0.04371803253889084,-0.23701047897338867,0.5831171870231628,-0.3831818699836731,-11.003324508666992
1745659486.3556373,0.014407793059945107,0.04568269103765488,-0.24436302483081818,0.461067259311676,-0.49617233872413635,-9.83643627166748
1745659486.3574314,0.0287605132907629,0.04007362574338913,-0.24680820107460022,0.40671759843826294,-0.6600354313850403,-8.544235229492188
1745659486.3931284,-0.014941548928618431,0.028704047203063965,-0.23818786442279816,0.10119281709194183,-0.8553985357284546,-9.59003734588623
1745659486.394266,-0.02151753380894661,0.055634379386901855,-0.2272312343120575,0.1721678227186203,-1.4017728567123413,-10.498543739318848
1745659486.3959405,-0.05775400251150131,0.017932234331965446,-0.20223994553089142,0.33524370193481445,-1.2582799196243286,-9.712671279907227
1745659486.397418,-0.07054091989994049,0.05068010836839676,-0.18819980323314667,-0.16550414264202118,-0.5831041932106018,-9.387350082397461
1745659486.3987865,-0.06165812164545059,0.030377645045518875,-0.19673141837120056,0.11107728630304337,0.3842636048793793,-9.223589897155762
1745659486.4355218,-0.046420253813266754,-0.010838096030056477,-0.14005285501480103,0.5096458792686462,-0.8915740847587585,-9.33786392211914
1745659486.4372272,-0.0642823725938797,-0.011365756392478943,-0.13549435138702393,0.5209853053092957,-0.9232196807861328,-8.076415061950684
1745659486.4373212,-0.11210773140192032,-0.03979399427771568,-0.13963863253593445,0.5805560350418091,-0.33543503284454346,-9.938506126403809
1745659486.4435456,-0.054238200187683105,-0.010258628986775875,-0.14939001202583313,0.052533626556396484,0.36492952704429626,-11.487279891967773
1745659486.4790213,-0.04742467403411865,0.012458829209208488,-0.17373239994049072,0.07035502046346664,0.7482730150222778,-9.401628494262695
1745659486.4909587,-0.0025174960028380156,-0.019644346088171005,-0.18198052048683167,0.5323780179023743,0.30901458859443665,-7.996182441711426
1745659486.494692,0.01895485445857048,-0.02769787237048149,-0.18554234504699707,0.9832345843315125,-0.015438896603882313,-10.330740928649902
1745659486.4993622,0.02434961497783661,-0.01610397733747959,-0.1824525147676468,0.44418153166770935,-0.45727071166038513,-12.017745971679688
1745659486.5043027,0.06368792057037354,0.013258096762001514,-0.1745014488697052,0.475130170583725,-0.8472344279289246,-9.425506591796875
1745659486.522621,0.032656230032444,-0.004301749635487795,-0.1696150004863739,0.7952747344970703,-0.4175768792629242,-7.606523036956787
1745659486.5263789,0.021217606961727142,-0.03554799407720566,-0.17227676510810852,0.8489847183227539,-0.4564572870731354,-10.227134704589844
1745659486.5302436,0.035207878798246384,-0.007615809328854084,-0.18577808141708374,0.558924674987793,0.09847133606672287,-11.882230758666992
1745659486.5344126,0.022409528493881226,0.006910809315741062,-0.20216412842273712,0.02664181962609291,-0.12594780325889587,-9.655159950256348
1745659486.5652018,0.007918563671410084,-0.007433911319822073,-0.20948298275470734,0.3334098756313324,-0.5502201318740845,-7.6573381423950195
1745659486.5674078,-0.006415932439267635,-0.022003818303346634,-0.20984165370464325,0.44413360953330994,-0.400569349527359,-9.877174377441406
1745659486.5692406,-0.009792405180633068,0.0012650529388338327,-0.20894810557365417,0.476653516292572,-0.8451212644577026,-11.715715408325195
1745659486.5714607,0.007495787926018238,0.025053460150957108,-0.20512035489082336,0.375491201877594,-0.5208154320716858,-9.54979133605957
1745659486.5734925,0.00041763120680116117,0.005092116538435221,-0.19994018971920013,0.5681947469711304,-0.36390596628189087,-7.765463829040527
1745659486.6123362,0.010890711098909378,-0.007188986986875534,-0.20116448402404785,0.9269525408744812,-0.16766878962516785,-9.895906448364258
1745659486.6124399,0.041561685502529144,0.008602573536336422,-0.20574407279491425,0.3286316990852356,0.16786496341228485,-11.935473442077637
1745659486.6125028,0.05960312485694885,0.02224414050579071,-0.20986387133598328,0.4733174741268158,-0.25964468717575073,-9.75007438659668
1745659486.6153982,0.050597358494997025,0.008998950012028217,-0.21477441489696503,0.1579931080341339,-0.01745540276169777,-7.880810737609863
1745659486.651855,0.04459088295698166,-0.006379038095474243,-0.2191578596830368,0.5080417394638062,-0.5252398252487183,-9.574569702148438
1745659486.6576507,0.04139818623661995,0.0027076690457761288,-0.224869966506958,0.8551594018936157,-0.44622373580932617,-8.351378440856934
1745659486.6589177,0.022711213678121567,-0.004576000850647688,-0.22408008575439453,0.5377691388130188,-0.3272527754306793,-9.742260932922363
1745659486.659861,0.04779273271560669,0.006327040493488312,-0.2223636358976364,0.6906068325042725,-0.6203591227531433,-11.164630889892578
1745659486.6947868,0.056797515600919724,0.014873054809868336,-0.2232508361339569,0.27063900232315063,-0.15159833431243896,-9.924203872680664
1745659486.6960926,0.0543670579791069,0.0059457747265696526,-0.2224915772676468,0.2447127401828766,-0.36987751722335815,-8.54822063446045
1745659486.6985621,0.06474487483501434,0.004408068489283323,-0.2287246733903885,0.36594706773757935,-0.11958305537700653,-9.433672904968262
1745659486.700234,0.06649623811244965,0.010165566578507423,-0.23284301161766052,0.34713032841682434,-0.25195690989494324,-10.802217483520508
1745659486.7374818,0.06630310416221619,0.0187440924346447,-0.23699204623699188,0.7192211151123047,-0.6207535862922668,-10.09483814239502
1745659486.7419116,0.05190470814704895,0.011591626331210136,-0.237507626414299,0.4424005448818207,-0.39781123399734497,-9.037968635559082
1745659486.742014,0.04405992478132248,0.006505375262349844,-0.2358732521533966,0.779626727104187,-0.8412604331970215,-9.53997802734375
1745659486.7432613,0.02942914329469204,0.0131263118237257,-0.23467297852039337,0.6412550806999207,-0.5006440877914429,-10.399458885192871
1745659486.747914,0.027266398072242737,0.018561264500021935,-0.23506894707679749,0.5517606139183044,-0.6812522411346436,-10.098217010498047
1745659486.7795553,0.03299007564783096,0.01169637031853199,-0.23403653502464294,0.47387057542800903,-0.15675340592861176,-9.177488327026367
1745659486.7815225,-0.07882537692785263,-0.038538552820682526,-0.10784532129764557,0.5733892321586609,-0.5890152454376221,-9.476224899291992
1745659486.78295,-0.09530734270811081,-0.051990069448947906,-0.10974080860614777,0.3686927855014801,-0.20807799696922302,-8.537435531616211
1745659486.7849786,-0.08895611763000488,-0.07817502319812775,-0.11443942785263062,0.31504756212234497,0.35033607482910156,-10.159079551696777
1745659486.8210504,-0.06831406056880951,-0.04201526567339897,-0.11914871633052826,-0.025559257715940475,0.266114205121994,-11.132786750793457
1745659486.8234422,-0.046720247715711594,-0.043776579201221466,-0.1212083101272583,-0.0683899074792862,0.2613397538661957,-9.327852249145508
1745659486.828905,-0.027547236531972885,-0.05517653748393059,-0.11850304901599884,0.008288228884339333,0.1386529505252838,-8.318021774291992
1745659486.831044,-0.0035471178125590086,-0.05178146809339523,-0.11268441379070282,0.34662875533103943,-0.0749138742685318,-10.189560890197754
1745659486.8311257,0.024919869378209114,-0.044791340827941895,-0.09909282624721527,0.4870977997779846,-0.3233835697174072,-11.095688819885254
1745659486.8663735,0.038536421954631805,-0.03406498581171036,-0.09186355024576187,0.4112628102302551,-0.46672868728637695,-9.556459426879883
1745659486.8699799,0.019041243940591812,-0.053448814898729324,-0.08533654361963272,0.4837290346622467,-0.677115797996521,-8.664999008178711
1745659486.8728924,0.012379975989460945,-0.05214543268084526,-0.0786958560347557,0.24441936612129211,-0.7005492448806763,-10.174975395202637
1745659486.875223,-0.020437438040971756,-0.04058794304728508,-0.07993923127651215,0.174748957157135,-0.7867929339408875,-10.759734153747559
1745659486.9075828,-0.04457477107644081,-0.03291914239525795,-0.08046014606952667,-0.11476166546344757,-0.6596916317939758,-9.344919204711914
1745659486.9102962,-0.085579052567482,-0.03990704566240311,-0.08167223632335663,0.14789476990699768,-0.6471588015556335,-8.748974800109863
1745659486.9129617,-0.09579525142908096,-0.048880673944950104,-0.0825040340423584,0.273542195558548,-0.49706754088401794,-10.147886276245117
1745659486.9138052,-0.10441436618566513,-0.028666164726018906,-0.08189761638641357,0.351948082447052,-0.4891013503074646,-10.777984619140625
1745659486.916354,-0.10277467966079712,-0.03485749661922455,-0.07388702780008316,0.376759797334671,-0.6180060505867004,-9.535440444946289
1745659486.953194,-0.08772385865449905,-0.028496865183115005,-0.05838888883590698,0.20322194695472717,-0.3103541433811188,-8.95942211151123
1745659486.9549503,-0.09036390483379364,-0.03971940651535988,-0.04354589432477951,0.5489159822463989,-0.5946996808052063,-9.912816047668457
1745659486.9598134,-0.05559256672859192,-0.021129164844751358,-0.03306994587182999,0.28951016068458557,-0.0445445291697979,-10.591900825500488
1745659486.962305,-0.06044783443212509,-0.011776331812143326,-0.03161057084798813,0.37684470415115356,-0.038080211728811264,-9.56000804901123
1745659486.9974003,-0.0599600188434124,-0.02877858839929104,-0.030114781111478806,0.44556936621665955,0.0844537764787674,-9.082000732421875
1745659486.9996142,-0.06646668910980225,-0.020418794825673103,-0.03186459094285965,0.7470113039016724,-0.11641359329223633,-10.041467666625977
1745659487.0076852,-0.09073855727910995,-0.014885167591273785,-0.0012123424094170332,0.6747957468032837,0.22117511928081512,-10.11286449432373
1745659487.0118237,-0.09532365947961807,0.0001846361847128719,0.010746678337454796,0.5359784960746765,-0.02797234058380127,-10.591447830200195
1745659487.037931,-0.03532702475786209,0.0018435623496770859,0.018278270959854126,0.35024282336235046,0.43089205026626587,-9.29985523223877
1745659487.0399532,-0.009225413203239441,0.01652640476822853,0.022214438766241074,0.1860046535730362,0.44755497574806213,-9.099411964416504
1745659487.0417655,0.01102935615926981,-0.009008986875414848,0.024463046342134476,0.2880569100379944,0.1812964677810669,-10.169781684875488
1745659487.0451465,0.03819282725453377,0.01932469569146633,0.0269771758466959,0.15773041546344757,-0.16088174283504486,-10.436546325683594
1745659487.0802321,0.013117457740008831,0.028337687253952026,0.03453325107693672,0.28541386127471924,-0.665959358215332,-9.483193397521973
1745659487.0834634,-0.011683003976941109,0.009810316376388073,0.03549528867006302,0.42416152358055115,-0.852506160736084,-9.045979499816895
1745659487.086366,-0.06955912709236145,0.02737712860107422,0.04188140854239464,0.7974381446838379,-1.268474817276001,-10.06415843963623
1745659487.08932,-0.1122429370880127,0.0213024765253067,0.050150610506534576,0.7006936073303223,-1.1683675050735474,-10.552550315856934
1745659487.091779,-0.16167743504047394,0.0320851132273674,0.055073995143175125,0.5899240374565125,-0.9778990745544434,-9.725234985351562
1745659487.1231375,-0.1864555925130844,0.020201578736305237,0.06375326961278915,0.6429556012153625,-0.7717780470848083,-9.21679973602295
1745659487.1262531,-0.18515565991401672,0.029907867312431335,0.0710766464471817,0.21642079949378967,-0.11485574394464493,-9.891188621520996
1745659487.1288042,-0.2272481918334961,-0.019555920735001564,0.03159276396036148,0.7763758897781372,-0.25537732243537903,-9.65416431427002
1745659487.1351206,-0.18639503419399261,-0.04322323948144913,0.03591514378786087,0.8333856463432312,0.828705906867981,-11.587369918823242
1745659487.1709132,-0.07206126302480698,0.007504275534301996,0.0444093756377697,-0.5523719191551208,1.1748089790344238,-10.61672306060791
1745659487.1721816,-0.05434523895382881,-0.000954208429902792,0.0508347749710083,-0.6076038479804993,0.5333825349807739,-7.625705718994141
1745659487.1757503,-0.007517749909311533,-0.02607780322432518,0.04519033432006836,-0.027940869331359863,1.0990941524505615,-8.201205253601074
1745659487.180346,0.005382328759878874,-0.0069694118574261665,0.023092161864042282,0.0912071019411087,1.2712724208831787,-11.682785034179688
1745659487.209403,0.034164343029260635,0.009278753772377968,-0.0038216239772737026,0.24580654501914978,0.7587460279464722,-10.867249488830566
1745659487.2127044,0.02833949588239193,0.012480810284614563,-0.017720812931656837,0.8576010465621948,-0.024655615910887718,-7.713706970214844
1745659487.2157416,-0.04596872627735138,-0.04384896904230118,-0.0116508100181818,1.398750901222229,-1.060694932937622,-9.040435791015625
1745659487.220781,-0.05926017835736275,-0.027731243520975113,0.005539580248296261,0.6939867734909058,-1.3114712238311768,-12.471430778503418
1745659487.2224257,-0.09571897238492966,0.00790433119982481,0.022805405780673027,0.22774407267570496,-1.082568645477295,-10.647095680236816
1745659487.2541938,-0.08888348937034607,-0.007736310362815857,0.03107164427638054,0.06737145036458969,-0.20719388127326965,-6.961507320404053
1745659487.255783,-0.119901143014431,-0.026488807052373886,0.023910846561193466,0.03613714128732681,0.6337717175483704,-8.603204727172852
1745659487.2573957,-0.055577389895915985,-0.031797654926776886,0.0033176462166011333,0.010741421952843666,1.0926740169525146,-12.466961860656738
1745659487.2589898,-0.0019315003883093596,0.011805899441242218,-0.0127115398645401,-0.2907507121562958,1.1582214832305908,-11.074738502502441
1745659487.2946,-0.010121623985469341,-0.004773539956659079,-0.01577734760940075,-0.2565454840660095,-0.4347715973854065,-7.512809753417969
1745659487.2981224,-0.025211025029420853,-0.028866564854979515,-0.0030120580922812223,0.40912356972694397,-0.5857545733451843,-8.239084243774414
1745659487.3019474,-0.07383092492818832,-0.012549432925879955,0.006550118327140808,0.5934203267097473,-0.9825957417488098,-11.979399681091309
1745659487.3059378,-0.056427933275699615,0.01097937859594822,0.01425184030085802,0.637508749961853,-0.40533924102783203,-10.950544357299805
1745659487.3068736,-0.09913817793130875,-0.0022078840993344784,0.013603530824184418,0.6651917695999146,-0.05688370391726494,-7.955268859863281
1745659487.3420906,-0.12756851315498352,-0.047499559819698334,0.00929652526974678,0.45209965109825134,0.40030011534690857,-9.038990020751953
1745659487.342733,-0.08950689435005188,-0.018731076270341873,-0.0007084311218932271,-0.01666967011988163,0.7633248567581177,-11.751047134399414
1745659487.3450058,-0.08924129605293274,-0.01068034116178751,-0.007992267608642578,-0.14846816658973694,0.47994738817214966,-10.611955642700195
1745659487.347997,0.014771032147109509,0.001344913151115179,0.0008210951345972717,0.375511109828949,-0.13324160873889923,-10.815633773803711
1745659487.3867908,0.052854858338832855,-0.019374823197722435,0.008666950277984142,0.4908764958381653,-0.1303069144487381,-8.632078170776367
1745659487.3884418,0.020517315715551376,-0.025280112400650978,0.012211928144097328,0.15257875621318817,-0.09802164882421494,-9.29276180267334
1745659487.391615,-0.006279496010392904,-0.03038179501891136,0.014050411991775036,0.33329641819000244,-0.5362489819526672,-10.881160736083984
1745659487.3963618,-0.014713449403643608,-0.0076900990679860115,0.010031809099018574,0.029955605044960976,-0.19808784127235413,-10.076223373413086
1745659487.4246,-0.08305646479129791,-0.02431868575513363,0.005509663373231888,-0.053079020231962204,-0.391327828168869,-8.837254524230957
1745659487.4289725,-0.10148006677627563,-0.030481671914458275,-0.0036173518747091293,-0.020312588661909103,0.08554761111736298,-9.317590713500977
1745659487.431724,-0.0913553237915039,-0.01200554333627224,-0.00437205983325839,0.14774319529533386,0.28367987275123596,-10.517219543457031
1745659487.4350133,-0.10081969201564789,-0.026411864906549454,-0.00493302196264267,0.3587037920951843,0.0772089958190918,-10.216978073120117
1745659487.4400392,-0.06009721755981445,-0.018530696630477905,0.002774097491055727,0.10618605464696884,0.31812599301338196,-9.406670570373535
1745659487.4711637,-0.05029373615980148,-0.025403738021850586,0.007976913824677467,0.21662816405296326,0.24091830849647522,-9.489629745483398
1745659487.4730895,-0.02094190940260887,-0.017921213060617447,0.01328946091234684,-0.08944160491228104,0.5754349827766418,-9.989413261413574
1745659487.47806,0.01432083360850811,-0.012099585495889187,0.024156713858246803,-0.0227274838835001,-0.02761365845799446,-9.873501777648926
1745659487.4844377,0.09173633903265,0.03306925296783447,-0.04354950040578842,0.848648726940155,1.3313742876052856,-9.76127815246582
1745659487.513251,0.06501040607690811,0.009371918626129627,-0.04722016304731369,1.0106184482574463,0.026865970343351364,-9.20840835571289
1745659487.5165815,0.14159035682678223,0.013234424404799938,-0.037092674523591995,1.2850024700164795,-0.5012930631637573,-9.920846939086914
1745659487.5206866,0.07495315372943878,0.025673964992165565,-0.030076390132308006,0.4651627540588379,-0.3272782862186432,-11.171457290649414
1745659487.5246687,0.11224545538425446,0.03530171886086464,-0.024882689118385315,0.5054892301559448,-0.5536632537841797,-9.601029396057129
1745659487.5542731,0.09017521888017654,0.048728182911872864,-0.034243565052747726,0.36800113320350647,0.5071204304695129,-7.9331183433532715
1745659487.5606272,0.051884960383176804,0.013739106245338917,-0.060163140296936035,0.3471178412437439,0.35281533002853394,-9.711307525634766
1745659487.564109,0.06811124086380005,0.04338508099317551,-0.08739222586154938,0.6000925898551941,0.40899261832237244,-11.426413536071777
1745659487.567341,0.055178482085466385,0.05842433124780655,-0.10021080076694489,0.12297244369983673,0.04145703464746475,-10.143366813659668
1745659487.5707333,0.034641019999980927,0.0497112050652504,-0.09701015800237656,0.6252843737602234,-0.8772251009941101,-8.014201164245605
1745659487.5998209,0.002561744535341859,0.04278425872325897,-0.08251142501831055,0.680864155292511,-0.7231777906417847,-9.481451988220215
1745659487.6036966,0.023725831881165504,0.049753427505493164,-0.078519806265831,0.902767539024353,-0.1697278916835785,-11.347124099731445
1745659487.605492,0.02995632030069828,0.07558971643447876,-0.07840784639120102,0.6056302785873413,0.42465201020240784,-10.11974811553955
1745659487.6088967,0.08187131583690643,0.05566256493330002,-0.08543097227811813,0.6040757298469543,0.9561656713485718,-8.113356590270996
1745659487.6401181,0.1059621199965477,0.03834211081266403,-0.09820225089788437,0.6960097551345825,1.03646981716156,-9.56234073638916
1745659487.6443822,0.117931067943573,0.05092203617095947,-0.11346037685871124,0.1522054225206375,0.7417868971824646,-11.742792129516602
1745659487.6473763,0.16868320107460022,0.06963193416595459,-0.12231848388910294,0.375209242105484,0.24468879401683807,-9.648763656616211
1745659487.650614,0.12096784263849258,0.06528182327747345,-0.1261669099330902,0.1572689265012741,0.11886179447174072,-7.684147834777832
1745659487.6528077,0.14717106521129608,0.046126265078783035,-0.12852635979652405,0.812772274017334,-0.2589864134788513,-9.318194389343262
1745659487.687703,0.10768218338489532,0.06052693724632263,-0.12961417436599731,1.0669136047363281,-0.06604836881160736,-11.654703140258789
1745659487.6898232,0.14409638941287994,0.07653830945491791,-0.13190463185310364,0.8492680788040161,-0.35158592462539673,-10.400163650512695
1745659487.6927693,0.12367943674325943,0.053013402968645096,-0.13393987715244293,0.7161704897880554,-0.06356796622276306,-8.127543449401855
1745659487.694958,0.10532943904399872,0.04452059417963028,-0.13249576091766357,0.3578992187976837,-0.17030610144138336,-9.358768463134766
1745659487.7286642,0.11616949737071991,0.05178644135594368,-0.14185327291488647,-0.14961519837379456,-0.17005476355552673,-9.31657600402832
1745659487.7288024,0.1134616956114769,0.09596747905015945,-0.12881280481815338,0.20064301788806915,-0.8294593691825867,-10.730278015136719
1745659487.7304945,0.06343076378107071,0.02820797823369503,-0.10485249757766724,1.146740198135376,-0.8439879417419434,-10.044668197631836
1745659487.7319481,0.08497131615877151,0.06447360664606094,-0.10726772248744965,-0.04372601956129074,0.05100768059492111,-10.141069412231445
1745659487.7691643,0.044115059077739716,0.032190222293138504,-0.12778031826019287,-0.2657550871372223,0.5311216115951538,-8.870335578918457
1745659487.7732322,-0.00595358619466424,0.05650882050395012,-0.13319894671440125,-0.014236967079341412,-0.3242664635181427,-9.08220100402832
1745659487.7755504,0.08565931767225266,0.016462940722703934,-0.12776270508766174,1.0678566694259644,0.9102295637130737,-10.231822967529297
1745659487.777929,0.026343781501054764,0.025446724146604538,-0.1154944896697998,-0.2453918159008026,-0.30485597252845764,-11.767102241516113
1745659487.7797055,0.14554382860660553,0.0435345321893692,-0.09310272336006165,-0.14675024151802063,-0.0824575200676918,-8.55412769317627
1745659487.81476,0.0670781135559082,0.04326940327882767,-0.08859939128160477,0.5804561376571655,0.021504616364836693,-7.501767158508301
1745659487.8191266,0.15185095369815826,-0.01847841404378414,-0.09048913419246674,0.6231444478034973,0.9393059015274048,-10.99052906036377
1745659487.8227143,0.13019993901252747,0.018789425492286682,-0.09288211911916733,0.646663248538971,-0.048360779881477356,-12.354507446289062
1745659487.8238425,0.20096555352210999,0.03608199954032898,-0.08564354479312897,-0.47391071915626526,-0.08962921798229218,-8.867175102233887
1745659487.8587775,-0.00997294019907713,-0.0030906167812645435,0.10525548458099365,0.518277645111084,-0.31821194291114807,-9.551685333251953
1745659487.8625696,-0.013116756454110146,4.803622141480446e-05,0.11423114687204361,0.6407898664474487,-0.5288317203521729,-9.463212013244629
1745659487.865703,-0.04211028665304184,-0.007939730770885944,0.11731494963169098,0.37593919038772583,-0.38143596053123474,-9.957719802856445
1745659487.86794,-0.049653731286525726,0.0005588816711679101,0.12754344940185547,0.6194368600845337,-0.5982443690299988,-9.946538925170898
1745659487.8993318,-0.06334276497364044,0.0007979967631399632,0.1313484013080597,0.4367644786834717,-0.1488111913204193,-9.667098999023438
1745659487.9032998,-0.06794747710227966,-0.0028941757045686245,0.13069482147693634,0.3853384554386139,-0.11959917843341827,-9.546882629394531
1745659487.9069164,-0.08757859468460083,-0.009530134499073029,0.13053634762763977,0.6189330816268921,-0.04625655338168144,-9.784608840942383
1745659487.9087605,-0.07787726074457169,0.0029863337986171246,0.13142821192741394,0.4655178189277649,-0.0860002189874649,-10.168134689331055
1745659487.9110441,-0.09954718500375748,-0.005133288912475109,0.13013489544391632,0.6114085912704468,-0.11329080909490585,-9.80317211151123
1745659487.9422698,-0.09258326143026352,-0.006982059683650732,0.14011241495609283,0.4534968435764313,-0.09937034547328949,-9.460464477539062
1745659487.9444458,-0.09373041987419128,0.004048233386129141,0.14277133345603943,0.6780726313591003,-0.04720280319452286,-9.643956184387207
1745659487.9466841,-0.09529824554920197,-0.011687060818076134,0.1484866887331009,0.5989758372306824,0.23463621735572815,-10.096746444702148
1745659487.9478564,-0.07107224315404892,6.599221524083987e-05,0.14959616959095,0.547480583190918,0.201767235994339,-9.934915542602539
1745659487.9875,-0.062397658824920654,0.0009222913649864495,0.15474668145179749,0.5610499978065491,0.3604922890663147,-9.4755277633667
1745659487.987546,-0.045959848910570145,-0.009147873148322105,0.15352532267570496,0.3701462149620056,0.241665318608284,-9.715065002441406
1745659487.9892724,-0.049720846116542816,-0.006277558393776417,0.15732929110527039,0.6462074518203735,0.09647925198078156,-9.989242553710938
1745659487.9916544,-0.03685110807418823,-0.006458797492086887,0.1589156687259674,0.3746792674064636,0.016796210780739784,-10.054553031921387
1745659488.0287733,-0.052562881261110306,-0.00089217908680439,0.16330759227275848,0.5455832481384277,-0.12181393057107925,-9.581518173217773
1745659488.0325055,-0.06919313967227936,-0.015052029862999916,0.16174086928367615,0.6203475594520569,-0.24194762110710144,-9.586543083190918
1745659488.035706,-0.06948237866163254,-0.004725501872599125,0.16391797363758087,0.6102587580680847,-0.22348801791667938,-10.066808700561523
1745659488.0404534,-0.10589306056499481,-0.01590198464691639,0.16817066073417664,0.6285320520401001,-0.27465566992759705,-10.123552322387695
1745659488.0413198,-0.10239477455615997,-0.011493651196360588,0.17102563381195068,0.4350678026676178,-0.2991698980331421,-9.615315437316895
1745659488.075121,-0.09594428539276123,-0.008492253720760345,0.18724845349788666,0.43646183609962463,0.3209584653377533,-9.50897216796875
1745659488.0787792,-0.10330180078744888,-0.013127964921295643,0.19160881638526917,0.5896138548851013,0.2196476012468338,-9.912946701049805
1745659488.0823047,-0.08202223479747772,-0.0022585135884582996,0.18992717564105988,0.4649333357810974,0.1821998953819275,-10.118203163146973
1745659488.08762,-0.10295941680669785,-0.006321300752460957,0.193583682179451,0.6287903785705566,0.03307773545384407,-9.66420841217041
1745659488.1137068,-0.10355627536773682,-0.014301212504506111,0.19431890547275543,0.4491423964500427,-0.003894577268511057,-9.542524337768555
1745659488.116376,-0.10967916250228882,-0.003416479332372546,0.20061807334423065,0.6912003755569458,-0.004677513148635626,-9.851354598999023
1745659488.120258,-0.1184745654463768,-0.015409573912620544,0.19882866740226746,0.5099300742149353,0.1683722287416458,-10.115242004394531
1745659488.1229472,-0.11595554649829865,-0.004400667734444141,0.20139555633068085,0.5167995095252991,-0.0011071721091866493,-9.75023365020752
1745659488.155668,-0.10338041931390762,-0.01069519855082035,0.20995274186134338,0.5606494545936584,0.1605646312236786,-9.398444175720215
1745659488.159489,-0.11207093298435211,-0.013681764714419842,0.21236272156238556,0.36978060007095337,0.41354331374168396,-10.051698684692383
1745659488.1608834,-0.07522711157798767,-0.04090629518032074,0.20484912395477295,0.5962145924568176,0.7158082723617554,-10.176204681396484
1745659488.165074,-0.05384121462702751,-0.01524141151458025,0.18219546973705292,-0.6161632537841797,1.1218688488006592,-10.306231498718262
1745659488.1682558,-0.04747378081083298,-0.04199400916695595,0.16885948181152344,-0.24211251735687256,0.7258657217025757,-8.983777046203613
1745659488.1999907,-0.030783165246248245,-0.05344047397375107,0.15734365582466125,-0.4538652002811432,0.37387752532958984,-9.528434753417969
1745659488.202211,0.011998042464256287,-0.05836857482790947,0.10295907407999039,-0.16537514328956604,0.4680356979370117,-9.469976425170898
1745659488.2038205,-0.021728966385126114,-0.05082153156399727,0.10293277353048325,0.8259196281433105,-0.4633966088294983,-9.275580406188965
1745659488.2057567,-0.044574763625860214,-0.13434462249279022,0.11205363273620605,-0.5077250003814697,-0.3353808522224426,-11.266487121582031
1745659488.2448027,-0.08363102376461029,-0.017092619091272354,0.1021442860364914,-0.9443354606628418,0.22371813654899597,-10.414617538452148
1745659488.2472918,-0.06322268396615982,-0.06730399280786514,0.08547551929950714,-0.45838046073913574,0.9068232774734497,-7.534956932067871
1745659488.2485828,-0.12952890992164612,-0.06681729853153229,0.07992095500230789,0.1994331330060959,-0.5985248684883118,-9.087712287902832
1745659488.250917,-0.1013638973236084,-0.04545742645859718,0.07031868398189545,1.1824610233306885,0.9700803756713867,-11.604010581970215
1745659488.2857687,-0.07220828533172607,-0.08412569016218185,0.0730353444814682,0.4356159269809723,-0.04869040101766586,-11.30874252319336
1745659488.2890131,-0.05016747862100601,-0.026380550116300583,0.0887402817606926,0.4540148377418518,-0.2728041112422943,-8.181161880493164
1745659488.2931833,-0.10160048305988312,-0.07546892762184143,0.1050700768828392,0.010829317383468151,-0.12112651765346527,-8.526150703430176
1745659488.297624,-0.051638416945934296,-0.05624360963702202,0.10957451164722443,0.553726315498352,0.5575075149536133,-10.923562049865723
1745659488.2993731,-0.0310178454965353,-0.021750500425696373,0.09227687120437622,-0.3145184814929962,1.769150972366333,-11.165231704711914
1745659488.328397,-0.0006399232661351562,-0.04313836991786957,0.06974531710147858,-0.16015872359275818,1.3583357334136963,-8.06296157836914
1745659488.3308177,0.020366793498396873,-0.037835925817489624,0.04447048529982567,0.40142711997032166,1.5473873615264893,-8.223390579223633
1745659488.3323503,0.00575240608304739,-0.06072160601615906,0.03304489701986313,0.10486020147800446,0.23515979945659637,-11.76318645477295
1745659488.3349538,0.0365409255027771,-0.00817064568400383,0.04216492548584938,0.4983963072299957,-0.25984954833984375,-11.312273025512695
1745659488.3714874,-0.00783773697912693,-0.018267188221216202,0.05398780107498169,0.35449567437171936,-0.44723233580589294,-8.20348834991455
1745659488.374061,-0.0006869331118650734,-0.05069062113761902,0.07125306874513626,0.42503929138183594,-0.6975939869880676,-8.30936336517334
1745659488.3746479,-0.03917993977665901,-0.014473339542746544,0.07371904700994492,0.6130493879318237,0.4871910512447357,-11.318195343017578
1745659488.3767557,0.024034913629293442,-0.031194031238555908,0.06346170604228973,0.3071393668651581,0.7415323257446289,-11.480208396911621
1745659488.3776042,0.020459050312638283,-0.010681705549359322,0.049215223640203476,-0.2327936589717865,0.8144947290420532,-8.663660049438477
1745659488.4157925,-0.00957530178129673,-0.033024828881025314,0.038767896592617035,-0.25441116094589233,0.4239868223667145,-8.604843139648438
1745659488.4211948,0.006124170031398535,0.02066054753959179,0.015701523050665855,1.1002745628356934,1.1705023050308228,-10.834678649902344
1745659488.4239104,0.04897619038820267,-0.0019797026179730892,0.008732201531529427,0.4517607092857361,0.8878204226493835,-8.925834655761719
1745659488.4259055,0.0770391970872879,-0.0013227872550487518,0.0032599307596683502,0.4947700500488281,0.7744928598403931,-8.541603088378906
1745659488.4592154,0.09572954475879669,0.012345664203166962,-0.0009256366756744683,-0.10479366779327393,0.9554866552352905,-10.590141296386719
1745659488.465302,0.1330089271068573,0.0362699031829834,-0.0094289006665349,0.14731386303901672,0.3001028597354889,-10.409940719604492
1745659488.4670725,0.13649742305278778,0.045496825128793716,-0.019987737759947777,0.33936095237731934,0.6999174356460571,-8.624752044677734
1745659488.4704475,0.09722088277339935,0.023877829313278198,-0.029445623978972435,0.5281105041503906,0.07175891101360321,-9.333739280700684
1745659488.5011828,0.12988445162773132,0.03661629557609558,-0.040479324758052826,0.9704337120056152,0.04618886858224869,-10.696858406066895
1745659488.503041,0.06407644599676132,0.05312635377049446,-0.046176113188266754,0.5984649062156677,-0.1690872460603714,-10.480196952819824
1745659488.5046656,0.06632256507873535,0.04087840020656586,-0.04384496062994003,0.8321200609207153,-0.8882821202278137,-8.94526481628418
1745659488.507098,0.015354233793914318,0.04209079220890999,-0.040420401841402054,0.43212994933128357,0.20572347939014435,-9.1774263381958
1745659488.511056,0.02863692305982113,0.05037958547472954,-0.04182250052690506,0.3207924962043762,-0.06369005143642426,-10.624977111816406
1745659488.5443563,0.05636241286993027,0.06285585463047028,-0.05193988233804703,0.41326436400413513,1.1056216955184937,-10.035406112670898
1745659488.5454214,0.07132972776889801,0.05681922286748886,-0.06650488823652267,0.255607008934021,0.9961654543876648,-9.236737251281738
1745659488.5479693,0.05201711505651474,-0.021647121757268906,-0.04191038757562637,0.9015954732894897,-0.4191570281982422,-9.312711715698242
1745659488.5494115,0.022392336279153824,-0.00042555705294944346,-0.031688641756772995,0.09845006465911865,-0.9322065114974976,-12.60019588470459
1745659488.589351,0.04806600511074066,0.028337588533759117,-0.015773307532072067,0.3287520110607147,-0.676591694355011,-9.511716842651367
1745659488.5942411,-0.031101007014513016,0.014279879629611969,-0.01190527155995369,0.4354867935180664,0.38484811782836914,-6.82073974609375
1745659488.5974166,0.0618581548333168,-0.04839223623275757,-0.015836229547858238,0.6251918077468872,0.6213347911834717,-10.094076156616211
1745659488.6024578,0.020580077543854713,0.0043841395527124405,-0.024682601913809776,0.277854323387146,1.0304138660430908,-12.966646194458008
1745659488.6295662,0.11241171509027481,0.01175426971167326,-0.028414329513907433,-0.3218112885951996,0.23771724104881287,-9.703031539916992
1745659488.6323488,0.06485235691070557,-0.0055411155335605145,-0.02842773124575615,0.26231592893600464,0.43196091055870056,-5.94979190826416
1745659488.6330125,0.047158531844615936,-0.03564450144767761,-0.018474362790584564,0.34684449434280396,-0.5323842167854309,-10.214676856994629
1745659488.6356173,0.094736747443676,0.0005807541310787201,-0.014532288536429405,0.7236687541007996,0.1783592402935028,-12.989727973937988
1745659488.6379328,0.06182511895895004,0.024532228708267212,-0.008148707449436188,0.32856494188308716,0.020741665735840797,-9.635866165161133
1745659488.6738186,0.088828444480896,-0.021073978394269943,-0.004179169423878193,0.649085521697998,-0.02728874608874321,-6.630745887756348
1745659488.6780975,0.052121538668870926,-0.03386957198381424,-0.004395296331495047,0.680181622505188,0.11077922582626343,-10.300610542297363
1745659488.683267,0.07322563976049423,-0.012844611890614033,-0.008684271946549416,0.17122414708137512,-0.06571924686431885,-12.983874320983887
1745659488.6868532,0.07835930585861206,0.015598575584590435,-0.004203139804303646,-0.02683156169950962,0.00603262847289443,-9.199748992919922
1745659488.719108,0.05892694741487503,-0.015431937761604786,-0.0007847122033126652,-0.27869194746017456,0.04798170179128647,-6.674191474914551
1745659488.7193227,0.044709526002407074,-0.025189796462655067,3.6495202948572114e-05,0.319213330745697,-0.1420537531375885,-10.00846004486084
1745659488.719857,0.048759572207927704,0.0002515140804462135,-0.006216268986463547,0.3745298385620117,0.11957965046167374,-12.604710578918457
1745659488.7239652,0.06479138880968094,0.012818058021366596,-0.0042197913862764835,0.3915342092514038,-0.2794108986854553,-9.570757865905762
1745659488.7268624,0.030738521367311478,-0.007714186795055866,0.001791426562704146,0.4361611008644104,-0.32622435688972473,-7.277787208557129
1745659488.759031,0.008808902464807034,-0.028266891837120056,0.016261382028460503,0.6754677891731262,-0.6675829887390137,-9.992817878723145
1745659488.7612336,0.009027923457324505,0.0027754344046115875,0.02494286559522152,0.7600088119506836,-0.5329288840293884,-12.220762252807617
1745659488.7635312,-0.00883975438773632,0.001347235986031592,0.050036847591400146,0.5937421917915344,0.0986744612455368,-7.709480285644531
1745659488.7660465,0.020491212606430054,-0.009674623608589172,0.06293663382530212,0.8504472970962524,0.48703837394714355,-9.724621772766113
1745659488.8052714,0.03495329990983009,0.00767233083024621,0.06982885301113129,0.6300340890884399,0.5358269810676575,-11.741052627563477
1745659488.8119204,0.09249205887317657,0.02116478607058525,0.07578399777412415,0.5368775725364685,0.49162063002586365,-9.796381950378418
1745659488.8142478,0.09846679866313934,0.012935888953506947,0.07872501760721207,0.3152255415916443,0.641004204750061,-7.968672275543213
1745659488.8176215,0.10079731792211533,0.0008344549569301307,0.07766679674386978,0.4506010115146637,0.1027006059885025,-9.706209182739258
1745659488.847125,0.10028274357318878,0.012727354653179646,0.07611687481403351,0.6133784651756287,-0.06114385649561882,-11.330949783325195
1745659488.8502796,0.08477945625782013,0.03592849150300026,0.08070125430822372,0.21430738270282745,-0.579465925693512,-10.14333438873291
1745659488.8535457,0.03448859602212906,0.019467907026410103,0.08912686258554459,0.4687992036342621,-0.958399772644043,-8.220252990722656
1745659488.857788,-0.006185088772326708,0.022248774766921997,0.09777523577213287,0.5127922296524048,-0.9611946940422058,-9.388139724731445
1745659488.8898916,-0.0505366325378418,0.035117149353027344,0.10789104551076889,0.7447713017463684,-0.8838658332824707,-10.96796989440918
1745659488.8922362,-0.07631003856658936,0.035108163952827454,0.11262090504169464,0.6713918447494507,-0.5622172355651855,-10.126686096191406
1745659488.8937147,-0.0894160270690918,0.0403585284948349,0.11825783550739288,0.5268315672874451,-0.3523270785808563,-8.932988166809082
1745659488.897497,-0.07861437648534775,0.02031608112156391,0.21049058437347412,0.5984865427017212,0.05667790025472641,-9.822486877441406
1745659488.9339778,-0.07158417254686356,0.025510650128126144,0.21016672253608704,0.4769648611545563,0.24391086399555206,-10.045598030090332
1745659488.9368508,-0.06997798383235931,0.030265668407082558,0.20857131481170654,0.5755151510238647,0.08822551369667053,-9.694109916687012
1745659488.940287,-0.08706460893154144,0.017594246193766594,0.21347728371620178,0.44030341506004333,0.21546871960163116,-9.514644622802734
1745659488.9443233,-0.0926990956068039,0.02465991862118244,0.21174481511116028,0.6592531204223633,-0.18936902284622192,-9.800954818725586
1745659488.973073,-0.09774424135684967,0.018828120082616806,0.21526780724525452,0.6331765651702881,0.20347294211387634,-9.957513809204102
1745659488.9754982,-0.11022552102804184,0.02291102334856987,0.21898922324180603,0.48622649908065796,0.022901713848114014,-9.828219413757324
1745659488.978079,-0.10836102813482285,0.013881002552807331,0.220651313662529,0.7159289121627808,0.19521641731262207,-9.437368392944336
1745659488.979106,-0.0971132293343544,0.021484820172190666,0.22538726031780243,0.4149574637413025,0.39647820591926575,-9.745152473449707
1745659488.981145,-0.10034485906362534,0.016627049073576927,0.2267245501279831,0.6331775188446045,0.2921341359615326,-9.863451957702637
1745659489.0176203,-0.08263422548770905,0.01166748721152544,0.22957010567188263,0.5286219120025635,0.42609304189682007,-9.735233306884766
1745659489.0216959,-0.06932951509952545,0.023304687812924385,0.23411786556243896,0.5602325201034546,0.3325258493423462,-9.663773536682129
1745659489.0226288,-0.07052456587553024,0.0035698297433555126,0.2343519926071167,0.5641742944717407,0.4513988494873047,-9.733370780944824
1745659489.0245862,-0.06269479542970657,0.011454951949417591,0.23623962700366974,0.4815492630004883,0.14547693729400635,-9.968683242797852
1745659489.0615025,-0.06275449693202972,0.009075721725821495,0.2354734241962433,0.6814242601394653,0.21514081954956055,-9.700878143310547
1745659489.0638204,-0.08385089784860611,0.005768120288848877,0.23926039040088654,0.4401929974555969,0.153912752866745,-9.65968132019043
1745659489.0667875,-0.09151323139667511,-0.0011284772772341967,0.23782281577587128,0.7439650893211365,-0.18523171544075012,-9.732294082641602
1745659489.070086,-0.09691658616065979,0.004857291467487812,0.24096187949180603,0.5352848172187805,0.16775675117969513,-9.881878852844238
1745659489.0767815,-0.11964614689350128,0.002744270721450448,0.24519029259681702,0.5178158283233643,-0.07584892958402634,-9.765251159667969
1745659489.1049738,-0.12082171440124512,-0.0069213444367051125,0.2484217882156372,0.6173814535140991,0.19110152125358582,-9.468671798706055
1745659489.1079187,-0.11022056639194489,0.0085685346275568,0.25313448905944824,0.46221643686294556,0.29957345128059387,-9.705724716186523
1745659489.10933,-0.11961960792541504,-0.005741751287132502,0.2554852366447449,0.5779752731323242,0.3739106059074402,-9.8820161819458
1745659489.1125371,-0.10391251742839813,-0.022341158241033554,0.260476291179657,0.7732035517692566,0.33403000235557556,-9.811902046203613
1745659489.148837,-0.06086151674389839,-0.03536384552717209,0.25055432319641113,0.4665783941745758,0.8292431831359863,-9.852258682250977
1745659489.1502967,-0.0709710419178009,-0.018835877999663353,0.23419995605945587,-0.35764408111572266,1.011171579360962,-10.18298625946045
1745659489.152176,-0.05221324414014816,-0.05101854354143143,0.21907095611095428,-0.19112949073314667,0.9940896034240723,-9.242237091064453
1745659489.1542096,-0.004285283386707306,-0.04209217429161072,0.21248984336853027,-0.5112576484680176,0.6772655844688416,-9.55115032196045
1745659489.1912053,0.007045974023640156,-0.03210483118891716,0.20872333645820618,-0.5686359405517578,-0.105738066136837,-10.030538558959961
1745659489.199393,-0.02309262566268444,-0.03184707090258598,0.21240313351154327,-0.5098293423652649,-0.3906348943710327,-9.499526977539062
1745659489.2012446,-0.04898113012313843,-0.02433214709162712,0.2179889976978302,0.3099132478237152,-1.5492229461669922,-9.207014083862305
1745659489.202823,-0.08160232752561569,-0.0267183817923069,0.2208021879196167,0.4607083201408386,-0.15052036941051483,-9.703903198242188
1745659489.2062318,-0.14258889853954315,-0.07242803275585175,0.21525683999061584,0.6351091265678406,-0.733871579170227,-10.952656745910645
1745659489.2355545,-0.1779150664806366,-0.03944277763366699,0.2119501531124115,0.39763638377189636,-0.3477444648742676,-10.003778457641602
1745659489.2357686,-0.18352827429771423,-0.05329012870788574,0.20260854065418243,-0.16916103661060333,0.09085775911808014,-9.019474983215332
1745659489.2380078,-0.2648947834968567,-0.08018876612186432,0.1937786340713501,0.27168649435043335,0.4017772078514099,-9.081262588500977
1745659489.239431,-0.2207445204257965,-0.05829016491770744,0.18505607545375824,-0.11470179259777069,0.8125984072685242,-10.659523963928223
1745659489.278331,-0.044944703578948975,-0.04183097556233406,0.06124598905444145,0.5521733164787292,0.6676928400993347,-10.67086410522461
1745659489.2790475,-0.008714298717677593,-0.028724247589707375,0.04897337034344673,0.7708633542060852,0.7511097192764282,-9.939671516418457
1745659489.2813895,-0.05005675554275513,-0.04955514892935753,0.04672583192586899,0.6375434398651123,0.3959566652774811,-9.325909614562988
1745659489.286969,0.009555080905556679,-0.03442595154047012,0.045082978904247284,0.7206908464431763,0.5801907777786255,-9.834688186645508
1745659489.3203938,0.003978902939707041,-0.03485298156738281,0.05003778263926506,0.35453611612319946,0.8131126165390015,-10.480023384094238
1745659489.3240635,0.0908479318022728,-0.009970048442482948,0.042749207466840744,0.3980271518230438,1.1594347953796387,-9.599843978881836
1745659489.3295841,0.11497960239648819,-0.021683644503355026,0.035259559750556946,0.6103059649467468,1.3882474899291992,-9.15681266784668
1745659489.3304517,0.14342434704303741,-0.02980143204331398,0.023699259385466576,0.1556987464427948,0.8259762525558472,-10.306422233581543
1745659489.3318205,0.1935589611530304,0.0027659337501972914,0.01183300744742155,0.39703693985939026,0.8908194303512573,-10.256288528442383
1745659489.3638055,0.13890579342842102,-0.004116140305995941,0.004861562978476286,0.18845032155513763,-0.3154849410057068,-9.61780834197998
1745659489.3650203,0.15150995552539825,0.010355198755860329,0.00236433744430542,0.5706700682640076,-0.33190327882766724,-8.960733413696289
1745659489.3672903,0.04914619401097298,0.0015450880164280534,-0.0037170294672250748,0.7677814364433289,-0.4816157817840576,-10.088869094848633
1745659489.3704543,0.07588062435388565,0.017719628289341927,-0.006290588527917862,0.4752011299133301,-0.16839440166950226,-10.5733060836792
1745659489.4062166,0.013016531243920326,0.02938814088702202,-0.014535276219248772,0.7674239277839661,0.1049424409866333,-9.470797538757324
1745659489.408984,0.02840777114033699,0.013038168661296368,-0.020502086728811264,0.4660734534263611,0.31768205761909485,-9.301596641540527
1745659489.4101474,0.04838474839925766,0.02549668215215206,-0.026924189180135727,0.35311928391456604,0.881036102771759,-10.06907844543457
1745659489.4126625,0.06370051950216293,0.033301450312137604,-0.03319782763719559,0.06174016743898392,0.8074744343757629,-10.353663444519043
1745659489.4462395,0.1355927437543869,0.04836244136095047,-0.03681662678718567,0.16100256145000458,1.1410964727401733,-9.28325366973877
1745659489.450932,0.12681804597377777,0.033829592168331146,-0.04208189994096756,0.3698245882987976,0.6954866647720337,-9.288559913635254
1745659489.4551234,0.20042791962623596,0.04138131067156792,-0.04454967752099037,0.4311579167842865,1.0554064512252808,-10.167896270751953
1745659489.4600296,0.18924479186534882,0.052031636238098145,-0.05135287716984749,0.6428958773612976,0.43967047333717346,-10.443917274475098
1745659489.4631915,0.22082534432411194,0.0487448051571846,-0.058602869510650635,0.6175022125244141,0.3840535879135132,-9.462091445922852
1745659489.499037,0.14587578177452087,0.05251375958323479,-0.08362841606140137,0.292351096868515,0.331338495016098,-9.359071731567383
1745659489.4991732,0.1251494586467743,0.05630473420023918,-0.09239097684621811,0.46818581223487854,0.09259103238582611,-10.078339576721191
1745659489.4992502,0.14838850498199463,0.06408151239156723,-0.09303928911685944,0.30079320073127747,0.3126412630081177,-10.147417068481445
1745659489.4995322,0.14563043415546417,0.06896822154521942,-0.0966627225279808,0.5611060857772827,-0.09394033998250961,-9.462140083312988
1745659489.5363948,0.15413117408752441,0.05729498341679573,-0.09523043781518936,0.48263901472091675,0.1708490401506424,-9.440073013305664
1745659489.5380564,0.1545524001121521,0.07106967270374298,-0.09581555426120758,0.45030760765075684,0.09823356568813324,-10.08342170715332
1745659489.5413663,0.1642833799123764,0.07054395973682404,-0.0993037074804306,0.6116026043891907,0.09737455099821091,-10.01220703125
1745659489.542943,0.16840671002864838,0.07482191175222397,-0.10640127956867218,0.5233087539672852,0.623537003993988,-9.427497863769531
1745659489.5852365,0.15952199697494507,0.06456277519464493,-0.11429071426391602,0.7499236464500427,0.1547667682170868,-9.588945388793945
1745659489.588782,0.17834420502185822,0.06648173928260803,-0.126886248588562,0.4569360315799713,0.6129837036132812,-10.03687572479248
1745659489.5938277,0.16206522285938263,0.0698598325252533,-0.1305605173110962,0.6482924818992615,-0.06611054390668869,-9.968706130981445
1745659489.596315,0.1724102944135666,0.06411711871623993,-0.1323414295911789,0.5040513277053833,0.1370556503534317,-9.53455638885498
1745659489.6000173,0.17216762900352478,0.06697376072406769,-0.13089483976364136,0.48304232954978943,-0.02244114875793457,-9.622968673706055
1745659489.6234183,0.18639393150806427,0.061235327273607254,-0.1326369345188141,0.5840069055557251,0.030150944367051125,-9.925471305847168
1745659489.6260295,0.14572730660438538,0.006705303676426411,-0.2180573046207428,0.450370728969574,-0.08856090903282166,-9.53726577758789
1745659489.6293726,0.15687116980552673,0.006187599152326584,-0.21966850757598877,0.5263669490814209,-0.5248174667358398,-9.918049812316895
1745659489.633256,0.1618223488330841,0.007544337771832943,-0.22065719962120056,0.5932680368423462,-0.18328070640563965,-9.667070388793945
1745659489.66257,0.14959657192230225,0.0072091990150511265,-0.22434405982494354,0.4778653085231781,-0.32562369108200073,-9.591996192932129
1745659489.6655955,0.16270320117473602,-0.00048275216249749064,-0.22261586785316467,0.7519384622573853,-0.50314861536026,-9.613509178161621
1745659489.6720972,0.15486828982830048,0.0017200044821947813,-0.222245454788208,0.39679965376853943,-0.2413029670715332,-9.986042976379395
1745659489.6721945,0.1527475118637085,-0.0014830767177045345,-0.22403664886951447,0.795907735824585,-0.6843470931053162,-9.866796493530273
1745659489.7084475,0.1445096731185913,-0.006830492056906223,-0.22560003399848938,0.5371660590171814,-0.2579587399959564,-9.6013765335083
1745659489.7099795,0.14122562110424042,-0.006792175117880106,-0.22779755294322968,0.6620690226554871,-0.5073860287666321,-9.621603012084961
1745659489.71244,0.12536004185676575,-0.01147078163921833,-0.23207513988018036,0.6114938855171204,-0.21576754748821259,-9.730264663696289
1745659489.714153,0.127123162150383,-0.00840876717120409,-0.2336106300354004,0.45543861389160156,-0.47012242674827576,-9.830205917358398
1745659489.7163718,0.13294090330600739,-0.013394193723797798,-0.23554439842700958,0.761188805103302,-0.2682911455631256,-9.548798561096191
1745659489.7520394,0.12882129848003387,-0.013879507780075073,-0.2365899384021759,0.37723103165626526,-0.2808699309825897,-9.87316608428955
1745659489.7531147,0.14493140578269958,-0.014794258400797844,-0.23820114135742188,0.6523340940475464,-0.523701548576355,-9.880146026611328
1745659489.7557988,0.1491629183292389,-0.016406945884227753,-0.23395200073719025,0.4149783253669739,-0.08861970156431198,-9.684171676635742
1745659489.7589417,0.14840491116046906,-0.01649482175707817,-0.23986156284809113,0.4957328736782074,-0.5485154390335083,-9.593655586242676
1745659489.7933254,0.15667879581451416,-0.01846526563167572,-0.2410038709640503,0.6171494722366333,-0.23987463116645813,-9.609182357788086
1745659489.797929,0.1436799019575119,-0.021868634968996048,-0.24312075972557068,0.5047673583030701,-0.5562372207641602,-9.945634841918945
1745659489.8009193,0.13534781336784363,-0.024687591940164566,-0.2427177131175995,0.7176321148872375,-0.6037529706954956,-9.868010520935059
1745659489.8048077,0.12931568920612335,-0.024452105164527893,-0.24648471176624298,0.4335037171840668,-0.5717726349830627,-9.781915664672852
1745659489.8359556,0.12117011845111847,-0.02426079660654068,-0.2457578480243683,0.6431387066841125,-0.680627703666687,-9.682565689086914
1745659489.8395824,0.1025826707482338,-0.02931300178170204,-0.24828891456127167,0.5159090757369995,-0.42218631505966187,-9.733617782592773
1745659489.8438237,0.12636955082416534,-0.029667925089597702,-0.25188836455345154,0.5664829611778259,-0.40315133333206177,-9.750627517700195
1745659489.8477497,0.13325245678424835,-0.030027691274881363,-0.2544410824775696,0.30201876163482666,-0.22750672698020935,-9.828981399536133
1745659489.8811145,0.13762590289115906,-0.026950204744935036,-0.25301486253738403,0.6652006506919861,-0.5713489055633545,-9.741813659667969
1745659489.8825855,0.13972894847393036,-0.03400001674890518,-0.2549900412559509,0.4018556475639343,-0.31998130679130554,-9.754800796508789
1745659489.8832078,0.1353137195110321,-0.028380054980516434,-0.2581110894680023,0.5860481262207031,-0.7060977220535278,-9.736188888549805
1745659489.884765,0.11716566234827042,-0.034267645329236984,-0.2602972090244293,0.6033744812011719,-0.5662537813186646,-9.751260757446289
1745659489.9223337,0.11654438823461533,-0.032809607684612274,-0.2597604990005493,0.4809702932834625,-0.7672455906867981,-9.916382789611816
1745659489.9306135,0.10548170655965805,-0.03345254808664322,-0.25819969177246094,0.6649985313415527,-0.6225284337997437,-9.694371223449707
1745659489.9306684,0.09513211250305176,-0.03135562688112259,-0.2607087790966034,0.29488927125930786,-0.5362939238548279,-9.803979873657227
1745659489.9307098,0.11798969656229019,-0.03395029902458191,-0.2525293529033661,0.5380100011825562,-0.7283718585968018,-9.723319053649902
1745659489.9330442,0.11768345534801483,-0.04186498373746872,-0.24735932052135468,-0.13360989093780518,-0.31346583366394043,-9.86351203918457
1745659489.967232,0.12047435343265533,-0.023941591382026672,-0.24089515209197998,-0.07067443430423737,-1.0560027360916138,-9.658851623535156
1745659489.970727,0.09044759720563889,-0.06808163225650787,-0.22762122750282288,-0.2789228558540344,-0.8694936037063599,-9.79716968536377
1745659489.9759252,0.04772631451487541,-0.07692549377679825,-0.09303410351276398,0.5190969109535217,-1.1957502365112305,-10.079418182373047
1745659489.9780867,0.0733405202627182,-0.056359875947237015,-0.08963442593812943,0.2933121621608734,-0.764992356300354,-12.406740188598633
1745659490.008788,0.02210444025695324,-0.014309431426227093,-0.08635738492012024,-0.43334779143333435,-1.1045137643814087,-9.982877731323242
1745659490.0098553,-0.005182089749723673,-0.053253185003995895,-0.09158296883106232,-0.14802739024162292,-0.6785925626754761,-6.961060523986816
1745659490.0128927,-0.07195856422185898,-0.05069117620587349,-0.10515737533569336,0.3637842535972595,-0.7870885133743286,-9.787955284118652
1745659490.0170145,-0.10666756331920624,-0.05712107941508293,-0.11546210199594498,0.17758730053901672,-0.9435151815414429,-12.74227237701416
1745659490.0526571,-0.09339602291584015,-0.002906477078795433,-0.11224193871021271,0.19584497809410095,-0.6431255340576172,-10.142560005187988
1745659490.0534954,-0.11077804863452911,-0.07359615713357925,-0.09197212755680084,-0.03574168682098389,-0.8475304841995239,-7.378072261810303
1745659490.0566492,-0.007256942335516214,-0.023693639785051346,-0.07383139431476593,-0.11942644417285919,-0.34359902143478394,-9.603363037109375
1745659490.0581255,-0.042849842458963394,-0.03591195493936539,-0.06397487223148346,0.31954047083854675,-0.2293408215045929,-11.39598274230957
1745659490.0955703,0.013513153418898582,-0.062012724578380585,-0.05044218897819519,-0.7044517397880554,-0.6231629252433777,-10.699299812316895
1745659490.097319,-0.001705004251562059,-0.01741473749279976,-0.04871451109647751,-1.2456748485565186,-0.11660611629486084,-8.457270622253418
1745659490.0988476,-0.021930018439888954,-0.043891604989767075,-0.05714937299489975,-1.0503904819488525,-0.5634796023368835,-8.75842571258545
1745659490.100531,-0.051401544362306595,-0.04578340798616409,-0.06102440506219864,-0.1074756607413292,-0.8259910345077515,-10.588266372680664
1745659490.1034098,-0.10249286890029907,-0.03152790665626526,-0.06724005937576294,0.08639349043369293,-0.2377413511276245,-11.105886459350586
1745659490.1365743,-0.08747785538434982,-0.037460051476955414,-0.06923751533031464,-0.05707588791847229,-0.6880506873130798,-9.331376075744629
1745659490.1383367,-0.12105616182088852,-0.049135807901620865,-0.056597042828798294,0.576205313205719,-1.187024474143982,-8.296995162963867
1745659490.1414037,-0.14349260926246643,-0.05026745796203613,-0.03570300713181496,0.10643263161182404,-1.3039716482162476,-10.535520553588867
1745659490.1419456,-0.1378951370716095,-0.05475246161222458,-0.01441953144967556,-0.09259454160928726,-0.5892145037651062,-11.437675476074219
1745659490.1814256,-0.07444184273481369,-0.029955212026834488,-0.0047360798344016075,-0.8589304089546204,0.08433742821216583,-9.394043922424316
1745659490.1842656,-0.07710379362106323,-0.03725314885377884,-0.0015891998773440719,-1.254455804824829,0.2546040415763855,-8.057010650634766
1745659490.1854746,-0.041675958782434464,-0.062443651258945465,-0.009370638057589531,-0.6291130781173706,0.5222638845443726,-9.50901985168457
1745659490.1873355,-0.020635860040783882,-0.03681953623890877,-0.018362458795309067,-0.7909469604492188,0.14484748244285583,-11.573893547058105
1745659490.2227266,-0.16791865229606628,-0.07032029330730438,-0.008512049913406372,0.9181342124938965,-1.468514084815979,-10.032513618469238
1745659490.2256224,-0.11488670110702515,0.007296258118003607,-0.004643463529646397,0.18269331753253937,-0.5872288942337036,-12.440773963928223
1745659490.227697,-0.09060641378164291,-0.07255400717258453,-0.015171492472290993,1.783212423324585,-0.09705284237861633,-8.643109321594238
1745659490.230518,-0.08037339150905609,0.028436120599508286,-0.004581446293741465,0.4320756793022156,-0.4750824570655823,-8.737568855285645
1745659490.232499,-0.12078194320201874,-0.10799193382263184,0.0002945657470263541,-0.9389626383781433,0.3759467899799347,-10.601798057556152
1745659490.2673976,-0.011316502466797829,-0.01046888530254364,-0.0012054834514856339,0.16178061068058014,-0.4903387427330017,-10.164392471313477
1745659490.2690206,-0.0732022374868393,0.044965703040361404,-0.015695618465542793,-1.6640913486480713,0.788181722164154,-9.850784301757812
1745659490.2716362,-0.015858594328165054,-0.048030417412519455,-0.030969804152846336,0.3440384864807129,-0.7317029237747192,-8.216777801513672
1745659490.2730556,0.037298526614904404,-0.02300933748483658,-0.03887144848704338,0.39233511686325073,1.613802194595337,-9.846227645874023
1745659490.3105516,-0.04685211181640625,0.08485960215330124,-0.062310557812452316,0.2676103115081787,-0.9966959953308105,-11.927953720092773
1745659490.3138356,-0.020207127556204796,-0.07093276083469391,-0.05180990695953369,2.4565491676330566,-2.246936798095703,-8.636423110961914
1745659490.3167958,-0.08812285959720612,-0.010165929794311523,-0.02294052019715309,0.3199893534183502,-1.9397270679473877,-10.28187370300293
1745659490.3189971,0.008951978757977486,0.07640717923641205,-0.19894647598266602,0.870658278465271,-0.7082904577255249,-9.413961410522461
1745659490.3528423,0.01634257659316063,0.07954670488834381,-0.19898132979869843,0.8241526484489441,-0.580835223197937,-10.82280445098877
1745659490.356731,0.018096473067998886,0.08933049440383911,-0.20038075745105743,0.5750670433044434,-0.30864137411117554,-10.378978729248047
1745659490.360442,0.014493880793452263,0.07974176108837128,-0.20118141174316406,0.4834631085395813,-0.3986261785030365,-8.857240676879883
1745659490.3642817,0.04181303828954697,0.07165613025426865,-0.2004009187221527,0.37084436416625977,0.020727133378386497,-9.045291900634766
1745659490.3955448,0.058648668229579926,0.07123621553182602,-0.20205828547477722,0.5031793713569641,0.003041656222194433,-10.142309188842773
1745659490.398923,0.07800973951816559,0.08015960454940796,-0.2065805196762085,0.4214726388454437,-0.16680699586868286,-10.214498519897461
1745659490.4020517,0.09727223962545395,0.08388499170541763,-0.20964857935905457,0.49800658226013184,-0.1816842257976532,-9.248527526855469
1745659490.4072602,0.08182163536548615,0.06461645662784576,-0.21093204617500305,0.7824336886405945,-0.4559400975704193,-9.211275100708008
1745659490.411951,0.08271376043558121,0.06990114599466324,-0.21312983334064484,0.677757978439331,-0.5872684121131897,-10.218234062194824
1745659490.4381866,0.06349580734968185,0.0656217560172081,-0.2151859551668167,0.996974766254425,-0.7931402921676636,-10.033174514770508
1745659490.4393718,0.04351843148469925,0.06546930968761444,-0.21424761414527893,0.5649183988571167,-0.5697022676467896,-9.355901718139648
1745659490.4432292,0.020306682214140892,0.06458325684070587,-0.21508149802684784,0.614478349685669,-0.7357080578804016,-9.184606552124023
1745659490.445924,0.021278491243720055,0.05411859601736069,-0.21929028630256653,0.6172611117362976,-0.2908315062522888,-9.713562965393066
1745659490.481101,0.030163979157805443,0.07199495285749435,-0.2213248908519745,0.4684714376926422,-0.2165001928806305,-10.1382417678833
1745659490.484795,0.042188484221696854,0.04756003990769386,-0.22304508090019226,0.6904308795928955,-0.26965051889419556,-9.755436897277832
1745659490.485072,0.09171348810195923,0.04831903427839279,-0.2112763375043869,-0.3104712963104248,-0.2841610312461853,-9.331059455871582
1745659490.4866877,0.0633750930428505,0.07612979412078857,-0.19427771866321564,0.02999866008758545,-1.0245674848556519,-9.328192710876465
1745659490.4896395,0.04874705150723457,0.02053876593708992,-0.16318544745445251,0.6616826057434082,-1.2692121267318726,-9.67729377746582
1745659490.5236077,0.06846337020397186,0.031704701483249664,-0.16383986175060272,0.13126589357852936,-0.213979572057724,-11.036799430847168
1745659490.5259054,-0.021775012835860252,0.030169595032930374,-0.18720665574073792,-0.4797638952732086,0.03214169666171074,-9.77408504486084
1745659490.530347,-0.006900531239807606,0.021999558433890343,-0.19699114561080933,0.2051813304424286,-0.8143658638000488,-7.84731912612915
1745659490.5312433,-0.03480587154626846,0.0004933401942253113,-0.18996679782867432,1.1891584396362305,-0.02868451550602913,-9.926412582397461
1745659490.5704772,-0.012732608243823051,0.03226463124155998,-0.14734378457069397,0.3638351559638977,-1.0714370012283325,-8.672182083129883
1745659490.5725932,-0.0668010413646698,0.01514697540551424,-0.12573949992656708,0.03405210003256798,-1.1534661054611206,-6.985513210296631
1745659490.5759647,-0.0470077209174633,-0.04675453156232834,-0.11608368158340454,1.4681552648544312,0.8018214106559753,-9.646784782409668
1745659490.5777652,0.003502980573102832,0.006109416484832764,-0.11536164581775665,0.5537430047988892,0.027662545442581177,-13.669334411621094
1745659490.6121864,0.08906500041484833,-0.006315632723271847,-0.10777775198221207,0.17636741697788239,0.6401280164718628,-9.226527214050293
1745659490.6167188,-0.006538363639265299,0.001346886740066111,-0.1079232320189476,0.00414238590747118,-0.9390791654586792,-6.191349983215332
1745659490.6188977,0.031381092965602875,-0.029649939388036728,-0.09053204953670502,0.7596927881240845,-0.8535242080688477,-9.252935409545898
1745659490.6226358,-0.07380320131778717,-0.005267848260700703,-0.07998750358819962,1.5271613597869873,-0.8398405313491821,-12.816268920898438
1745659490.652136,-0.013680982403457165,0.008502776734530926,-0.07407840341329575,0.6395772695541382,-0.5370610952377319,-10.457839012145996
1745659490.658746,-0.06020604819059372,-0.014968357980251312,-0.05890635773539543,1.1065601110458374,-0.4092521071434021,-6.528968811035156
1745659490.6592963,-0.06982365250587463,-0.03787597641348839,-0.05242093652486801,0.8507194519042969,0.14938439428806305,-9.56023120880127
1745659490.6626441,-0.03487176448106766,-0.02810363844037056,-0.04720405489206314,0.9733167886734009,-0.30639275908470154,-12.81852912902832
1745659490.6648526,0.00962925236672163,-0.005354084074497223,-0.04027237743139267,0.1908973753452301,0.4319109320640564,-10.024797439575195
1745659490.6975412,-0.12798818945884705,-0.02536078914999962,0.14491267502307892,0.30651527643203735,-0.034987788647413254,-10.12140941619873
1745659490.7198265,-0.12399830669164658,-0.028755221515893936,0.14707878232002258,0.5510919094085693,-0.02021852508187294,-10.346346855163574
1745659490.7248943,-0.10575444996356964,-0.016897698864340782,0.15150831639766693,0.21371440589427948,0.1630188524723053,-9.648889541625977
1745659490.7293775,-0.08990778028964996,-0.023624423891305923,0.14970263838768005,0.36239680647850037,-0.04652942344546318,-9.293815612792969
1745659490.7405136,-0.10982994735240936,-0.032480448484420776,0.1507689207792282,0.3648533225059509,-0.08866702765226364,-10.029668807983398
1745659490.7429376,-0.10758745670318604,-0.017277248203754425,0.15480336546897888,0.44894343614578247,-0.5455247759819031,-10.46328353881836
1745659490.7465878,-0.13431915640830994,-0.023096630349755287,0.15540656447410583,0.5336518883705139,-0.33339735865592957,-9.661409378051758
1745659490.7466762,-0.1576540768146515,-0.02771655283868313,0.15866799652576447,0.4572177827358246,-0.5428367853164673,-9.354851722717285
1745659490.7841072,-0.17672351002693176,-0.02692745253443718,0.16228723526000977,0.7498323917388916,-0.40875381231307983,-9.93017578125
1745659490.7857025,-0.1818128526210785,-0.021014854311943054,0.16648636758327484,0.38196998834609985,-0.1457051932811737,-10.396695137023926
1745659490.7883437,-0.19135205447673798,-0.018210936337709427,0.17092928290367126,0.5144542455673218,-0.19321808218955994,-9.638533592224121
1745659490.7902467,-0.18073689937591553,-0.02186129428446293,0.17437079548835754,0.3505469858646393,0.1401629000902176,-9.193758010864258
1745659490.8249218,-0.16235670447349548,-0.015130436047911644,0.181867316365242,0.2843729555606842,0.21792931854724884,-9.895593643188477
1745659490.8298297,-0.148024320602417,-0.020781565457582474,0.1792692244052887,0.4645935893058777,0.5110488533973694,-10.195627212524414
1745659490.8321571,-0.11050693690776825,-0.009325584396719933,0.18291954696178436,0.2426362931728363,0.33931195735931396,-9.882784843444824
1745659490.8345046,-0.10806814581155777,-0.013954895548522472,0.18151013553142548,0.47670188546180725,0.2672968804836273,-9.371880531311035
1745659490.8370574,-0.10770460218191147,-0.019898999482393265,0.1829012930393219,0.3818452060222626,-0.03133890777826309,-9.794779777526855
1745659490.8704734,-0.11152491718530655,-0.008851365186274052,0.18681256473064423,0.6383703351020813,-0.3325536251068115,-10.124589920043945
1745659490.8718379,-0.13689513504505157,-0.012387135997414589,0.1918436586856842,0.5073750615119934,-0.3083033263683319,-9.910697937011719
1745659490.8738105,-0.15510950982570648,-0.01269251387566328,0.19742533564567566,0.5613110065460205,-0.49036723375320435,-9.537579536437988
1745659490.8770003,-0.18229074776172638,-0.016314413398504257,0.20250961184501648,0.6528897881507874,-0.23932015895843506,-9.68087100982666
1745659490.9109397,-0.18271902203559875,-0.00699798297137022,0.20379599928855896,0.39558184146881104,-0.04989883676171303,-10.156553268432617
1745659490.9203894,-0.19098713994026184,-0.012239828705787659,0.20540645718574524,0.6164110898971558,0.05827127769589424,-9.851202011108398
1745659490.920525,-0.17952588200569153,-0.012665684334933758,0.208621546626091,0.2994513511657715,0.342506468296051,-9.580779075622559
1745659490.9205887,-0.1708642691373825,-0.008965883404016495,0.20892879366874695,0.3911590576171875,0.22608456015586853,-9.689277648925781
1745659490.9208393,-0.15833240747451782,-0.01700514927506447,0.2143440991640091,0.37117111682891846,0.48985809087753296,-9.926374435424805
1745659490.9547665,-0.13050763309001923,-0.001077993307262659,0.2133246660232544,0.2464609593153,0.3248065114021301,-9.954707145690918
1745659490.9592402,-0.12497027218341827,-0.012969961389899254,0.21214604377746582,0.41565054655075073,0.46224555373191833,-9.469487190246582
1745659490.9608378,-0.11253931373357773,-0.009729346260428429,0.2125415802001953,0.2521679401397705,0.22105780243873596,-9.729233741760254
1745659490.9636846,-0.11706528812646866,-0.009132779203355312,0.2129930704832077,0.502195417881012,0.03237444907426834,-9.944109916687012
1745659490.9984312,-0.12023081630468369,-0.0038000084459781647,0.21567721664905548,0.2571289539337158,-0.1161053329706192,-9.898473739624023
1745659491.0000842,-0.13667447865009308,-0.0035687063354998827,0.21818777918815613,0.4444505274295807,-0.26125067472457886,-9.482087135314941
1745659491.002113,-0.15941445529460907,-0.010466314852237701,0.22375993430614471,0.4118413031101227,-0.1703723520040512,-9.634343147277832
1745659491.004005,-0.16684086620807648,0.0012947081122547388,0.2221117913722992,0.41273659467697144,-0.14306774735450745,-10.03729248046875
1745659491.0069904,-0.18161508440971375,-0.006485777907073498,0.2249007523059845,0.5451977849006653,0.10539744794368744,-9.892797470092773
1745659491.0426965,-0.18272416293621063,-0.005222879350185394,0.22400514781475067,0.21639332175254822,0.09635066986083984,-9.74593448638916
1745659491.0462692,-0.06739052385091782,-0.002423647092655301,0.21826931834220886,0.2558266222476959,-0.8248277902603149,-8.991780281066895
1745659491.0503275,-0.1124412789940834,-0.039871424436569214,0.22055082023143768,0.3036806583404541,0.6642707586288452,-9.544342041015625
1745659491.0515246,-0.16152825951576233,-0.039932262152433395,0.21153955161571503,0.3918381631374359,-0.971039891242981,-11.278244018554688
1745659491.085847,-0.11679055541753769,-0.030756760388612747,0.20974865555763245,0.11977334320545197,0.5921043157577515,-9.685537338256836
1745659491.089031,-0.19915711879730225,-0.03479130566120148,0.19678139686584473,-0.1529121696949005,0.34969568252563477,-8.772970199584961
1745659491.0935283,-0.20055313408374786,-0.06579719483852386,0.19135424494743347,0.19403702020645142,0.27204543352127075,-9.453537940979004
1745659491.0972705,-0.17502930760383606,-0.04118996486067772,0.18293693661689758,-0.19198603928089142,1.2250124216079712,-10.745274543762207
1745659491.1294725,-0.15789678692817688,-0.03250245377421379,0.17662778496742249,0.07893717288970947,0.979344367980957,-9.987142562866211
1745659491.130762,-0.11839231103658676,-0.0535438135266304,0.17405569553375244,0.14458946883678436,1.4374150037765503,-8.810393333435059
1745659491.1346962,-0.05555076524615288,-0.06299608945846558,0.17162838578224182,0.3410041034221649,1.0577147006988525,-9.864198684692383
1745659491.1388984,-0.023046521469950676,-0.05666768550872803,0.17437942326068878,0.11555410921573639,1.143555998802185,-10.758932113647461
1745659491.141033,0.02077997848391533,-0.04732260853052139,0.1737860143184662,-0.1478775590658188,0.671062171459198,-9.896675109863281
1745659491.171764,0.026785066351294518,-0.05449491739273071,0.17611083388328552,0.006877030245959759,0.44761228561401367,-8.719892501831055
1745659491.1730652,0.013841154985129833,-0.06499277055263519,0.17205926775932312,-0.12023170292377472,0.4204036295413971,-9.62080192565918
1745659491.1746202,-0.00836093258112669,-0.05383281782269478,0.16071006655693054,0.1621970534324646,0.011759702116250992,-10.729768753051758
1745659491.1791887,-0.04417143017053604,-0.05390191823244095,0.14515411853790283,-0.00919815432280302,0.27223020792007446,-9.985804557800293
1745659491.2130666,-0.07389828562736511,-0.05172308161854744,0.14026106894016266,0.43954911828041077,-0.2655583322048187,-8.903802871704102
1745659491.214828,-0.12150835990905762,-0.07041977345943451,0.14009971916675568,0.30124038457870483,-0.07728923857212067,-9.683972358703613
1745659491.218907,-0.09751762449741364,-0.042604003101587296,0.1521240770816803,0.14519181847572327,-0.08195741474628448,-10.544330596923828
1745659491.2213035,-0.1012454628944397,-0.05885462090373039,0.15807802975177765,0.06824404001235962,0.20243677496910095,-9.707351684570312
1745659491.223376,-0.09986676275730133,-0.04287300631403923,0.16278842091560364,-0.29188066720962524,0.5181154608726501,-9.252599716186523
1745659491.2559183,-0.08262920379638672,-0.0743839293718338,0.15772727131843567,-0.24618461728096008,0.9323378801345825,-9.806344985961914
1745659491.2581754,-0.07136010378599167,-0.04384087771177292,0.14746986329555511,-0.48496347665786743,1.2696917057037354,-10.284915924072266
1745659491.258697,-0.02277500368654728,-0.03156951442360878,0.13170906901359558,0.007733345031738281,1.4698264598846436,-9.455728530883789
1745659491.2616756,-0.0535217709839344,-0.0743979886174202,0.12115639448165894,0.6828247904777527,0.5308926701545715,-9.302894592285156
1745659491.2992978,0.014363822527229786,-0.053586579859256744,0.11990046501159668,0.6976613998413086,0.9221831560134888,-10.426775932312012
1745659491.3004243,-0.04790308699011803,-0.07045601308345795,0.12621363997459412,0.30035170912742615,-0.07743044197559357,-10.828944206237793
1745659491.3019145,0.03804268687963486,-0.03924974054098129,0.13465441763401031,0.44738465547561646,0.16357579827308655,-8.943750381469727
1745659491.3045838,-0.03159510716795921,-0.05948048084974289,0.13994966447353363,0.417093425989151,0.4646790623664856,-9.07597541809082
1745659491.3050272,0.004049786366522312,-0.07953958958387375,0.13351108133792877,0.09672501683235168,0.6677393317222595,-10.711966514587402
1745659491.343911,0.04194187372922897,-0.03026328608393669,0.1189892441034317,-0.09608019888401031,1.5512192249298096,-10.43583869934082
1745659491.344829,0.022081594914197922,-0.05455624312162399,0.10187135636806488,-0.3069983422756195,0.592136561870575,-8.981119155883789
1745659491.3470461,0.05407414957880974,-0.04748114198446274,0.0938945859670639,0.21659204363822937,0.480675607919693,-8.729452133178711
1745659491.3489976,-0.016932856291532516,-0.050016433000564575,0.09177068620920181,0.21712128818035126,-0.28747281432151794,-10.87975025177002
1745659491.3869967,0.032073356211185455,-0.031653858721256256,0.09973271191120148,0.19626237452030182,-0.14657659828662872,-10.616217613220215
1745659491.3907914,-0.040131159126758575,-0.01794683374464512,0.10608959197998047,0.5152024030685425,-0.22859224677085876,-8.802531242370605
1745659491.396924,0.13798245787620544,0.0654078796505928,-0.09075106680393219,0.7442953586578369,-0.06211455911397934,-10.203459739685059
1745659491.4021363,0.16086110472679138,0.07344136387109756,-0.09486361593008041,0.4684458374977112,0.6143994331359863,-9.681657791137695
1745659491.4323907,0.15309983491897583,0.07095961272716522,-0.09770574420690536,0.6051092743873596,0.1771862804889679,-9.45376968383789
1745659491.436079,0.17645958065986633,0.06717556715011597,-0.0987219586968422,0.5079754590988159,0.4293767809867859,-9.726655960083008
1745659491.437529,0.1788802444934845,0.07738610357046127,-0.10638707876205444,0.5209851264953613,0.38774383068084717,-9.995701789855957
1745659491.4386218,0.1822797954082489,0.06735865026712418,-0.110501229763031,0.521443247795105,0.31106802821159363,-9.707983016967773
1745659491.471373,0.18790188431739807,0.0752890557050705,-0.11625553667545319,0.28389811515808105,0.5151379704475403,-9.630829811096191
1745659491.4801054,0.19323177635669708,0.06634651869535446,-0.12129576504230499,0.6296259164810181,-0.015566314570605755,-9.737543106079102
1745659491.484687,0.18768398463726044,0.07336845248937607,-0.12722331285476685,0.49640971422195435,0.3233760893344879,-9.89732837677002
