timestamp,angular_vel_x,angular_vel_y,angular_vel_z,linear_acc_x,linear_acc_y,linear_acc_z
1745728927.0320752,0.006920143961906433,-0.0007808344671502709,0.002940884092822671,0.09184931218624115,0.3085399270057678,-9.775845527648926
1745728927.0321374,-0.0014925814466550946,0.0010829807724803686,-0.0008866345742717385,0.24675710499286652,0.09234462678432465,-9.818577766418457
1745728927.1688397,0.004660513252019882,-0.0017272364348173141,0.0020722399931401014,0.1124763935804367,0.34453561902046204,-9.784611701965332
1745728927.1695752,0.003395751817151904,0.001928756944835186,0.00031924614449962974,0.22518333792686462,0.11809542030096054,-9.773615837097168
1745728927.1815264,-0.0012056513223797083,-0.0030198069289326668,0.0016146659618243575,0.15697027742862701,0.30926600098609924,-9.770325660705566
1745728927.1816583,0.006915692239999771,0.0013966045808047056,-0.0012649657437577844,0.17134225368499756,0.16279292106628418,-9.821967124938965
1745728927.1819797,-0.0021844860166311264,-0.0009682314703240991,-1.1270924460404785e-06,0.2307678461074829,0.21811266243457794,-9.767515182495117
1745728927.182067,0.000867847993504256,0.001767278416082263,0.0018615784356370568,0.2410828322172165,0.10506901890039444,-9.79170036315918
1745728927.1822333,0.0011072069173678756,-0.000946964486502111,0.0007181772380135953,0.13231590390205383,0.33457502722740173,-9.773431777954102
1745728927.1822913,0.006280557718127966,0.001556992530822754,6.191628926899284e-05,0.19976761937141418,0.1318790465593338,-9.817377090454102
1745728927.1823962,-0.0001344224438071251,-0.0038406599778681993,-0.0006199051858857274,0.19850890338420868,0.26035618782043457,-9.785521507263184
1745728927.1824255,0.006536315195262432,0.001755683682858944,0.001900071045383811,0.13835135102272034,0.2091987133026123,-9.774249076843262
1745728927.182495,-0.0028824873734265566,0.0004919202765449882,0.00018912793893832713,0.23737910389900208,0.19629451632499695,-9.774656295776367
1745728927.18258,0.006388330366462469,0.00026866784901358187,0.00044809497194364667,0.1064356341958046,0.29429370164871216,-9.804489135742188
1745728927.1826208,-0.0024507108610123396,-9.260731894755736e-05,0.0008420749800279737,0.2652292847633362,0.1257171928882599,-9.758914947509766
1745728927.1889098,0.004811231046915054,-0.0005680828471668065,-0.00044786400394514203,0.11528438329696655,0.32597872614860535,-9.745796203613281
1745728927.1891334,0.001636018743738532,-0.0007072868174873292,0.0010075133759528399,0.2500578463077545,0.09868261963129044,-9.77863883972168
1745728927.1891997,0.0012000292772427201,-0.001245836727321148,-3.190322240698151e-05,0.13932593166828156,0.3430529832839966,-9.787285804748535
1745728927.1985588,0.005975710693746805,-0.00011825920228147879,-0.00016663150745444,0.17317236959934235,0.1514093577861786,-9.784330368041992
1745728927.23238,-0.00297875190153718,-0.0026133109349757433,0.001284220372326672,0.21792535483837128,0.2232072353363037,-9.760774612426758
1745728927.2327158,0.0075278691947460175,0.0011051982874050736,-0.00013130996376276016,0.1284477412700653,0.20770373940467834,-9.78538703918457
1745728927.232758,-0.0027993423864245415,-0.0025032558478415012,0.00015346150030381978,0.26042070984840393,0.1980256736278534,-9.791804313659668
1745728927.2371392,0.00875762477517128,0.0007919641211628914,-0.0002488012542016804,0.08654556423425674,0.3038499653339386,-9.782938957214355
1745728927.2372174,-0.0028074276633560658,-0.0006607844261452556,0.00063161930302158,0.26999133825302124,0.13691537082195282,-9.781930923461914
1745728927.2535913,0.0051257191225886345,-0.0026987481396645308,0.0008602381567470729,0.11585547775030136,0.36364978551864624,-9.786972045898438
1745728927.2543147,0.002430768683552742,0.0028170021250844,0.00020118951215408742,0.2308979332447052,0.10944026708602905,-9.79041576385498
1745728927.256403,-4.5623350160894915e-05,-0.003741298336535692,0.0007251921342685819,0.16276122629642487,0.30462878942489624,-9.750181198120117
1745728927.2618783,0.006171870976686478,0.003123293165117502,0.0009637715993449092,0.16042616963386536,0.17347051203250885,-9.79283332824707
1745728927.273044,-0.002121053170412779,-0.0036757837515324354,-5.679409878212027e-05,0.22297921776771545,0.21562440693378448,-9.799943923950195
1745728927.4657483,0.007003242615610361,-0.0006239193608053029,-0.00017002958338707685,0.12316061556339264,0.26595479249954224,-9.796499252319336
1745728927.465818,-0.0019161647651344538,-0.0020966720767319202,0.0005452980985864997,0.24295397102832794,0.16966243088245392,-9.764116287231445
1745728927.4658582,0.005065693520009518,-0.0012418178375810385,0.0019406430656090379,0.0924033373594284,0.316694438457489,-9.770170211791992
1745728927.4659529,0.0003693684993777424,0.0013068856205791235,0.0012620138004422188,0.2599044144153595,0.1138860210776329,-9.799914360046387
1745728927.4661112,0.003456579055637121,-0.002271550940349698,0.00017330076661892235,0.11456160247325897,0.34882259368896484,-9.787178993225098
1745728927.4662194,0.003828247543424368,2.349168062210083e-05,0.0010039204498752952,0.19225113093852997,0.13682860136032104,-9.781495094299316
1745728927.4662926,-0.0009080080199055374,-0.0020609465427696705,-3.920658491551876e-05,0.1921652853488922,0.2780011296272278,-9.770223617553711
1745728927.4663446,0.006130140274763107,0.000841966480948031,0.0019883126951754093,0.14698588848114014,0.19898764789104462,-9.783684730529785
1745728927.4670618,-0.002742727054283023,-0.0025368158239871264,0.00030582951148971915,0.2348158359527588,0.2011299431324005,-9.767544746398926
1745728927.4671512,0.008124767802655697,-0.00013977536582387984,0.0006058170692995191,0.07749782502651215,0.3168781101703644,-9.787818908691406
1745728927.4672668,-0.002424452919512987,-0.0013356218114495277,0.0007660563569515944,0.2590565085411072,0.11962048709392548,-9.793416023254395
1745728927.4673944,0.005060503259301186,-0.002207557437941432,0.00046236332855187356,0.09521369636058807,0.3396300673484802,-9.756346702575684
1745728927.4674733,0.0020473203621804714,-0.0006844181334599853,0.0011070198379456997,0.25207823514938354,0.10351122915744781,-9.792536735534668
1745728927.4676006,-0.00044928397983312607,-0.0024893730878829956,0.00220283679664135,0.1559670865535736,0.319433331489563,-9.773508071899414
1745728927.4677284,0.008279836736619473,0.0007350159576162696,1.2576439985423349e-05,0.11883221566677094,0.23482155799865723,-9.81484317779541
1745728927.4677799,-0.0022848753724247217,-0.0025787162594497204,0.0005662384210154414,0.2614007890224457,0.16161474585533142,-9.801841735839844
1745728927.467818,0.0054129185155034065,-0.0015016562538221478,0.002335641300305724,0.08504249155521393,0.32015472650527954,-9.779851913452148
1745728927.4694285,0.00039886945160105824,0.0008236551657319069,-8.650498784845695e-05,0.25120067596435547,0.10695366561412811,-9.776352882385254
1745728927.470314,0.0016811054665595293,-0.00279510160908103,0.0005586063489317894,0.13333599269390106,0.32636839151382446,-9.782543182373047
1745728927.4813318,0.0027882701251655817,0.0009296283824369311,-0.00037354714004322886,0.2030024528503418,0.14031794667243958,-9.814838409423828
1745728927.4813888,-0.002178382594138384,-0.004275529645383358,0.0012267150450497866,0.18424555659294128,0.28365248441696167,-9.777236938476562
1745728927.5122898,0.007904177531599998,-0.0007284431485459208,0.0006086105713620782,0.1311480551958084,0.21290871500968933,-9.766554832458496
1745728927.5123677,-0.002277557272464037,-0.002814004896208644,-0.0002817632630467415,0.25033754110336304,0.17381322383880615,-9.793055534362793
1745728927.5129008,0.007505737245082855,-9.176693856716156e-05,0.001022775424644351,0.09903166443109512,0.3003655970096588,-9.795191764831543
1745728927.5129466,-0.0013422025367617607,-0.0036375082563608885,0.00026365945814177394,0.2602141797542572,0.11663512140512466,-9.765297889709473
1745728927.5207264,0.0036461236886680126,-0.0005961499991826713,0.0014578462578356266,0.11027928441762924,0.34136438369750977,-9.78036880493164
1745728927.5501177,0.0038499869406223297,-0.0005594943650066853,0.0009934395784512162,0.22087769210338593,0.1127646416425705,-9.81944465637207
1745728927.5531282,0.008322407491505146,0.0005612900713458657,0.0006140407640486956,0.09742345660924911,0.27664753794670105,-9.796782493591309
1745728927.5559075,-0.002658048179000616,-0.0036739218048751354,0.001663360744714737,0.25740984082221985,0.14922139048576355,-9.78023910522461
1745728927.5598006,0.004878751002252102,-0.00185676128603518,-0.0001838114985730499,0.10799934715032578,0.3322005867958069,-9.786138534545898
1745728927.593073,0.002524371724575758,-0.0008867626893334091,0.0008311920100823045,0.24119457602500916,0.1216789036989212,-9.787576675415039
1745728927.6008644,-0.00028909434331580997,-0.0038539343513548374,0.0022794941905885935,0.13366571068763733,0.33815664052963257,-9.766925811767578
1745728927.6054606,0.006425940897315741,0.0025924169458448887,0.001990529941394925,0.18295900523662567,0.14817747473716736,-9.801506996154785
1745728927.6069705,-0.0034964766819030046,-0.0035208568442612886,0.0015618910547345877,0.21952788531780243,0.22696933150291443,-9.773694038391113
1745728927.6365685,0.007793991360813379,-7.143426046241075e-05,0.001991886179894209,0.10294757038354874,0.29431551694869995,-9.77199935913086
1745728927.63813,-0.0027545017655938864,-0.001168740214779973,0.00042073335498571396,0.27173274755477905,0.1551194041967392,-9.779321670532227
1745728927.6392243,0.0051405346021056175,-0.0007194061763584614,0.0018612779676914215,0.10152611881494522,0.32185181975364685,-9.791911125183105
1745728927.6427653,0.0005844277329742908,0.0010443401988595724,0.0010844551725313067,0.24692681431770325,0.1206362247467041,-9.789928436279297
1745728927.6551378,0.0006816255627200007,-0.002950511407107115,0.0008078133687376976,0.1268787831068039,0.32658061385154724,-9.786466598510742
1745728927.6805005,0.0034292396157979965,0.0005685728974640369,4.744872057926841e-05,0.18982617557048798,0.15208269655704498,-9.793340682983398
1745728927.6806023,-0.0009520805324427783,-0.0028435189742594957,0.0012397130485624075,0.19303293526172638,0.2785297930240631,-9.767072677612305
1745728927.6816142,0.006942984648048878,0.001245856867171824,0.0012426460161805153,0.13027849793434143,0.2070547640323639,-9.796795845031738
1745728927.6843626,-0.0024337959475815296,-0.0036389294546097517,-0.0005456822691485286,0.2367275506258011,0.18059611320495605,-9.806146621704102
1745728927.723214,0.005327396560460329,0.0025247372686862946,0.0018635320011526346,0.09549396485090256,0.3017009198665619,-9.784177780151367
1745728927.7251937,-0.0005560423014685512,-0.00013857311569154263,0.0014277624431997538,0.2609684467315674,0.12072020769119263,-9.800644874572754
1745728927.72691,0.003188821952790022,-0.0020929647143930197,0.0017452994361519814,0.0987621545791626,0.34324994683265686,-9.769614219665527
1745728927.7340453,0.0026337499730288982,0.0009169228142127395,-5.481857897393638e-06,0.2303549349308014,0.12250814586877823,-9.797294616699219
1745728927.7672732,0.00022267713211476803,-0.00047409581020474434,0.0010076474864035845,0.17374570667743683,0.2942911684513092,-9.7859468460083
1745728927.7687523,0.006085404194891453,0.0006230141734704375,0.0008125308086164296,0.15205419063568115,0.20993229746818542,-9.792905807495117
1745728927.7701523,-0.004047064110636711,-0.001588672399520874,0.0012225016253069043,0.2342853993177414,0.20062284171581268,-9.783618927001953
1745728927.7721195,0.008060762658715248,0.0012910395162180066,-0.0006512195686809719,0.10495705902576447,0.28909701108932495,-9.80412483215332
1745728927.7747858,-0.002202023984864354,-0.0012292093597352505,0.002630851697176695,0.2634088099002838,0.16053631901741028,-9.779314041137695
1745728927.8119726,0.004178783856332302,-0.0012183457147330046,0.00021623782231472433,0.09060312807559967,0.3276751637458801,-9.779878616333008
1745728927.8133044,0.0017753068823367357,0.0009867592016234994,0.0016596702625975013,0.22869423031806946,0.10452757030725479,-9.776153564453125
1745728927.8165815,0.0005626074853353202,-0.0026092000771313906,0.0004353503754828125,0.1451863944530487,0.3168407678604126,-9.794100761413574
1745728927.8197548,0.005798636935651302,0.0025997175835072994,0.0023422599770128727,0.18408842384815216,0.1577860563993454,-9.804141998291016
1745728927.8521802,-0.002041369676589966,-0.0036608565133064985,-0.0010557454079389572,0.21440020203590393,0.25615909695625305,-9.756752014160156
1745728927.8539946,0.006686293985694647,0.001934950822032988,-0.00020045507699251175,0.11123128980398178,0.236031174659729,-9.777395248413086
1745728927.8547637,-0.0021633622236549854,-0.0013999149668961763,0.0027317614294588566,0.26511919498443604,0.16539253294467926,-9.804481506347656
1745728927.8578932,0.006098276935517788,-0.0014295137953013182,-0.0008222769247367978,0.08953948318958282,0.3388517498970032,-9.794547080993652
1745728927.8588028,0.0005463092820718884,0.0016117282211780548,0.00119641178753227,0.2609514594078064,0.11089525371789932,-9.787120819091797
1745728927.8943949,0.0012857482070103288,-0.002179753500968218,0.0007904597441665828,0.11449082940816879,0.3316202461719513,-9.786161422729492
1745728927.8968425,0.004626906011253595,0.0007575337076559663,0.0006072782562114298,0.19561125338077545,0.1381799280643463,-9.780412673950195
1745728927.8997686,-0.00225857924669981,-0.0028467257507145405,0.00048725990927778184,0.25515878200531006,0.13706716895103455,-9.772395133972168
1745728927.9066987,0.004766242112964392,-0.0007987480494193733,0.000954471412114799,0.09906714409589767,0.30324751138687134,-9.78228759765625
1745728927.9383264,0.0016765076434239745,0.0010809020604938269,0.0011094313813373446,0.2541660666465759,0.11168663203716278,-9.804224014282227
1745728927.9397528,0.0002560502034612,-0.0028409098740667105,0.00034258674713782966,0.13668686151504517,0.3187456727027893,-9.758334159851074
1745728927.9407673,0.005361348390579224,0.001257793977856636,0.0016270620981231332,0.1903863549232483,0.1276169717311859,-9.776952743530273
1745728927.9430904,-0.002116340445354581,-0.0036548215430229902,-0.00020345300436019897,0.19925835728645325,0.2713358998298645,-9.794017791748047
1745728927.9802492,0.007778097875416279,0.0021048402413725853,0.0014048733282834291,0.12973949313163757,0.22258877754211426,-9.78193473815918
1745728927.9813995,-0.001701784087345004,-0.0022035378497093916,2.6555097065283917e-05,0.2637200951576233,0.15470996499061584,-9.735086441040039
1745728927.982608,0.006904665380716324,0.00020087268785573542,0.0011172418016940355,0.09151986986398697,0.34131568670272827,-9.797255516052246
1745728927.9844596,-0.0018022041767835617,-0.0006951797986403108,0.00037005735794082284,0.2572416365146637,0.12346786260604858,-9.802087783813477
1745728928.0224547,0.0023580328561365604,-0.0024587041698396206,0.002062002196907997,0.11598245054483414,0.3261314332485199,-9.763188362121582
1745728928.0242827,0.005683411844074726,0.0017795900348573923,0.0017759337788447738,0.21835286915302277,0.14280231297016144,-9.781405448913574
1745728928.0263422,-0.0017994571244344115,-0.003307390958070755,0.002216473687440157,0.18561632931232452,0.2938864529132843,-9.783185958862305
1745728928.0272532,0.008118954487144947,0.0020896580535918474,0.0003441786393523216,0.129630446434021,0.20772531628608704,-9.801973342895508
1745728928.030006,-0.0028408910147845745,-0.0028498731553554535,0.0005477467202581465,0.23028047382831573,0.21430587768554688,-9.777305603027344
1745728928.0689201,0.006002153269946575,0.0002942212740890682,0.0025452531408518553,0.11165076494216919,0.2772538661956787,-9.767105102539062
1745728928.07426,0.0009557449957355857,-0.00105245818849653,0.00018889395869337022,0.27725833654403687,0.1413939893245697,-9.791772842407227
1745728928.0743463,0.0033237270545214415,-0.0017275072168558836,0.0022365194745361805,0.10860476642847061,0.33403921127319336,-9.790979385375977
1745728928.0743928,0.0014411935117095709,0.0005409931764006615,-0.0005641171592287719,0.22467832267284393,0.13867779076099396,-9.792339324951172
1745728928.1098976,-0.0005907550221309066,-0.0032304979395121336,0.0007771666860207915,0.16367611289024353,0.33219367265701294,-9.772967338562012
1745728928.1121814,0.005487929098308086,0.002078996505588293,0.001152321812696755,0.16710884869098663,0.16728444397449493,-9.802103042602539
1745728928.1149411,-0.0022316784597933292,-0.004961048718541861,-0.00022816676937509328,0.24610570073127747,0.23191770911216736,-9.765081405639648
1745728928.1161032,0.007087123580276966,0.0027646697126328945,0.001890028128400445,0.11115214973688126,0.27150532603263855,-9.783090591430664
1745728928.1529026,0.00034669338492676616,0.0008770594140514731,-0.0005529489717446268,0.24793735146522522,0.1019122377038002,-9.788249015808105
1745728928.1535194,0.0018867760663852096,-0.0034283301793038845,0.00217222748324275,0.14105336368083954,0.3170233368873596,-9.771188735961914
1745728928.157478,0.004642480984330177,0.0010845235083252192,0.0012006068136543036,0.17156019806861877,0.16262488067150116,-9.78394889831543
1745728928.1593149,-0.0009827845497056842,-0.003706190036609769,0.001616389723494649,0.21402470767498016,0.27150270342826843,-9.783291816711426
1745728928.1605756,0.00831618718802929,0.0015276990598067641,-0.000881304033100605,0.12906613945960999,0.24018803238868713,-9.786930084228516
1745728928.1957598,-0.003635931760072708,-0.0015345702413469553,0.001315113389864564,0.26851940155029297,0.1890643835067749,-9.759492874145508
1745728928.1978827,0.0063753253780305386,-0.0024788985028862953,0.0009675094624981284,0.09930827468633652,0.31434425711631775,-9.763131141662598
1745728928.200034,0.00020644794858526438,-0.0012324415147304535,0.0015299029182642698,0.26274898648262024,0.11687535047531128,-9.803194046020508
1745728928.2049625,0.0018248918931931257,-0.0014903685078024864,0.000601085543166846,0.11119744926691055,0.3381652235984802,-9.79526138305664
1745728928.2395864,0.004839375615119934,0.0015072216046974063,0.001138880499638617,0.20559649169445038,0.12455214560031891,-9.784052848815918
1745728928.2401652,-0.002754887333139777,-0.0025482582859694958,0.0012756215874105692,0.18095941841602325,0.28583282232284546,-9.759194374084473
1745728928.2448301,0.010925604030489922,0.0008486763690598309,0.0010003617499023676,0.13442754745483398,0.2309931516647339,-9.798022270202637
1745728928.2478707,-0.003972822800278664,-0.0032350104302167892,0.0011685790959745646,0.2395590841770172,0.19072291254997253,-9.783926010131836
1745728928.2812264,0.0003216564655303955,-0.0007829427486285567,0.0011001931270584464,0.24199418723583221,0.11182089149951935,-9.790189743041992
1745728928.2815506,0.00016494774899911135,-0.0031547665130347013,-0.0003747549490071833,0.13852745294570923,0.31849145889282227,-9.76485824584961
1745728928.2837214,0.00585931446403265,0.001779461046680808,-8.655037527205423e-05,0.19736754894256592,0.14761286973953247,-9.796142578125
1745728928.2870464,-0.00325293792411685,-0.003923633135855198,0.0010208559688180685,0.20057158172130585,0.24816472828388214,-9.793144226074219
1745728928.2893627,0.009015829302370548,0.00041361936018802226,0.0006637268234044313,0.1103234514594078,0.23909370601177216,-9.8035306930542
1745728928.3261082,-0.003768616821616888,-0.002806690987199545,0.0006977518787607551,0.2542491853237152,0.1692701280117035,-9.774561882019043
1745728928.3268893,0.007604820188134909,0.0005543657462112606,0.001880576484836638,0.09910198301076889,0.29459255933761597,-9.802679061889648
1745728928.3367646,-0.0012516062706708908,-0.0012553869746625423,0.0016899777110666037,0.26304560899734497,0.124258853495121,-9.786203384399414
1745728928.3369188,0.0037249871529638767,-0.0021982428152114153,-0.0008660309249535203,0.11285046488046646,0.3294326066970825,-9.757683753967285
1745728928.3675532,0.0027094981633126736,0.0014381270157173276,0.0022767861373722553,0.20790047943592072,0.13439543545246124,-9.789837837219238
1745728928.3691545,-0.0006283748080022633,-0.0037637855857610703,0.0006460552103817463,0.15557517111301422,0.31084775924682617,-9.78154468536377
1745728928.3697453,0.006418058183044195,0.0025445979554206133,0.0016758122947067022,0.13887540996074677,0.19144807755947113,-9.79448127746582
1745728928.3725057,-0.003580180462449789,-0.003242416772991419,0.001019865507259965,0.24234871566295624,0.21183304488658905,-9.791933059692383
1745728928.3755462,0.007351703010499477,0.0012990505201742053,0.0015557518927380443,0.07872533798217773,0.3042174279689789,-9.807572364807129
1745728928.4122531,-0.0016812667017802596,0.0008493816712871194,0.00036226032534614205,0.26027417182922363,0.13409990072250366,-9.773859024047852
1745728928.4146063,0.004477153532207012,-0.003035863395780325,0.0016512961592525244,0.11015433073043823,0.3412898778915405,-9.778467178344727
1745728928.4173439,0.003444146830588579,0.0011959007242694497,0.0011766429524868727,0.23250779509544373,0.12034585326910019,-9.800298690795898
1745728928.4186258,0.0002803357201628387,-0.0017922811675816774,0.001431828597560525,0.14489664137363434,0.31121015548706055,-9.781914710998535
1745728928.454829,0.006549096200615168,0.002458286937326193,-0.0006972345290705562,0.16546787321567535,0.1634015291929245,-9.79128646850586
1745728928.455671,-0.005005721468478441,-0.0022845296189188957,0.0020337209571152925,0.2109622061252594,0.2592454254627228,-9.78420639038086
1745728928.4572256,0.007174222264438868,0.0011074369540438056,0.0013740332797169685,0.11818645894527435,0.2366933822631836,-9.778945922851562
1745728928.4586,-0.0019953101873397827,-0.002085698302835226,0.0011768946424126625,0.25666943192481995,0.1564890444278717,-9.758295059204102
1745728928.4596572,0.004460149444639683,0.000512006226927042,0.0011061502154916525,0.09532256424427032,0.33214128017425537,-9.79368782043457
1745728928.5034566,0.005425976123660803,0.0019336672266945243,0.0023027549032121897,0.21960046887397766,0.14316996932029724,-9.774792671203613
1745728928.503495,-0.0007030600681900978,-0.0024498021230101585,0.0008654138073325157,0.18635255098342896,0.2909337878227234,-9.775325775146484
1745728928.5060487,0.007132715079933405,0.0022630600724369287,0.0008872972684912384,0.11991146951913834,0.2273174226284027,-9.808571815490723
1745728928.5098162,-0.0029804264195263386,-0.0010607041185721755,0.0026924617122858763,0.24882376194000244,0.1928357183933258,-9.788591384887695
1745728928.541477,0.00628152210265398,0.0018848665058612823,0.00024147648946382105,0.09768686443567276,0.28939947485923767,-9.78946590423584
1745728928.5428228,-0.001183462212793529,-0.0012251760344952345,0.00244347145780921,0.2631271481513977,0.10747017711400986,-9.777204513549805
1745728928.543369,0.002945431275293231,0.0009841148275882006,0.0007180605316534638,0.10952547937631607,0.3406296372413635,-9.785680770874023
1745728928.5448372,0.0034047525841742754,0.0018594444263726473,-0.0005846103886142373,0.2282315194606781,0.12742319703102112,-9.823030471801758
1745728928.582952,0.0005495272343978286,-0.001562451128847897,0.0008475568029098213,0.15642353892326355,0.3037557303905487,-9.755949974060059
1745728928.5848584,0.005397095810621977,0.002327615162357688,0.001312220236286521,0.13706615567207336,0.1968155801296234,-9.761198997497559
1745728928.5858922,-0.002199114765971899,-0.0017077202210202813,0.0011877587530761957,0.23912188410758972,0.2281508445739746,-9.791964530944824
1745728928.5971887,0.00646193977445364,0.001077601918950677,0.000257987150689587,0.10349303483963013,0.2605847716331482,-9.83146858215332
1745728928.625175,-0.0019226495642215014,0.0002978289849124849,-0.00013242839486338198,0.257362425327301,0.15146268904209137,-9.773223876953125
1745728928.6268997,-0.0312715582549572,-0.027725160121917725,0.007712624967098236,-0.11508135497570038,0.5497288107872009,-9.263459205627441
1745728928.6277623,-0.011806605383753777,0.01610279269516468,0.000722001597750932,0.08933131396770477,0.7371408939361572,-10.433846473693848
1745728928.628852,-0.016301771625876427,0.022564738988876343,0.009266932494938374,0.42285457253456116,0.2307029664516449,-10.13841438293457
1745728928.644285,-0.021259337663650513,-0.010313962586224079,0.01021890714764595,0.2893202304840088,0.12229374796152115,-9.303494453430176
1745728928.6695821,-0.010293206200003624,0.008722797967493534,0.017672602087259293,0.11316736787557602,-0.06671194732189178,-9.33072566986084
1745728928.671212,-0.032537706196308136,0.022744376212358475,0.025396382436156273,0.34407752752304077,0.12605591118335724,-10.109146118164062
1745728928.6739883,-0.018963491544127464,0.013144810684025288,0.03363427519798279,0.3869025707244873,0.08075571060180664,-9.978036880493164
1745728928.6759467,-0.031829286366701126,0.017486538738012314,0.03942630812525749,0.5311831831932068,0.11376098543405533,-9.378705024719238
1745728928.7142558,-0.02770456299185753,0.00797257199883461,0.04211140424013138,0.4551614820957184,0.5385861396789551,-9.782003402709961
1745728928.7163174,-0.04295830801129341,0.0076988996006548405,0.04358579218387604,0.2990272343158722,0.011407459154725075,-10.335582733154297
1745728928.718916,-0.03539630025625229,0.02464471198618412,0.04433064162731171,-0.03705386072397232,0.2727352976799011,-9.54576587677002
1745728928.7213452,-0.06792659312486649,0.031587354838848114,0.04660451039671898,0.28443026542663574,0.22282329201698303,-9.034317970275879
1745728928.7306938,-0.05353820323944092,-0.0008197296410799026,0.045503608882427216,0.854099452495575,0.712757408618927,-9.79214096069336
1745728928.758478,-0.027008388191461563,0.00048038046224974096,0.03701653704047203,0.2587898373603821,1.4474774599075317,-10.98796558380127
1745728928.759969,0.016222355887293816,0.014343437738716602,0.02963171899318695,0.45089179277420044,0.8822944760322571,-10.256863594055176
1745728928.7625718,0.04587271064519882,-0.0011911408510059118,0.026081349700689316,0.0873238667845726,1.306229591369629,-8.849112510681152
1745728928.7628884,0.060215629637241364,-0.0015298118814826012,0.023901287466287613,0.00453158188611269,-0.1214834600687027,-9.375292778015137
1745728928.8101392,0.03406032174825668,0.014391584321856499,0.034201860427856445,0.3758491277694702,0.023479605093598366,-10.04869556427002
1745728928.810308,0.03147478029131889,0.026221856474876404,0.04500707983970642,0.22988399863243103,-0.42865052819252014,-9.895118713378906
1745728928.8104064,-0.002350516151636839,0.013472075574100018,0.049417365342378616,0.3840230107307434,-0.19555573165416718,-9.091395378112793
1745728928.8105042,-0.017360812053084373,0.014159204438328743,0.04850148409605026,0.3837183117866516,0.172496035695076,-9.742291450500488
1745728928.8122168,-0.02540091797709465,0.030264606699347496,0.04809119552373886,0.5406425595283508,0.06269042938947678,-10.565351486206055
1745728928.8431342,-0.02429475635290146,0.025704720988869667,0.0485624298453331,0.18558426201343536,0.4734078347682953,-9.848762512207031
1745728928.8478696,-0.09033425897359848,0.037258073687553406,0.07981235533952713,0.8288402557373047,-0.8587250709533691,-10.248316764831543
1745728928.851175,-0.12130457162857056,0.03298201039433479,0.09497906267642975,0.9381359219551086,-0.48336607217788696,-10.492050170898438
1745728928.8524778,-0.14008818566799164,0.06374523043632507,0.11053259670734406,0.7172142267227173,-0.243974968791008,-9.603604316711426
1745728928.885255,-0.18783694505691528,0.052072979509830475,0.11899220943450928,1.008536696434021,0.14743037521839142,-9.003382682800293
1745728928.8872263,-0.1713874787092209,0.03378000855445862,0.11663476377725601,1.0168787240982056,0.8717001676559448,-9.728403091430664
1745728928.8912337,-0.1456969976425171,0.051479171961545944,0.11897587776184082,1.02041757106781,0.8755276799201965,-10.623917579650879
1745728928.89648,-0.12668558955192566,0.06831379979848862,0.12329892069101334,0.2864152789115906,1.192131757736206,-9.841496467590332
1745728928.9290078,-0.08021087199449539,0.06396064907312393,0.13350000977516174,0.41202759742736816,0.5228822827339172,-8.604668617248535
1745728928.9304273,-0.07545267045497894,0.057567983865737915,0.145909383893013,0.7429475784301758,0.8993636965751648,-9.401917457580566
1745728928.9327664,-0.04783974960446358,0.07792091369628906,0.15132592618465424,0.4495771527290344,0.4913201332092285,-11.015021324157715
1745728928.9348397,-0.03784440457820892,0.08785691112279892,0.1547795534133911,0.6359268426895142,0.3425946533679962,-9.793378829956055
1745728928.9702096,-0.029756341129541397,0.09532175958156586,0.16139450669288635,0.6582268476486206,0.37611573934555054,-8.336048126220703
1745728928.9722295,-0.07111889868974686,0.08554227650165558,0.17143018543720245,0.8289725184440613,-0.2963990569114685,-9.46469497680664
1745728928.9747124,-0.02896175906062126,0.08876075595617294,0.33222314715385437,0.8990445137023926,0.8660560846328735,-9.664098739624023
1745728928.9788556,-0.04457895830273628,0.09298892319202423,0.3316931128501892,0.9597193598747253,0.40624314546585083,-10.512702941894531
1745728928.9809396,-0.02534865401685238,0.09390221536159515,0.33689984679222107,0.8930589556694031,0.654406726360321,-9.71519947052002
1745728929.0155823,-0.0318647101521492,0.09281060099601746,0.34310537576675415,0.836889922618866,0.44577234983444214,-8.939855575561523
1745728929.01931,-0.04439980536699295,0.07858315855264664,0.3486141860485077,1.0433094501495361,0.6059666872024536,-9.600839614868164
1745728929.0222828,-0.013892821967601776,0.08166350424289703,0.3518901765346527,0.9511541128158569,0.8266477584838867,-10.431273460388184
1745728929.024927,-0.013845506124198437,0.08791110664606094,0.35569193959236145,0.962371826171875,0.5531295537948608,-9.872936248779297
1745728929.0578942,0.0026257457211613655,0.08277194201946259,0.3599686324596405,0.8110219240188599,0.9300115704536438,-9.063141822814941
1745728929.059261,0.00831974484026432,0.07201142609119415,0.3621961176395416,0.8885337710380554,0.5668135285377502,-9.536547660827637
1745728929.0600014,0.021427083760499954,0.06856124848127365,0.36885637044906616,0.9697358012199402,0.7580161094665527,-10.21299934387207
1745728929.062915,0.030083829537034035,0.07490221410989761,0.3685547411441803,0.9942245483398438,0.6882617473602295,-10.112503051757812
1745728929.0639296,0.028003454208374023,0.05341378599405289,0.36613088846206665,0.8414952158927917,0.8427342176437378,-9.452620506286621
1745728929.1019592,0.04030098766088486,0.04953109100461006,0.359891414642334,0.6212514638900757,0.8577329516410828,-9.515108108520508
1745728929.105372,0.04857231304049492,0.04479043930768967,0.35727643966674805,0.7665655016899109,0.7030774354934692,-10.06395435333252
1745728929.1089091,0.047899890691041946,0.0341927595436573,0.35012754797935486,0.4325205683708191,0.5860679745674133,-10.226835250854492
1745728929.1146233,0.07415316253900528,0.04081644490361214,0.3521861433982849,0.5267399549484253,0.39944201707839966,-9.445337295532227
1745728929.141456,0.050397515296936035,0.033672042191028595,0.35550403594970703,0.35579052567481995,0.4748397767543793,-9.147321701049805
1745728929.1424909,0.06425143778324127,0.023455511778593063,0.35711634159088135,0.5958124995231628,0.14563779532909393,-9.909900665283203
1745728929.14501,0.055899642407894135,0.022280393168330193,0.359724760055542,0.9321171641349792,0.1747327446937561,-10.231894493103027
1745728929.1468022,0.05196179822087288,0.03250298276543617,0.3607344329357147,0.6351812481880188,0.0944996029138565,-9.95241928100586
1745728929.1498144,0.007308265659958124,0.014382828958332539,0.36185669898986816,0.8489020466804504,0.21919378638267517,-9.217279434204102
1745728929.1875284,0.01884276606142521,-0.0020883972756564617,0.3590545058250427,0.7170554995536804,0.18860502541065216,-9.697757720947266
1745728929.1915169,-0.009055515751242638,0.00760105112567544,0.35794776678085327,0.8660528063774109,0.49440035223960876,-10.273504257202148
1745728929.1956797,0.04835423082113266,-0.01833338662981987,0.35045021772384644,0.7659016847610474,1.0625945329666138,-10.64641284942627
1745728929.2011056,0.07144079357385635,-0.02060704305768013,0.34940460324287415,0.7837883830070496,1.0231645107269287,-10.07426929473877
1745728929.2275789,0.11844971030950546,-0.023729627951979637,0.3540197014808655,0.6084972620010376,0.9756606221199036,-9.100133895874023
1745728929.229765,0.1140870600938797,-0.03753107041120529,0.35737329721450806,0.7973669767379761,0.6738337874412537,-9.552617073059082
1745728929.2342956,0.15025123953819275,-0.044081754982471466,0.35889703035354614,0.6393774747848511,0.6040756106376648,-10.487853050231934
1745728929.2373989,0.14194779098033905,-0.03639918565750122,0.3537351191043854,0.7548879384994507,0.4927937090396881,-10.068758010864258
1745728929.2722652,0.11771368980407715,-0.044180288910865784,0.34930649399757385,0.49733084440231323,0.31076017022132874,-9.384138107299805
1745728929.2740293,0.11169401556253433,-0.0617249496281147,0.3436276316642761,0.6224400997161865,0.1533488929271698,-9.387557029724121
1745728929.275682,0.07606808096170425,-0.06081116199493408,0.34284457564353943,0.79770427942276,-0.023789936676621437,-10.298688888549805
1745728929.2769458,0.06013607233762741,-0.052304744720458984,0.33986854553222656,0.4486876428127289,0.10524680465459824,-10.32610034942627
1745728929.3193233,0.042442645877599716,-0.06571987271308899,0.3444538116455078,0.6352640390396118,-0.2841250002384186,-9.336530685424805
1745728929.3194513,0.05006258934736252,-0.07043009996414185,0.35041379928588867,0.541061282157898,0.5144864320755005,-9.123472213745117
1745728929.3212323,0.026674926280975342,-0.06761343777179718,0.35039204359054565,0.6621137857437134,0.1326276957988739,-10.420961380004883
1745728929.322393,-0.04338786005973816,-0.05909964442253113,0.42220020294189453,0.6892687082290649,0.41509801149368286,-9.644848823547363
1745728929.323068,-0.025031734257936478,-0.05883865803480148,0.42477530241012573,0.7081741094589233,0.45355653762817383,-10.211954116821289
1745728929.3572412,0.008271480910480022,-0.05310134217143059,0.43409308791160583,0.6914332509040833,0.6249576807022095,-9.986042976379395
1745728929.359087,0.04329671338200569,-0.04624587297439575,0.4343012273311615,0.5469973087310791,0.9621546864509583,-9.468832015991211
1745728929.3596754,0.04356051981449127,-0.05514915660023689,0.43357381224632263,0.6661350131034851,0.6911053657531738,-9.673544883728027
1745728929.3618233,0.08542077988386154,-0.0502663180232048,0.4292406439781189,0.5979894399642944,0.7280634045600891,-10.049789428710938
1745728929.4026968,0.06761061400175095,-0.04019694775342941,0.4275283217430115,0.7657610177993774,0.41639119386672974,-9.97396183013916
1745728929.4052129,0.05854082852602005,-0.050314225256443024,0.4260064661502838,0.5064718127250671,0.18889960646629333,-9.578329086303711
1745728929.408125,0.04881002753973007,-0.042749591171741486,0.4262285828590393,0.6932715177536011,-0.19552847743034363,-9.520486831665039
1745728929.4102263,0.008542366325855255,-0.03649669140577316,0.4304122030735016,0.7825621366500854,-0.1853141337633133,-9.956158638000488
1745728929.4429095,0.008488890714943409,-0.032966844737529755,0.4358587861061096,0.6660808324813843,-0.30411338806152344,-10.099861145019531
1745728929.443984,-0.013036931864917278,-0.03716138377785683,0.43939128518104553,0.7376340627670288,-0.007240125443786383,-9.573415756225586
1745728929.4460576,-0.015998858958482742,-0.03283640742301941,0.44527286291122437,0.47071871161460876,0.0242062546312809,-9.619690895080566
1745728929.4498591,-0.01888938620686531,-0.029157260432839394,0.4469813406467438,0.6020729541778564,0.1354009360074997,-9.872095108032227
1745728929.453474,-0.027536416426301003,-0.02851361408829689,0.44606247544288635,0.3777563273906708,0.2226356714963913,-9.907686233520508
1745728929.4859624,-0.017644019797444344,-0.02091669850051403,0.4463549256324768,0.535372793674469,0.1225699782371521,-9.569528579711914
1745728929.488353,-0.04776105284690857,-0.024649864062666893,0.44577544927597046,0.5304592847824097,0.3363291323184967,-9.607099533081055
1745728929.4911933,-0.035702794790267944,-0.022591322660446167,0.4471643567085266,0.6550534963607788,0.12246543169021606,-9.96778678894043
1745728929.4926574,-0.05307874083518982,-0.020136311650276184,0.4453054964542389,0.8894769549369812,0.2987558841705322,-9.840127944946289
1745728929.5285199,-0.04715915396809578,-0.015582410618662834,0.4473783075809479,0.6618848443031311,0.19615718722343445,-9.691093444824219
1745728929.5311844,-0.05349059775471687,-0.019906792789697647,0.45259547233581543,0.809007465839386,0.19841709733009338,-9.6552152633667
1745728929.5325992,-0.052846748381853104,-0.01844196580350399,0.45384517312049866,0.649349570274353,0.45800939202308655,-9.838955879211426
1745728929.533784,-0.023814966902136803,-0.011153503321111202,0.4587649405002594,0.7024606466293335,0.40957289934158325,-9.857407569885254
1745728929.5350735,0.0162874236702919,-0.01939588598906994,0.43359440565109253,0.1359460949897766,0.38449493050575256,-9.818548202514648
1745728929.572517,0.016251467168331146,-0.02713633142411709,0.42860278487205505,0.2949889302253723,0.11270513385534286,-9.88414192199707
1745728929.5741491,0.013793570920825005,-0.008790704421699047,0.4289504587650299,0.048961807042360306,-0.011953731998801231,-9.734700202941895
1745728929.5752857,-0.011081044562160969,-0.0052822730503976345,0.43019261956214905,0.2496558427810669,-0.46796268224716187,-9.326501846313477
1745728929.5765827,-0.041706524789333344,-0.021621402353048325,0.43303972482681274,0.360736221075058,-0.2447395771741867,-9.598737716674805
1745728929.6200743,-0.038980044424533844,-0.015479532070457935,0.43457192182540894,0.6096548438072205,-0.5930859446525574,-10.175537109375
1745728929.6204631,-0.09449578821659088,-0.010033306665718555,0.43440207839012146,0.39113882184028625,-0.04697493463754654,-10.067861557006836
1745728929.6222894,-0.0982087254524231,-0.016277385875582695,0.42937302589416504,0.34998422861099243,-0.20886798202991486,-9.388410568237305
1745728929.6236303,-0.12616033852100372,-0.02808069810271263,0.42570480704307556,0.48770809173583984,0.09096606075763702,-9.368354797363281
1745728929.6601958,-0.12799391150474548,-0.018088897690176964,0.4212031960487366,0.24683856964111328,0.5062345862388611,-10.150928497314453
1745728929.6612375,-0.14648616313934326,-0.015038885176181793,0.4175061285495758,0.36895641684532166,0.26620611548423767,-10.070918083190918
1745728929.6625144,-0.09617210924625397,-0.023997295647859573,0.41137170791625977,0.3787527084350586,0.9920799136161804,-9.122565269470215
1745728929.6666656,-0.09831418842077255,-0.022568754851818085,0.41171160340309143,0.5570634603500366,0.7076051831245422,-9.59959888458252
1745728929.7155008,-0.11309000104665756,-0.017239976674318314,0.38765108585357666,0.4881640076637268,1.2053128480911255,-9.76008415222168
1745728929.7155826,-0.046960633248090744,0.0012511058012023568,0.38602137565612793,0.6493107080459595,1.4397284984588623,-9.510258674621582
1745728929.7156699,-0.03492749482393265,0.0037386431358754635,0.38945454359054565,0.5899225473403931,1.2907350063323975,-9.828378677368164
1745728929.715742,0.037965092808008194,-0.0041429526172578335,0.39302000403404236,0.560458779335022,1.1958237886428833,-9.951004981994629
1745728929.7157924,0.07510361820459366,0.014266069047152996,0.39660340547561646,0.8014397621154785,0.6905655264854431,-9.608064651489258
1745728929.7454388,0.07617385685443878,0.01486082561314106,0.4043648838996887,0.5121307969093323,0.5782824754714966,-9.685341835021973
1745728929.754437,0.07277374714612961,0.006190785672515631,0.4097132682800293,0.7574170231819153,-0.3602493405342102,-9.96792221069336
1745728929.7544858,0.05132094770669937,0.014888840727508068,0.41228237748146057,0.6526178121566772,-0.11679995059967041,-9.736741065979004
1745728929.754791,-0.018888235092163086,0.032532576471567154,0.41274890303611755,0.404916912317276,-0.5164733529090881,-9.66008186340332
1745728929.7867796,-0.07587174326181412,0.013925090432167053,0.41124892234802246,0.7396038174629211,-0.6707013845443726,-9.53171157836914
1745728929.7878666,-0.09889854490756989,0.019961627200245857,0.41092342138290405,0.7175491452217102,-0.08987023681402206,-9.81953239440918
1745728929.7907047,-0.18169206380844116,0.029873400926589966,0.40981191396713257,0.764618992805481,-0.4605785310268402,-10.248881340026855
1745728929.7921326,-0.15187318623065948,0.023494388908147812,0.4150892198085785,0.5071578025817871,0.3556235730648041,-9.61419677734375
1745728929.7947896,-0.17137858271598816,0.028980184346437454,0.42207059264183044,0.710141658782959,0.2053547203540802,-9.349760055541992
1745728929.8323047,-0.14639219641685486,0.02744666114449501,0.43145012855529785,0.6344757676124573,0.8830446004867554,-9.838232040405273
1745728929.83249,-0.09874476492404938,0.031122690066695213,0.4347153604030609,0.5858381390571594,0.9979525804519653,-10.217514038085938
1745728929.833927,-0.059342123568058014,0.031953535974025726,0.4365454614162445,0.56048583984375,1.4603887796401978,-9.572111129760742
1745728929.8343925,-0.01805569790303707,0.031174059957265854,0.4334452152252197,0.5536637306213379,1.1106905937194824,-9.502145767211914
1745728929.875804,-0.009480694308876991,0.02870757319033146,0.4309484362602234,0.729028582572937,1.0017560720443726,-9.970109939575195
1745728929.8781152,-0.0020030520390719175,0.03114699386060238,0.422457218170166,0.6237431764602661,0.7260181307792664,-10.084054946899414
1745728929.8803346,-0.008415892720222473,0.03250546380877495,0.42208951711654663,0.8130860328674316,0.16230443120002747,-9.547036170959473
1745728929.8824406,-0.03750091418623924,0.03041243553161621,0.42513471841812134,0.7992313504219055,0.25634273886680603,-9.450048446655273
1745728929.9201212,-0.06200631707906723,0.03242119774222374,0.4438125491142273,0.40903693437576294,0.6100289225578308,-10.000567436218262
1745728929.9229054,-0.07003854960203171,0.040349386632442474,0.44410794973373413,0.5540090799331665,0.3430221378803253,-9.968709945678711
1745728929.9250822,-0.059788018465042114,0.04216449335217476,0.4420008659362793,0.36131832003593445,0.6232703924179077,-9.449130058288574
1745728929.9288578,-0.0742364376783371,0.03872520476579666,0.44005173444747925,0.6061473488807678,0.2505961060523987,-9.415597915649414
1745728929.959913,-0.08495287597179413,0.031626902520656586,0.442495197057724,0.8015745282173157,0.4673457741737366,-9.916810989379883
1745728929.961369,-0.08467487245798111,0.04588807746767998,0.4411036968231201,0.9563593864440918,0.3742334246635437,-10.157471656799316
1745728929.9644022,-0.09882594645023346,0.029595106840133667,0.44019216299057007,1.074204921722412,0.5974708199501038,-9.774153709411621
1745728929.9666557,-0.07425038516521454,0.00692605460062623,0.4301718771457672,0.4816981256008148,1.1165709495544434,-9.759184837341309
1745728929.970329,-0.0594823844730854,0.03816917911171913,0.4158952832221985,0.4808163642883301,1.2198455333709717,-9.73461627960205
1745728930.005535,-0.01350564043968916,0.01087582390755415,0.40383273363113403,0.003888948354870081,1.5348063707351685,-9.616266250610352
1745728930.0138056,0.018244022503495216,0.005697083659470081,0.39057961106300354,0.049588121473789215,0.9579780697822571,-9.80558967590332
1745728930.0139132,0.06599290668964386,0.02827400341629982,0.3834471106529236,-0.35130560398101807,0.9865541458129883,-9.814393043518066
1745728930.017726,0.06827466189861298,0.030300509184598923,0.3809446692466736,-0.4477009177207947,0.02742842398583889,-9.255741119384766
1745728930.0445764,0.051910627633333206,0.014163282699882984,0.3827459514141083,0.49034351110458374,-0.2692263722419739,-9.206416130065918
1745728930.046853,0.10670743137598038,-0.04099979251623154,0.20289652049541473,-0.011510899290442467,0.5519459843635559,-9.849357604980469
1745728930.0480905,0.09642963111400604,-0.040705833584070206,0.20014044642448425,0.25329846143722534,0.33103781938552856,-10.163976669311523
1745728930.0534906,0.11302324384450912,-0.040335338562726974,0.19819419085979462,0.2213950902223587,0.28224706649780273,-9.727533340454102
1745728930.0568047,0.07410462945699692,-0.04152669757604599,0.1956467181444168,0.4134950637817383,-0.0986209437251091,-9.494965553283691
1745728930.0888965,0.05090786889195442,-0.04616798460483551,0.19161230325698853,0.4145127236843109,0.08743380755186081,-9.814981460571289
1745728930.0902705,0.034797392785549164,-0.04284897446632385,0.18786732852458954,0.6707015037536621,-0.006882040295749903,-10.025604248046875
1745728930.0928745,0.0055242860689759254,-0.04577874019742012,0.18449848890304565,0.5463922619819641,0.21943147480487823,-9.887310981750488
1745728930.0941331,0.004715146962553263,-0.0444515086710453,0.1820729821920395,0.24605098366737366,0.4048059582710266,-9.754640579223633
1745728930.141,0.006546877324581146,-0.046708669513463974,0.182698056101799,0.4317917227745056,0.5611839890480042,-9.569931030273438
1745728930.1440356,0.03329860046505928,-0.04717140272259712,0.18009129166603088,0.151157945394516,1.039602279663086,-9.807719230651855
1745728930.14872,0.05643825605511665,-0.04771227762103081,0.17641940712928772,0.25512370467185974,0.9368013143539429,-10.037686347961426
1745728930.1507242,0.11143060028553009,-0.04650559276342392,0.17028021812438965,0.17593108117580414,1.2154875993728638,-9.745789527893066
1745728930.1762407,0.13701388239860535,-0.038009997457265854,0.16854552924633026,0.1840963065624237,0.778700053691864,-9.595653533935547
1745728930.1851423,0.15073040127754211,-0.05094283074140549,0.16848309338092804,0.4187341332435608,0.6383207440376282,-9.707253456115723
1745728930.1851883,0.15904243290424347,-0.04558643326163292,0.16554126143455505,0.33849841356277466,0.11897687613964081,-10.12729263305664
1745728930.1855836,0.13596829771995544,-0.03928906470537186,0.16493670642375946,0.4240955710411072,0.0713416188955307,-9.902396202087402
1745728930.1867588,0.11747969686985016,-0.03868131712079048,0.16283027827739716,0.25862088799476624,0.047381289303302765,-9.548001289367676
1745728930.2201138,0.0969940721988678,-0.047374121844768524,0.15852999687194824,0.5772343873977661,-0.21889786422252655,-9.5907621383667
1745728930.2237859,0.06210595369338989,-0.043049488216638565,0.1545226126909256,0.3208571970462799,0.26457324624061584,-10.07178783416748
1745728930.2251258,0.05650397017598152,-0.03561665862798691,0.15085136890411377,0.2411791980266571,-0.08672571927309036,-10.091522216796875
1745728930.22763,0.04231444001197815,-0.039158452302217484,0.14710868895053864,0.27331453561782837,0.3713308572769165,-9.366440773010254
1745728930.2606585,0.0638648122549057,-0.036054812371730804,0.14546248316764832,0.1712796986103058,0.4650435447692871,-9.59514045715332
1745728930.2617807,0.056983303278684616,-0.03979400172829628,0.14388872683048248,0.3023398816585541,0.4886966645717621,-10.141533851623535
1745728930.2629824,0.13922254741191864,-0.03186159208416939,0.13762390613555908,0.23100359737873077,0.6153571605682373,-9.629026412963867
1745728930.2641757,0.14078238606452942,-0.03231598436832428,0.13223931193351746,0.42138251662254333,0.4014459252357483,-10.054998397827148
1745728930.30505,0.14473246037960052,-0.027555853128433228,0.127182275056839,0.308063805103302,0.3682035505771637,-9.994909286499023
1745728930.3095472,0.12936028838157654,-0.02199147269129753,0.1215813010931015,0.40102171897888184,0.1172584518790245,-9.618929862976074
1745728930.3127604,0.11110351234674454,-0.0350029319524765,0.1178307756781578,0.3802061676979065,0.12762367725372314,-9.64408016204834
1745728930.316822,0.11378691345453262,-0.025929773226380348,0.11436238139867783,0.3681154251098633,0.1285373419523239,-9.97231674194336
1745728930.3181074,0.08413595706224442,-0.023876521736383438,0.10963640362024307,0.4033162593841553,0.05929683521389961,-10.020808219909668
1745728930.347955,0.10273504257202148,-0.023735616356134415,0.11149431765079498,0.20285674929618835,0.2852209508419037,-9.65788459777832
1745728930.3512683,0.10506986081600189,-0.02273472025990486,0.10793963819742203,0.2942531108856201,0.20824292302131653,-9.606890678405762
1745728930.3549433,0.10864154249429703,-0.02432292327284813,0.10808086395263672,0.14109249413013458,0.4317156672477722,-9.940698623657227
1745728930.35886,0.13725979626178741,-0.011834901757538319,0.10468528419733047,0.19078007340431213,0.29113438725471497,-9.965853691101074
1745728930.3905988,0.13635613024234772,-0.01745164394378662,0.10252155363559723,0.22030147910118103,0.45442304015159607,-9.558878898620605
1745728930.393283,0.14152050018310547,-0.013899499550461769,0.09673095494508743,0.2282402515411377,0.26955074071884155,-9.646769523620605
1745728930.3965685,0.1617334485054016,0.006074213422834873,0.06278908252716064,0.22038915753364563,0.16508843004703522,-9.36528205871582
1745728930.398666,0.12905152142047882,0.0064779967069625854,0.061983536928892136,0.44313669204711914,-0.5552161335945129,-10.043230056762695
1745728930.4008603,0.14244160056114197,0.01531536690890789,0.06640495359897614,0.32853350043296814,-0.34271925687789917,-9.954629898071289
1745728930.4349217,0.08629026263952255,0.021059876307845116,0.06495252251625061,0.2612667679786682,-0.6058506965637207,-9.535259246826172
1745728930.438918,0.08684179186820984,0.006497419439256191,0.07280992716550827,0.44143253564834595,-0.5018659234046936,-9.473627090454102
1745728930.4411955,0.06282337754964828,0.013943783938884735,0.07192984223365784,0.3416842520236969,-0.23553308844566345,-9.925127029418945
1745728930.4454567,0.05829469487071037,0.01952304318547249,0.06994763761758804,0.3978486955165863,-0.2636488080024719,-10.109672546386719
1745728930.4769776,0.06351985037326813,0.013615677133202553,0.06923265755176544,0.32528215646743774,0.24523325264453888,-9.540200233459473
1745728930.4790642,0.0733555406332016,0.004130395129323006,0.06484608352184296,0.261790931224823,0.0783841460943222,-9.6365966796875
1745728930.4813137,0.0927472859621048,0.019843334332108498,0.060325153172016144,0.3461208939552307,0.47219833731651306,-9.778472900390625
1745728930.4834826,0.11638567596673965,0.017444919794797897,0.0559832826256752,0.3217625319957733,0.056155335158109665,-9.899099349975586
1745728930.4857175,0.12258224189281464,0.0023511964827775955,0.05439744144678116,0.46332091093063354,0.1726507991552353,-9.699640274047852
1745728930.5215783,0.14284560084342957,0.021628374233841896,0.0520954430103302,0.3118557333946228,-0.21470284461975098,-9.782949447631836
1745728930.5251758,0.12288560718297958,0.01724475622177124,0.050383009016513824,0.36178117990493774,-0.213597372174263,-9.654146194458008
1745728930.528252,0.12882882356643677,0.013348041102290154,0.047838691622018814,0.38196635246276855,-0.47495704889297485,-9.646291732788086
1745728930.53338,0.09363600611686707,0.013863034546375275,0.04428154230117798,0.5968228578567505,-0.37877675890922546,-9.867650985717773
1745728930.565528,0.08785313367843628,0.016671055927872658,0.037182554602622986,0.24916836619377136,-0.480596125125885,-9.99743366241455
1745728930.5656102,0.06892252713441849,0.01791655644774437,0.03368161618709564,0.3689349293708801,-0.48320841789245605,-9.505030632019043
1745728930.5668616,0.03776278346776962,0.011939273215830326,0.03379901126027107,0.40284833312034607,-0.426323801279068,-9.468785285949707
1745728930.5671334,0.040570393204689026,0.01483648456633091,0.03024350479245186,0.3009722828865051,-0.3008064329624176,-10.060563087463379
1745728930.609347,0.03695181757211685,0.020061416551470757,0.03004482388496399,0.35322386026382446,-0.2409692257642746,-10.030258178710938
1745728930.6130214,0.061332475394010544,0.019591810181736946,0.02586878463625908,0.2377486675977707,0.0805116668343544,-9.480801582336426
1745728930.616607,0.052621990442276,0.013135438784956932,0.025719299912452698,0.4448122978210449,-0.06829223781824112,-9.493266105651855
1745728930.619586,0.08767960965633392,0.01100814901292324,0.022154539823532104,0.32475462555885315,0.19844596087932587,-9.979510307312012
1745728930.6503074,0.08459894359111786,0.02315383404493332,0.01881694793701172,0.32562774419784546,0.04148293286561966,-10.061850547790527
1745728930.6504037,0.10230554640293121,0.015290545299649239,0.01672692596912384,0.35727816820144653,0.03428727388381958,-9.514144897460938
1745728930.6538322,0.10019804537296295,0.0110801225528121,0.011511871591210365,0.3884792923927307,-0.18242153525352478,-9.511712074279785
1745728930.6558185,0.09188071638345718,0.011560756713151932,0.009839395061135292,0.4709645211696625,-0.19721804559230804,-10.060290336608887
1745728930.6574938,0.08825866878032684,0.01571992225944996,0.0062208110466599464,0.3752638101577759,-0.28444018959999084,-10.078329086303711
1745728930.6958256,0.07815583050251007,0.016072949394583702,0.0041688778437674046,0.5397675633430481,-0.44998207688331604,-9.475956916809082
1745728930.698709,0.076669842004776,0.007076150272041559,0.001501510851085186,0.35473576188087463,-0.18654930591583252,-9.52808666229248
1745728930.7001488,0.059665460139513016,0.009072734974324703,0.0018807463347911835,0.37947502732276917,-0.5713353753089905,-10.062005043029785
1745728930.7019444,0.07347278296947479,0.014289578422904015,0.0012522363103926182,0.30742955207824707,-0.22064128518104553,-9.918728828430176
1745728930.735214,0.06369150429964066,0.01965883933007717,0.0012008933117613196,0.25615963339805603,-0.36552101373672485,-9.573725700378418
1745728930.7359426,0.058107197284698486,0.00585149135440588,-0.0026065397541970015,0.27219128608703613,-0.24615439772605896,-9.546170234680176
1745728930.7373664,0.0738200694322586,0.01615600660443306,-0.0032402039505541325,0.27588334679603577,-0.1809355914592743,-9.912623405456543
1745728930.7447398,0.06139874458312988,0.009541796520352364,-0.08698756247758865,0.49750155210494995,-0.28326529264450073,-9.912946701049805
1745728930.7790008,0.06494654715061188,0.018383685499429703,-0.08952949196100235,0.449249267578125,-0.44444435834884644,-9.98631763458252
1745728930.7813854,0.061789192259311676,0.013826790265738964,-0.09047190845012665,0.5055359601974487,-0.35124340653419495,-9.650972366333008
1745728930.7829366,0.04966285452246666,0.012637592852115631,-0.09209985285997391,0.3571712374687195,-0.5101567506790161,-9.611387252807617
1745728930.7858813,0.053176116198301315,0.01485438086092472,-0.09568814188241959,0.5600022077560425,-0.3962494432926178,-9.755704879760742
1745728930.7897117,0.04675455018877983,0.013870844617486,-0.09535036236047745,0.510270357131958,-0.329834520816803,-9.984886169433594
1745728930.8220806,0.050662219524383545,0.014344736933708191,-0.0987849086523056,0.5367724895477295,-0.45475053787231445,-9.80180835723877
1745728930.8236852,0.04790254309773445,0.010346895083785057,-0.10279067605733871,0.4275940954685211,-0.29704636335372925,-9.695780754089355
1745728930.8258257,0.058825235813856125,0.016984254121780396,-0.1017407774925232,0.35740479826927185,-0.49451661109924316,-9.790570259094238
1745728930.8270345,0.04499697685241699,0.010552903637290001,-0.10293084383010864,0.5017099976539612,-0.3106260299682617,-9.731914520263672
1745728930.8642547,0.06137819215655327,0.020670086145401,-0.10466636717319489,0.44613900780677795,-0.3137663006782532,-9.771734237670898
1745728930.8648624,0.049804627895355225,0.009617233648896217,-0.10569318383932114,0.5445268154144287,-0.3740764558315277,-9.788473129272461
1745728930.8685043,0.05878293514251709,0.013176033273339272,-0.11075840890407562,0.41173142194747925,-0.24497957527637482,-9.775228500366211
1745728930.8686929,0.05914471298456192,0.013717127032577991,-0.1118636503815651,0.6295322179794312,-0.5082324743270874,-9.815949440002441
1745728930.8695931,0.04836275428533554,0.008275462314486504,-0.1149243712425232,0.5163377523422241,-0.41165485978126526,-9.837515830993652
1745728930.9108331,0.05223291367292404,0.013795778155326843,-0.1162104383111,0.5262600183486938,-0.45450258255004883,-9.78956127166748
1745728930.9122384,0.03589464724063873,0.01036463025957346,-0.1199692115187645,0.624029815196991,-0.4335501790046692,-9.66968059539795
1745728930.9128883,0.05847568437457085,0.016190260648727417,-0.12470319122076035,0.5517817139625549,-0.16099633276462555,-9.666045188903809
1745728930.9158094,0.04756417125463486,0.016811121255159378,-0.13217441737651825,0.9448725581169128,-0.26640254259109497,-9.706100463867188
1745728930.9511034,0.07880239933729172,0.013896932825446129,-0.13554075360298157,0.6986995935440063,-0.22075839340686798,-9.929777145385742
1745728930.9530647,0.07101283222436905,0.013550244271755219,-0.14063699543476105,0.7776004672050476,-0.36556971073150635,-9.912717819213867
1745728930.9541764,0.0852460116147995,0.025158926844596863,-0.13992321491241455,0.5300883054733276,-0.5394197702407837,-9.642918586730957
1745728930.9575856,0.07813357561826706,0.02265390381217003,-0.14058472216129303,0.49341028928756714,-0.5069156885147095,-9.49933910369873
1745728930.957688,0.07457699626684189,0.018635107204318047,-0.14614751935005188,0.7116274833679199,-0.5045270919799805,-9.721420288085938
1745728930.9965074,0.0745382159948349,0.025484520941972733,-0.15112844109535217,0.6132230758666992,-0.31068822741508484,-10.062561988830566
1745728931.0008025,0.07187791168689728,0.020529529079794884,-0.1609179675579071,0.7342351078987122,-0.4102269113063812,-9.872848510742188
1745728931.0040326,0.06671500951051712,0.020572388544678688,-0.1652553528547287,0.6638069748878479,-0.48342686891555786,-9.500417709350586
1745728931.0083492,0.038673173636198044,0.017932426184415817,-0.16801126301288605,0.7740424275398254,-0.8037355542182922,-9.745128631591797
1745728931.037389,0.05962395668029785,0.019785786047577858,-0.16670414805412292,0.6233811378479004,-0.6231967210769653,-9.954389572143555
1745728931.0397534,0.033151257783174515,0.027865877375006676,-0.16586250066757202,0.7049006223678589,-0.5438113808631897,-9.866314888000488
1745728931.043205,0.05787687376141548,0.020696809515357018,-0.16788044571876526,0.6360576748847961,-0.360061377286911,-9.564836502075195
1745728931.045075,0.06873719394207001,0.017435776069760323,-0.17345485091209412,0.6034008264541626,-0.0736539214849472,-9.679969787597656
1745728931.078844,0.0702437162399292,0.01878274604678154,-0.17834874987602234,0.6273197531700134,-0.16897086799144745,-9.961771965026855
1745728931.0803564,0.10686017572879791,0.027968239039182663,-0.18430277705192566,0.5402425527572632,-0.16032549738883972,-9.833003997802734
1745728931.0824833,0.08203409612178802,0.016939416527748108,-0.18558631837368011,0.73186194896698,-0.5963444113731384,-9.5287504196167
1745728931.0859365,0.09219038486480713,0.01713825762271881,-0.1858755648136139,0.5907198190689087,-0.6553328633308411,-9.689229965209961
1745728931.1232688,0.05718802288174629,-0.007278568111360073,-0.2514534294605255,0.6784349679946899,-0.8808225393295288,-9.772628784179688
1745728931.126393,0.06071275472640991,-0.011501085944473743,-0.25280922651290894,0.7027755975723267,-0.6113783121109009,-9.656368255615234
1745728931.1278014,0.05462034419178963,-0.010366437956690788,-0.2566646933555603,0.5446637272834778,-0.6046262979507446,-9.784480094909668
1745728931.13012,0.04663409665226936,-0.010763825848698616,-0.2604670524597168,0.7682961225509644,-0.7422415614128113,-9.753023147583008
1745728931.1324196,0.06343276798725128,-0.012105690315365791,-0.2592419385910034,0.5790637731552124,-0.4206220507621765,-9.68391227722168
1745728931.1662889,0.05009877681732178,-0.012558156624436378,-0.26145070791244507,0.7071014642715454,-0.8624505996704102,-9.726572036743164
1745728931.169115,0.06171474978327751,-0.011806944385170937,-0.2594231367111206,0.5759201645851135,-0.5054658055305481,-9.715079307556152
1745728931.1694407,0.06039654463529587,-0.012559525668621063,-0.2612770199775696,0.5871012210845947,-0.7088567018508911,-9.817280769348145
1745728931.1716669,0.06097114086151123,-0.014810529537498951,-0.26271915435791016,0.6380003690719604,-0.5067248940467834,-9.738458633422852
1745728931.2109911,0.06313715875148773,-0.0171709842979908,-0.266816645860672,0.6097024083137512,-0.5374573469161987,-9.703913688659668
1745728931.2146056,0.056003570556640625,-0.017171170562505722,-0.26756539940834045,0.7317636609077454,-0.7902958989143372,-9.762234687805176
1745728931.2163022,0.06579787284135818,-0.01777784153819084,-0.27184197306632996,0.5448588132858276,-0.5423499345779419,-9.761799812316895
1745728931.2189124,0.045160964131355286,-0.017451271414756775,-0.2730741500854492,0.742598831653595,-0.8421634435653687,-9.72946548461914
1745728931.2207155,0.053476084023714066,-0.017891261726617813,-0.2722867727279663,0.6174238920211792,-0.6871984601020813,-9.596384048461914
1745728931.2541418,0.04629749804735184,-0.015542526729404926,-0.27352374792099,0.6240907907485962,-0.6967137455940247,-9.743213653564453
1745728931.2558956,0.04700871556997299,-0.024221021682024002,-0.2744749188423157,0.7227066159248352,-0.6786133646965027,-9.876502990722656
1745728931.2582865,0.05584658309817314,-0.01881982386112213,-0.27480900287628174,0.5542556047439575,-0.6086955070495605,-9.85573959350586
1745728931.2606733,0.05119291692972183,-0.023213837295770645,-0.2750106453895569,0.6252502202987671,-0.6625544428825378,-9.720890998840332
1745728931.297992,0.058476220816373825,-0.023380031809210777,-0.27512186765670776,0.4775612950325012,-0.5760116577148438,-9.658638000488281
1745728931.3035016,0.04735060781240463,-0.02391749620437622,-0.27967414259910583,0.6588760018348694,-0.7279878258705139,-9.713534355163574
1745728931.3051293,0.06634959578514099,-0.025510098785161972,-0.2796894609928131,0.5793047547340393,-0.6716545224189758,-9.724627494812012
1745728931.309664,0.052964694797992706,-0.01990242302417755,-0.2792804539203644,0.6834362149238586,-0.746881365776062,-9.70472526550293
1745728931.3369367,0.052412308752536774,-0.02592577412724495,-0.2841922640800476,0.6628626585006714,-0.6360698938369751,-9.731941223144531
1745728931.338393,0.04510006681084633,-0.028498109430074692,-0.28381282091140747,0.6496342420578003,-0.6638914346694946,-9.812356948852539
1745728931.3395317,0.0605115070939064,-0.02449595369398594,-0.2831658124923706,0.552682101726532,-0.7656658291816711,-9.817877769470215
1745728931.341183,0.04292318969964981,-0.026618052273988724,-0.2832927107810974,0.6396313905715942,-0.750882625579834,-9.681305885314941
1745728931.3811355,0.054281704127788544,-0.027894610539078712,-0.2856264114379883,0.5000919103622437,-0.6278464198112488,-9.679206848144531
1745728931.3816817,0.04076481610536575,-0.02803478203713894,-0.2851937711238861,0.6683543920516968,-0.8854144215583801,-9.845908164978027
1745728931.3820817,0.04591809958219528,-0.028479764237999916,-0.28803348541259766,0.5660101771354675,-0.6001821756362915,-9.767036437988281
1745728931.3845098,0.048827968537807465,-0.02411562390625477,-0.2885216772556305,0.6487382650375366,-0.7903775572776794,-9.696210861206055
1745728931.386083,0.03427613899111748,-0.032823748886585236,-0.29087260365486145,0.601173996925354,-0.7067801356315613,-9.691473007202148
1745728931.4244306,0.04498964175581932,-0.029203329235315323,-0.2881583273410797,0.6467773914337158,-0.8435572385787964,-9.905345916748047
1745728931.4263785,0.037555355578660965,-0.02849463000893593,-0.2906208336353302,0.6595181226730347,-0.7190508842468262,-9.83631420135498
1745728931.4276664,0.04090489074587822,-0.0333235003054142,-0.28887778520584106,0.48863115906715393,-0.6537569165229797,-9.74491024017334
1745728931.4289145,0.04669475555419922,-0.03171848505735397,-0.2911117374897003,0.6958651542663574,-0.7056790590286255,-9.685981750488281
1745728931.4657047,0.04118798300623894,-0.03616298735141754,-0.2924319803714752,0.5301874279975891,-0.645028293132782,-9.83867359161377
1745728931.469397,0.029798448085784912,-0.032176099717617035,-0.30784010887145996,0.6114733219146729,-0.8072514533996582,-9.605230331420898
1745728931.4715242,0.03593610227108002,-0.028585588559508324,-0.30967336893081665,0.5534812808036804,-0.7753804922103882,-9.812658309936523
1745728931.4744902,0.03718206658959389,-0.025429408997297287,-0.31021547317504883,0.6344684362411499,-0.8223487734794617,-9.869588851928711
1745728931.5115638,0.03557038679718971,-0.0303640179336071,-0.31038907170295715,0.4419124722480774,-0.6129764914512634,-9.744924545288086
1745728931.5143101,0.04671535640954971,-0.02765101194381714,-0.309245228767395,0.6158367991447449,-0.9091461300849915,-9.728659629821777
1745728931.514505,0.033358559012413025,-0.03230513632297516,-0.3091717064380646,0.5486882328987122,-0.7032879590988159,-9.818075180053711
1745728931.5152795,0.049697764217853546,-0.028304755687713623,-0.30661529302597046,0.4689076542854309,-0.8370170593261719,-9.82194995880127
1745728931.5543714,0.03317682445049286,-0.02913665771484375,-0.30984216928482056,0.5992201566696167,-0.8050304651260376,-9.616918563842773
1745728931.556944,0.0431506410241127,-0.028933962807059288,-0.31040531396865845,0.4868961274623871,-0.7564268708229065,-9.602782249450684
1745728931.5598283,0.039306242018938065,-0.027873139828443527,-0.31147801876068115,0.663861095905304,-0.7869955897331238,-9.761438369750977
1745728931.561532,0.03341066092252731,-0.0289978738874197,-0.31374162435531616,0.4660870432853699,-0.687360942363739,-9.897371292114258
1745728931.5621662,0.037643540650606155,-0.024817699566483498,-0.3120100796222687,0.6354316473007202,-0.9665306806564331,-9.762117385864258
1745728931.598295,0.03312130644917488,-0.031053682789206505,-0.3130079507827759,0.4651792049407959,-0.6668980717658997,-9.638309478759766
1745728931.603375,0.033129483461380005,-0.027028152719140053,-0.31315550208091736,0.5151158571243286,-0.8579813241958618,-9.828836441040039
1745728931.6080225,0.043572016060352325,-0.02628818154335022,-0.3124602437019348,0.6092117428779602,-0.6628577709197998,-9.797351837158203
1745728931.6106575,0.04168093204498291,-0.025196630507707596,-0.3130880296230316,0.4699735641479492,-0.8533872365951538,-9.723894119262695
1745728931.638931,0.03807312995195389,-0.0282407458871603,-0.31205064058303833,0.6213792562484741,-0.7937095165252686,-9.611791610717773
1745728931.6412754,0.04212627559900284,-0.03032139502465725,-0.31265145540237427,0.45546025037765503,-0.7727062106132507,-9.816766738891602
1745728931.6433828,0.03841128200292587,-0.023846615105867386,-0.3130563199520111,0.5747402906417847,-0.9484410285949707,-9.851550102233887
1745728931.6471624,0.04245529696345329,-0.026323145255446434,-0.31355977058410645,0.5021100640296936,-0.6012412309646606,-9.61118221282959
1745728931.6511295,0.03058757819235325,-0.025049883872270584,-0.3125225901603699,0.5701044201850891,-0.9435733556747437,-9.684296607971191
1745728931.6831708,0.036017321050167084,-0.03016022779047489,-0.31463637948036194,0.5600257515907288,-0.6882063150405884,-9.849034309387207
1745728931.684567,0.0435124933719635,-0.022776883095502853,-0.31429389119148254,0.4499719738960266,-0.816265881061554,-9.91724681854248
1745728931.6875875,0.0484660267829895,-0.024630505591630936,-0.3150920867919922,0.4399477541446686,-0.6525264978408813,-9.615877151489258
1745728931.6881728,0.03122721239924431,-0.02773810550570488,-0.31386667490005493,0.6086812615394592,-0.9844547510147095,-9.844889640808105
1745728931.7271762,0.043314769864082336,-0.025359291583299637,-0.3146915137767792,0.45707401633262634,-0.6966506242752075,-9.742316246032715
1745728931.7308059,0.037320755422115326,-0.021129030734300613,-0.3156903386116028,0.5431102514266968,-0.9660054445266724,-9.69031810760498
1745728931.7328696,0.03566968813538551,-0.028399452567100525,-0.31147870421409607,0.5410043001174927,-0.7471744418144226,-9.709182739257812
1745728931.7345312,0.03706684336066246,-0.025590527802705765,-0.31538334488868713,0.4815128743648529,-0.8209970593452454,-9.865761756896973
1745728931.7682242,0.027066418901085854,-0.02758948504924774,-0.31673938035964966,0.6560970544815063,-0.8603131175041199,-9.866253852844238
1745728931.769867,0.041697390377521515,-0.022399265319108963,-0.31487569212913513,0.45358461141586304,-0.7412056922912598,-9.642110824584961
1745728931.7723432,0.026828911155462265,-0.0310714952647686,-0.317288875579834,0.6177855730056763,-0.9111586809158325,-9.633248329162598
1745728931.7775202,0.0345383919775486,-0.02816821075975895,-0.3162548840045929,0.4927438795566559,-0.8465588688850403,-9.76140022277832
1745728931.8159375,0.032084450125694275,-0.02032129466533661,-0.3160872161388397,0.5394766330718994,-0.8297640085220337,-9.810525894165039
1745728931.8186991,0.03266441076993942,-0.028416380286216736,-0.3163689970970154,0.5331835150718689,-0.7979540824890137,-9.643083572387695
1745728931.822859,-4.7001616621855646e-05,-0.02198721654713154,-0.31603771448135376,0.5933655500411987,-0.913848876953125,-9.940055847167969
1745728931.825032,0.02513987384736538,-0.019606608897447586,-0.3186347186565399,0.4490053057670593,-0.6455432772636414,-9.835357666015625
1745728931.8538854,0.018856769427657127,-0.01870580017566681,-0.3183538019657135,0.48446112871170044,-0.8986795544624329,-9.675344467163086
1745728931.8637893,0.021738514304161072,-0.028303509578108788,-0.3171450197696686,0.43956685066223145,-0.7151072025299072,-9.651330947875977
1745728931.8639493,0.03219595551490784,-0.016845252364873886,-0.3159225881099701,0.4839552342891693,-0.8384977579116821,-9.824703216552734
1745728931.8640292,0.02078733779489994,-0.022179242223501205,-0.31614381074905396,0.5403200387954712,-0.9087481498718262,-9.77642822265625
1745728931.8641012,0.03248784691095352,-0.01724155992269516,-0.31516894698143005,0.44082021713256836,-0.7916350364685059,-9.60188102722168
1745728931.8990195,0.01842445135116577,-0.02285710535943508,-0.31656238436698914,0.6291205286979675,-0.9325939416885376,-9.719324111938477
1745728931.9019918,0.027486031875014305,-0.021097727119922638,-0.3152613639831543,0.4265056252479553,-0.8227189779281616,-9.921916007995605
1745728931.9064705,0.017287472262978554,-0.018622204661369324,-0.31694215536117554,0.5248435735702515,-0.8647404909133911,-9.777314186096191
1745728931.906632,0.012643104419112206,-0.02500929869711399,-0.317052960395813,0.509539008140564,-0.8509202003479004,-9.64330005645752
1745728931.9404304,0.022027678787708282,-0.018920501694083214,-0.31564974784851074,0.47442740201950073,-0.8626365661621094,-9.693536758422852
1745728931.9427714,0.016559019684791565,-0.025784078985452652,-0.3152177631855011,0.49566203355789185,-0.7606171369552612,-9.895933151245117
1745728931.9450297,0.027489149942994118,-0.018864784389734268,-0.316275417804718,0.4207545816898346,-0.9020887613296509,-9.779342651367188
1745728931.9544382,0.02422710508108139,-0.01698204129934311,-0.31679782271385193,0.5244086384773254,-0.6442837119102478,-9.502050399780273
1745728931.9548798,0.032747142016887665,-0.022798996418714523,-0.31505608558654785,0.44863367080688477,-0.8631299734115601,-9.641010284423828
1745728931.9845147,0.026966005563735962,-0.020798003301024437,-0.3146522641181946,0.600860595703125,-0.9007035493850708,-9.885360717773438
1745728931.985956,0.03149496763944626,-0.020808422937989235,-0.3134157955646515,0.4439440369606018,-0.8773273229598999,-9.925397872924805
1745728931.9870443,0.022009138017892838,-0.018614081665873528,-0.3112332224845886,0.446946918964386,-1.008543848991394,-9.667074203491211
1745728931.9889371,0.01698799803853035,-0.023140111938118935,-0.3117339611053467,0.42522573471069336,-0.7445969581604004,-9.535466194152832
1745728932.0276043,0.016937976703047752,-0.018924307078123093,-0.3139401972293854,0.49443119764328003,-0.9815422892570496,-9.860020637512207
1745728932.029685,0.016078367829322815,-0.021303441375494003,-0.31519654393196106,0.5925657749176025,-0.7010153532028198,-9.852094650268555
1745728932.0318801,0.02278544381260872,-0.020105944946408272,-0.3176240622997284,0.41347065567970276,-0.8156512975692749,-9.707985877990723
1745728932.0355775,0.02200089767575264,-0.017693160101771355,-0.31385183334350586,0.33579254150390625,-0.757111668586731,-9.701644897460938
1745728932.070951,0.01462070643901825,-0.018857672810554504,-0.31288090348243713,0.5493882894515991,-1.025900959968567,-9.86309814453125
1745728932.0717285,0.018898332491517067,-0.021546026691794395,-0.3120303750038147,0.460454523563385,-0.664946436882019,-9.734596252441406
1745728932.0726192,0.024219589307904243,-0.01789921522140503,-0.31024613976478577,0.5238466858863831,-0.9611132740974426,-9.78199291229248
1745728932.0758643,0.01641882210969925,-0.025931816548109055,-0.31176623702049255,0.48164716362953186,-0.7014835476875305,-9.774579048156738
1745728932.113357,0.02274751290678978,-0.01789158210158348,-0.31513139605522156,0.41565823554992676,-0.8184005618095398,-9.840646743774414
1745728932.1253717,0.014057094231247902,-0.020867224782705307,-0.3141416013240814,0.5360819697380066,-1.0059868097305298,-9.668235778808594
1745728932.125467,0.023909423500299454,-0.020991763100028038,-0.31352654099464417,0.3889596164226532,-0.7826817035675049,-9.637049674987793
1745728932.125542,0.0023731912951916456,-0.01924237422645092,-0.3146172761917114,0.6235529184341431,-1.012953519821167,-9.803723335266113
1745728932.1256087,0.010788680985569954,-0.02008328028023243,-0.3121558427810669,0.4327310621738434,-0.8318427801132202,-9.750267028808594
1745728932.1579401,0.004554263316094875,-0.016777966171503067,-0.31384313106536865,0.42382746934890747,-0.8777415156364441,-9.66981029510498
1745728932.1597946,0.009424443356692791,-0.022090155631303787,-0.3131733536720276,0.5501214861869812,-0.7965821027755737,-9.68780517578125
1745728932.1632361,0.0021016367245465517,-0.018550490960478783,-0.30263009667396545,0.3781279921531677,-0.6943772435188293,-9.747091293334961
1745728932.1996543,-0.015545740723609924,-0.019313838332891464,-0.30087339878082275,0.5484699010848999,-1.0203907489776611,-9.969378471374512
1745728932.203596,0.008466553874313831,-0.01995943672955036,-0.30086666345596313,0.3785604238510132,-0.5968787670135498,-9.733522415161133
1745728932.207197,0.00397326797246933,-0.017254991456866264,-0.30155882239341736,0.4430805742740631,-0.9336279034614563,-9.683126449584961
1745728932.2091022,0.003728799056261778,-0.022429469972848892,-0.29937636852264404,0.4571292996406555,-0.7825740575790405,-9.620572090148926
1745728932.2115152,0.020531663671135902,-0.014001095667481422,-0.2990204691886902,0.4269203543663025,-0.7297797203063965,-9.776937484741211
1745728932.2422519,0.0066724782809615135,-0.020840570330619812,-0.29710865020751953,0.5832743644714355,-0.9231777191162109,-9.791415214538574
1745728932.2438612,0.01992594264447689,-0.017085691913962364,-0.29656314849853516,0.37751102447509766,-0.7898347973823547,-9.72523307800293
1745728932.2462187,0.003728410229086876,-0.016209736466407776,-0.29997244477272034,0.5210725665092468,-0.9470096826553345,-9.744626998901367
1745728932.24963,0.01269606314599514,-0.01953129842877388,-0.2981753647327423,0.36965349316596985,-0.7517495155334473,-9.771390914916992
1745728932.2858725,-0.0008831977611407638,-0.01646430417895317,-0.29963135719299316,0.4613882899284363,-0.8948343992233276,-9.750835418701172
1745728932.286055,-0.0027173496782779694,-0.021020948886871338,-0.3004099726676941,0.49582639336586,-0.831638514995575,-9.766843795776367
1745728932.2861347,0.003211854724213481,-0.01414575707167387,-0.2996556758880615,0.4854283332824707,-0.8581818342208862,-9.759523391723633
1745728932.2885454,-0.006219173781573772,-0.022880619391798973,-0.30143389105796814,0.5158234238624573,-0.798346757888794,-9.742162704467773
1745728932.2886176,0.011407041922211647,-0.01676246151328087,-0.29851198196411133,0.419708251953125,-0.8969587087631226,-9.71027946472168
1745728932.329325,0.002822173060849309,-0.013374201953411102,-0.29820019006729126,0.5320926904678345,-0.8161875009536743,-9.695378303527832
1745728932.3311625,0.015969181433320045,-0.02150731533765793,-0.29468798637390137,0.41955479979515076,-0.8218439221382141,-9.741971969604492
1745728932.3331559,0.010426122695207596,-0.016128074377775192,-0.29519733786582947,0.4799148142337799,-0.8161656260490417,-9.760221481323242
1745728932.3350842,0.016074534505605698,-0.019990045577287674,-0.2941575050354004,0.4053519368171692,-0.7465575933456421,-9.831125259399414
1745728932.3721066,0.014930995181202888,-0.017598401755094528,-0.29801639914512634,0.4310343861579895,-0.8403042554855347,-9.755167961120605
1745728932.3743062,0.004186899401247501,-0.02526911534368992,-0.2978852689266205,0.5248618125915527,-0.746337890625,-9.698617935180664
1745728932.3762963,0.008762168698012829,-0.017858486622571945,-0.2984044849872589,0.45673784613609314,-1.061913013458252,-9.817712783813477
1745728932.3792546,-0.0014055793872103095,-0.019645368680357933,-0.29772570729255676,0.5229975581169128,-0.8542670011520386,-9.74443531036377
1745728932.414496,-0.005819170735776424,-0.018182924017310143,-0.2960222363471985,0.5606800317764282,-0.9608501195907593,-9.618693351745605
1745728932.417467,0.0011736052110791206,-0.018990248441696167,-0.2960209548473358,0.3293597996234894,-0.5754268765449524,-9.748394012451172
1745728932.4200299,0.009449458681046963,-0.015577660873532295,-0.2946750819683075,0.5149508714675903,-0.8978659510612488,-9.866239547729492
1745728932.4206293,0.0049497508443892,-0.02352006360888481,-0.29326575994491577,0.4044278562068939,-0.5973420739173889,-9.755045890808105
1745728932.4563806,0.019156325608491898,-0.017007235437631607,-0.2953566014766693,0.3813551068305969,-0.9555916786193848,-9.804333686828613
1745728932.457763,0.0021395795047283173,-0.0232851542532444,-0.2938421666622162,0.45149070024490356,-0.8546876907348633,-9.733952522277832
1745728932.4602046,0.008607078343629837,-0.017016807571053505,-0.2919115424156189,0.3758145272731781,-0.8425200581550598,-9.740483283996582
1745728932.4614546,0.005437714979052544,-0.01970512419939041,-0.29368701577186584,0.6113212704658508,-0.9671276807785034,-9.642535209655762
1745728932.4658353,0.0023440984077751637,-0.021681617945432663,-0.2953125536441803,0.4189080595970154,-0.7223024964332581,-9.725489616394043
1745728932.5017135,-0.004589305259287357,-0.02078654244542122,-0.2957666516304016,0.6097971200942993,-0.9506807327270508,-9.85418701171875
1745728932.5034027,-0.005408227443695068,-0.021704405546188354,-0.2959516644477844,0.4830347001552582,-0.8182311058044434,-9.76121997833252
1745728932.5045812,-0.00756479799747467,-0.019383369013667107,-0.2939956784248352,0.3400954604148865,-0.8804241418838501,-9.70622730255127
1745728932.5064464,-0.00742505956441164,-0.023952553048729897,-0.2934117317199707,0.47754478454589844,-0.8172065615653992,-9.705248832702637
1745728932.5433114,-0.010596430860459805,-0.020725473761558533,-0.2896496653556824,0.5227909088134766,-0.8710983395576477,-9.727818489074707
1745728932.5450997,0.0020111682824790478,-0.02444799616932869,-0.2910664975643158,0.4051949083805084,-0.5656602382659912,-9.695197105407715
1745728932.5458555,0.0049955518916249275,-0.020095232874155045,-0.2917686104774475,0.3608300983905792,-0.8057869076728821,-9.89126205444336
1745728932.547603,0.0010095590259879827,-0.02303309552371502,-0.2907096743583679,0.43001145124435425,-0.7188006639480591,-9.707971572875977
1745728932.5864654,0.01772965118288994,-0.015136358328163624,-0.29232174158096313,0.3639152944087982,-0.6997920274734497,-9.587015151977539
1745728932.5878153,-0.0027762209065258503,-0.025111382827162743,-0.28970909118652344,0.572067379951477,-0.960791289806366,-9.732263565063477
1745728932.5894966,0.012191287241876125,-0.021475400775671005,-0.28950828313827515,0.41865453124046326,-0.7090953588485718,-9.893217086791992
1745728932.5907235,-0.005530348513275385,-0.018704015761613846,-0.28923943638801575,0.5221692323684692,-0.9474422335624695,-9.853348731994629
1745728932.5907893,0.0035172675270587206,-0.021499302238225937,-0.2893698811531067,0.4040033221244812,-0.7039084434509277,-9.585174560546875
1745728932.6351483,-0.007039573974907398,-0.02027938887476921,-0.2890797555446625,0.47719818353652954,-0.8506423830986023,-9.667289733886719
1745728932.6384664,-0.011433087289333344,-0.025666892528533936,-0.2893068194389343,0.5103288292884827,-0.7970839738845825,-9.979686737060547
1745728932.6426299,0.008549699559807777,-0.016129299998283386,-0.2896426320075989,0.33146753907203674,-0.70960533618927,-9.835494995117188
1745728932.6439939,-0.009472663514316082,-0.022279243916273117,-0.2905743718147278,0.44408243894577026,-0.7334327697753906,-9.507977485656738
1745728932.6720998,0.010530771687626839,-0.021882444620132446,-0.2887538969516754,0.36615073680877686,-0.76630038022995,-9.562458038330078
1745728932.6724172,0.002410810673609376,-0.018525030463933945,-0.29039669036865234,0.5288418531417847,-0.6727150678634644,-9.909979820251465
1745728932.6740553,0.013463558629155159,-0.02088681235909462,-0.28951582312583923,0.4469683766365051,-0.7717409133911133,-9.94507884979248
1745728932.675882,0.008017103187739849,-0.017125330865383148,-0.2879487872123718,0.4623262286186218,-0.8646059036254883,-9.60912799835205
1745728932.6779609,0.002061141189187765,-0.02341228537261486,-0.2879236042499542,0.4576800763607025,-0.8306905627250671,-9.655784606933594
1745728932.7170036,0.0027195820584893227,-0.0197346992790699,-0.2878059148788452,0.39834076166152954,-0.8485039472579956,-9.920947074890137
1745728932.7204852,-0.007003198377788067,-0.020823534578084946,-0.28711146116256714,0.5013006329536438,-0.6493662595748901,-9.858973503112793
1745728932.7235672,0.0037012710236012936,-0.018930157646536827,-0.291818231344223,0.39768898487091064,-0.8313764333724976,-9.644586563110352
1745728932.7251534,-0.004894099198281765,-0.022276947274804115,-0.2913461923599243,0.5050098896026611,-0.6603503227233887,-9.635948181152344
1745728932.7590756,0.0070462762378156185,-0.02424049563705921,-0.29118913412094116,0.3833257257938385,-0.6349713206291199,-9.84691333770752
1745728932.760966,0.005299918819218874,-0.016535699367523193,-0.2884615957736969,0.4918890595436096,-0.9134602546691895,-9.767309188842773
1745728932.76141,0.008724805898964405,-0.017381737008690834,-0.2904554009437561,0.31909555196762085,-0.6345996260643005,-9.580554008483887
1745728932.76396,0.013539518229663372,-0.020798813551664352,-0.2863549292087555,0.45787882804870605,-0.9087523221969604,-9.729621887207031
1745728932.7650046,0.00565264280885458,-0.02150871977210045,-0.286578893661499,0.4176773130893707,-0.644304096698761,-9.911388397216797
1745728932.8100395,0.017669666558504105,-0.015623865649104118,-0.2882872223854065,0.38472434878349304,-0.8505393862724304,-9.890729904174805
1745728932.8101387,-0.004031887277960777,-0.021835070103406906,-0.2883172631263733,0.5284974575042725,-0.83843994140625,-9.615735054016113
1745728932.8102126,0.002996795577928424,-0.0240329522639513,-0.2899486720561981,0.36237671971321106,-0.7254401445388794,-9.70353889465332
1745728932.8102565,-0.0033181675244122744,-0.018848013132810593,-0.2910415828227997,0.5059217214584351,-0.9732738733291626,-9.860241889953613
1745728932.8431206,-0.0036415073554962873,-0.01904766634106636,-0.28696727752685547,0.3480135500431061,-0.7128915190696716,-9.70530891418457
1745728932.8467922,-0.011966174468398094,-0.018743790686130524,-0.29002150893211365,0.5354809761047363,-0.8974542617797852,-9.64546012878418
1745728932.85213,-0.0072497352957725525,-0.0225943885743618,-0.2868754267692566,0.46178245544433594,-0.6680867075920105,-9.730123519897461
1745728932.852319,-6.329463940346614e-05,-0.016078617423772812,-0.2887435555458069,0.307512104511261,-0.6794670224189758,-9.916400909423828
1745728932.887036,0.00278029078617692,-0.020154671743512154,-0.2873697280883789,0.534034252166748,-0.7124103307723999,-9.798056602478027
1745728932.8914795,0.006607647053897381,-0.020077411085367203,-0.28798940777778625,0.504560112953186,-0.8347879648208618,-9.730546951293945
1745728932.891668,0.017729099839925766,-0.019789138808846474,-0.28831860423088074,0.4458187520503998,-0.6164596676826477,-9.869647979736328
1745728932.8925958,0.01906469091773033,-0.01422581821680069,-0.2868715822696686,0.3824463188648224,-0.8637163043022156,-9.883655548095703
1745728932.932037,0.007860389538109303,-0.021171417087316513,-0.285722553730011,0.5168171525001526,-0.7979933619499207,-9.563979148864746
1745728932.9330611,0.02104448899626732,-0.015378540381789207,-0.2855205535888672,0.40681004524230957,-0.6404451131820679,-9.624432563781738
1745728932.9351537,0.004104994237422943,-0.020555982366204262,-0.2849650979042053,0.5301731824874878,-0.8993508219718933,-9.91456127166748
1745728932.9446547,0.015391114167869091,-0.018611963838338852,-0.2843083143234253,0.3572643995285034,-0.6353102922439575,-9.886106491088867
1745728932.9451108,0.007348478771746159,-0.015316164121031761,-0.2833835184574127,0.43606919050216675,-0.8537079095840454,-9.650453567504883
1745728932.975286,0.008210106752812862,-0.022831523790955544,-0.28594550490379333,0.36285820603370667,-0.6167393922805786,-9.655576705932617
1745728932.9773674,0.008308587595820427,-0.017948662862181664,-0.28503552079200745,0.38533979654312134,-0.7304067611694336,-9.894539833068848
1745728932.979909,0.001534082111902535,-0.018926233053207397,-0.2868843078613281,0.48032695055007935,-0.7823973894119263,-9.893037796020508
1745728932.9832783,0.02099878527224064,-0.015413160435855389,-0.2839236259460449,0.38758888840675354,-0.6162102818489075,-9.616314888000488
1745728933.0175903,0.003545557614415884,-0.023874562233686447,-0.28401613235473633,0.5622565746307373,-0.7086598873138428,-9.625004768371582
1745728933.0210278,0.0214556697756052,-0.020428234711289406,-0.28467780351638794,0.39480409026145935,-0.6627742052078247,-9.852392196655273
1745728933.0235023,0.017843568697571754,-0.012759199365973473,-0.28539836406707764,0.48163309693336487,-0.6400946378707886,-9.812265396118164
1745728933.0270028,0.027440745383501053,-0.02103513292968273,-0.2835055887699127,0.43405309319496155,-0.6929675936698914,-9.629131317138672
1745728933.0302684,0.024579737335443497,-0.016915906220674515,-0.282215416431427,0.4213690757751465,-0.6899616718292236,-9.656731605529785
1745728933.0610287,0.02539612352848053,-0.02351631596684456,-0.2841649353504181,0.44425955414772034,-0.7164319753646851,-9.947088241577148
1745728933.063709,0.03253516927361488,-0.014323996379971504,-0.2826853096485138,0.3341948390007019,-0.7209601998329163,-9.873836517333984
1745728933.0658321,0.022327426820993423,-0.01954762265086174,-0.28266987204551697,0.48034483194351196,-0.6360477209091187,-9.576478958129883
1745728933.0684102,0.03310629352927208,-0.019453469663858414,-0.28276628255844116,0.35555267333984375,-0.8304446339607239,-9.642197608947754
1745728933.1132,0.02766144834458828,-0.015307864174246788,-0.28376689553260803,0.49316248297691345,-0.7376059293746948,-9.874544143676758
1745728933.113259,0.030422892421483994,-0.018654968589544296,-0.2813311219215393,0.3816951811313629,-0.6508888006210327,-9.80610179901123
1745728933.116138,0.02585759200155735,-0.01775815524160862,-0.2827194333076477,0.37016886472702026,-0.5797237157821655,-9.653610229492188
1745728933.120033,0.034227173775434494,-0.015788378193974495,-0.28050756454467773,0.4577025771141052,-0.8743530511856079,-9.996299743652344
1745728933.1452098,0.02118753455579281,-0.016173768788576126,-0.2800232768058777,0.44328656792640686,-0.6451201438903809,-9.838399887084961
1745728933.1481993,0.033784277737140656,-0.015825213864445686,-0.2789413034915924,0.3556543290615082,-0.7836252450942993,-9.69404411315918
1745728933.1491177,0.02075180970132351,-0.01962420716881752,-0.2781344950199127,0.4533981680870056,-0.7243160605430603,-9.661738395690918
1745728933.1513214,0.03050163760781288,-0.01722900941967964,-0.28049832582473755,0.33559584617614746,-0.5332872867584229,-9.84166145324707
1745728933.1890674,0.033377259969711304,-0.013920580968260765,-0.28107157349586487,0.5138884782791138,-0.8359400629997253,-9.785209655761719
1745728933.1903393,0.03263437747955322,-0.01735050603747368,-0.2825120985507965,0.3865301012992859,-0.565283477306366,-9.619077682495117
1745728933.1919646,0.03252624720335007,-0.015378477983176708,-0.28193098306655884,0.4849400520324707,-0.8064866065979004,-9.775060653686523
1745728933.1920767,0.03402521088719368,-0.016549542546272278,-0.2792195677757263,0.4529505670070648,-0.7593749761581421,-9.814477920532227
1745728933.1924872,0.03591039031744003,-0.013178341090679169,-0.2788093686103821,0.28231900930404663,-0.7484806776046753,-9.725152969360352
1745728933.233233,0.03029739484190941,-0.016006523743271828,-0.2771022319793701,0.5276898145675659,-0.8633200526237488,-9.685110092163086
1745728933.2360985,0.01134883426129818,-0.0176958329975605,-0.2736189663410187,0.4192795753479004,-0.5796736478805542,-9.736751556396484
1745728933.2385044,0.0016965132672339678,-0.017772851511836052,-0.2741014361381531,0.44160252809524536,-0.8737217783927917,-9.666505813598633
1745728933.2787943,0.003037621732801199,-0.022715266793966293,-0.2761215567588806,0.4710152745246887,-0.7312074303627014,-9.777502059936523
1745728933.2789145,0.011092298664152622,-0.016053926199674606,-0.2728880047798157,0.32302573323249817,-0.7831045389175415,-9.929977416992188
1745728933.2794092,-0.0010514681925997138,-0.0176840927451849,-0.27156519889831543,0.5129884481430054,-0.7601004242897034,-9.669914245605469
1745728933.2813385,0.021313125267624855,-0.015271691605448723,-0.27189698815345764,0.34154725074768066,-0.5521581768989563,-9.54823112487793
1745728933.2834294,0.002885561902076006,-0.018952518701553345,-0.27181631326675415,0.49262967705726624,-0.8623712658882141,-9.77442741394043
1745728933.3214183,0.019105900079011917,-0.01852269098162651,-0.2705630660057068,0.3719247281551361,-0.5854962468147278,-9.836469650268555
1745728933.323962,0.012534035369753838,-0.013597188517451286,-0.27188077569007874,0.41132718324661255,-0.8705959320068359,-9.754626274108887
1745728933.326584,0.009855087846517563,-0.01932055875658989,-0.2709487974643707,0.40466099977493286,-0.6963945627212524,-9.613733291625977
1745728933.3299198,0.012183195911347866,-0.01633315347135067,-0.2725067734718323,0.3571982979774475,-0.7447177767753601,-9.73786735534668
1745728933.3602996,-0.0016719333361834288,-0.018691489472985268,-0.27056336402893066,0.557603657245636,-0.8654292821884155,-9.929120063781738
1745728933.3618894,0.017391178756952286,-0.013952085748314857,-0.27130991220474243,0.35177937150001526,-0.6312676668167114,-9.742368698120117
1745728933.363427,0.001182384672574699,-0.01832626387476921,-0.27167779207229614,0.5035415887832642,-0.8647812604904175,-9.659158706665039
1745728933.3656824,0.013925375416874886,-0.01911277137696743,-0.2691556215286255,0.37043172121047974,-0.6873849034309387,-9.6495361328125
1745728933.3683348,0.011562359519302845,-0.01083920057862997,-0.27054309844970703,0.43910473585128784,-0.6885368227958679,-9.820438385009766
1745728933.404664,0.012993866577744484,-0.018335197120904922,-0.2701745927333832,0.4639713168144226,-0.7814098596572876,-9.775137901306152
1745728933.4072723,0.016933592036366463,-0.013490627519786358,-0.26576128602027893,0.34297722578048706,-0.7682529091835022,-9.653776168823242
1745728933.4092336,0.0018138164887204766,-0.020410209894180298,-0.26752716302871704,0.45752978324890137,-0.8052604794502258,-9.774269104003906
1745728933.4094641,0.014507020823657513,-0.013276921585202217,-0.2689976692199707,0.31738075613975525,-0.7018793821334839,-9.838566780090332
1745728933.4460416,-0.003519956022500992,-0.015842316672205925,-0.2704097330570221,0.502604603767395,-0.7571171522140503,-9.74360466003418
1745728933.4484313,0.005871438886970282,-0.01931210607290268,-0.2710769772529602,0.4494035243988037,-0.8016713261604309,-9.747100830078125
1745728933.4500937,-0.003739952342584729,-0.017186706885695457,-0.27046269178390503,0.49713072180747986,-0.8341647386550903,-9.799514770507812
1745728933.4537086,-0.005039577838033438,-0.018065664917230606,-0.2668501138687134,0.4029577672481537,-0.576738715171814,-9.645383834838867
1745728933.4901493,0.009134098887443542,-0.017694681882858276,-0.26444077491760254,0.3358536958694458,-0.7316352128982544,-9.783236503601074
1745728933.493975,-0.0020852680318057537,-0.018977468833327293,-0.264272004365921,0.47799357771873474,-0.6297459006309509,-9.771329879760742
1745728933.4961162,0.014265683479607105,-0.01907958649098873,-0.26709938049316406,0.34663036465644836,-0.7058917880058289,-9.814570426940918
1745728933.4979937,-0.002999525284394622,-0.019120121374726295,-0.2671979069709778,0.48331791162490845,-0.8486262559890747,-9.770941734313965
1745728933.5345619,0.0006787630845792592,-0.020249102264642715,-0.2670708894729614,0.3615860641002655,-0.6813490986824036,-9.717144966125488
1745728933.535955,-0.006309964694082737,-0.01596885919570923,-0.26465705037117004,0.45749935507774353,-1.0736658573150635,-9.793402671813965
1745728933.537468,-0.00873076543211937,-0.020584985613822937,-0.26509666442871094,0.44825705885887146,-0.710008978843689,-9.701251983642578
1745728933.5397196,-0.01060565747320652,-0.01759863831102848,-0.26422354578971863,0.4194295406341553,-0.7458010911941528,-9.696619987487793
1745728933.5404963,-0.015543187968432903,-0.018432235345244408,-0.2637728750705719,0.5016216039657593,-0.7627062797546387,-9.701778411865234
1745728933.5765944,-0.0022012535482645035,-0.017865721136331558,-0.2665761411190033,0.27365586161613464,-0.5458899140357971,-9.749489784240723
1745728933.5790524,-0.012966285459697247,-0.018496539443731308,-0.26558440923690796,0.5221530795097351,-0.8798677325248718,-9.83784008026123
1745728933.581067,-0.0019654978532344103,-0.019760552793741226,-0.264167845249176,0.28408747911453247,-0.6391428709030151,-9.762483596801758
1745728933.5817993,-0.015765056014060974,-0.016830097883939743,-0.2687622904777527,0.44150155782699585,-0.573822557926178,-9.69575309753418
1745728933.6200323,-0.027099544182419777,-0.013343693688511848,-0.2672678828239441,0.3645411729812622,-0.8235939741134644,-9.771463394165039
1745728933.6228147,-0.024365052580833435,-0.0149946678429842,-0.26785701513290405,0.5336467027664185,-0.7201837301254272,-9.831463813781738
1745728933.6246088,-0.019886722788214684,-0.016462553292512894,-0.2679081857204437,0.3072671890258789,-0.7001253962516785,-9.90173625946045
1745728933.6247113,-0.02883635088801384,-0.017621692270040512,-0.26816973090171814,0.4548155665397644,-0.686630129814148,-9.76781177520752
1745728933.6624389,-0.01134583167731762,-0.013076652772724628,-0.2664516568183899,0.3327208459377289,-0.4472047686576843,-9.630464553833008
1745728933.6633506,-0.023218071088194847,-0.01503252424299717,-0.26855674386024475,0.4311627447605133,-0.8180206418037415,-9.736665725708008
1745728933.66569,-0.015290921553969383,-0.017485816031694412,-0.2687522768974304,0.4098381996154785,-0.47179484367370605,-9.769591331481934
1745728933.6663826,-0.011255303397774696,-0.012963864021003246,-0.26912012696266174,0.39305514097213745,-0.7531604170799255,-9.846480369567871
1745728933.6690586,-0.01808326132595539,-0.018656786531209946,-0.26932045817375183,0.4199236035346985,-0.6064672470092773,-9.707383155822754
1745728933.7056212,-0.009148946031928062,-0.011595567688345909,-0.269931823015213,0.3238435387611389,-0.6463180780410767,-9.672532081604004
1745728933.7080932,-0.027059510350227356,-0.015551780350506306,-0.2718636989593506,0.571750283241272,-0.7440741658210754,-9.824498176574707
1745728933.7109823,-0.008578347973525524,-0.014172440394759178,-0.271012544631958,0.357712060213089,-0.5476711392402649,-9.821557998657227
1745728933.7139783,-0.018632248044013977,-0.014536748640239239,-0.2722763121128082,0.4361182749271393,-0.7304664850234985,-9.796341896057129
1745728933.7505991,-0.012354551814496517,-0.01556588988751173,-0.27179330587387085,0.3536648154258728,-0.5974959135055542,-9.632479667663574
1745728933.753733,-0.009322340600192547,-0.00771520659327507,-0.2723310589790344,0.38523831963539124,-0.5873730778694153,-9.706367492675781
1745728933.7581584,-0.01599050685763359,-0.016058096662163734,-0.2737096846103668,0.4251597821712494,-0.6314252614974976,-9.811055183410645
1745728933.7598202,-0.001092745689675212,-0.010060329921543598,-0.27349090576171875,0.34789878129959106,-0.6202192306518555,-9.768046379089355
1745728933.7634604,-0.01805661991238594,-0.01360755879431963,-0.2749564051628113,0.45942258834838867,-0.727725625038147,-9.762669563293457
1745728933.792885,-0.003615672467276454,-0.012917210347950459,-0.2738726735115051,0.283215194940567,-0.6167169809341431,-9.786348342895508
1745728933.7952085,-0.02341475710272789,-0.013938797637820244,-0.2753221392631531,0.48268547654151917,-0.7321505546569824,-9.799066543579102
1745728933.795337,-0.014421505853533745,-0.015517735853791237,-0.2740042209625244,0.3832225799560547,-0.6523292660713196,-9.860221862792969
1745728933.7960021,-0.012539692223072052,-0.008527887053787708,-0.2753034830093384,0.4332443177700043,-0.6254765391349792,-9.729460716247559
1745728933.8364289,-0.017665283754467964,-0.011577429249882698,-0.2787697911262512,0.42842555046081543,-0.5291959643363953,-9.811083793640137
1745728933.8389297,-0.008523097261786461,-0.013235332444310188,-0.2796117663383484,0.3541466295719147,-0.6831473112106323,-9.760342597961426
1745728933.8424702,-0.016663962975144386,-0.013780164532363415,-0.2778303027153015,0.4925733506679535,-0.6249199509620667,-9.684028625488281
1745728933.8443875,-0.006624430418014526,-0.014216318726539612,-0.2795829772949219,0.3483569920063019,-0.6155540347099304,-9.857847213745117
1745728933.8478158,-0.010956158861517906,-0.011885327287018299,-0.2805955111980438,0.44918662309646606,-0.6853799223899841,-9.86506462097168
1745728933.8791857,-0.009968025609850883,-0.015460359863936901,-0.2798801064491272,0.3710777461528778,-0.4510815143585205,-9.699939727783203
1745728933.8804145,-0.007167401723563671,-0.011364003643393517,-0.28091469407081604,0.40606528520584106,-0.8124586343765259,-9.723623275756836
1745728933.8839462,-0.007495999336242676,-0.015077893622219563,-0.2815285325050354,0.38545987010002136,-0.4579413831233978,-9.773279190063477
1745728933.8853195,-0.004558174405246973,-0.011041577905416489,-0.28389257192611694,0.3510367274284363,-0.5772959589958191,-9.800376892089844
1745728933.9204915,-0.007365340832620859,-0.010849577374756336,-0.28539329767227173,0.498385488986969,-0.6874619722366333,-9.585464477539062
1745728933.922956,-0.00048183967010118067,-0.010751796886324883,-0.28693509101867676,0.28117018938064575,-0.4731561541557312,-9.66291618347168
1745728933.9274144,-0.006705389823764563,-0.012718088924884796,-0.2845732569694519,0.5606850385665894,-0.8243829607963562,-9.910263061523438
1745728933.9292278,-0.001607065787538886,-0.013565157540142536,-0.2845887243747711,0.33113688230514526,-0.5380149483680725,-9.896660804748535
1745728933.9644604,0.011610378511250019,-0.017703667283058167,-0.2964874804019928,0.3746858239173889,-0.7281967401504517,-9.920785903930664
1745728933.9645274,0.012639254331588745,-0.016628725454211235,-0.2963353395462036,0.4705953001976013,-0.6350291967391968,-9.750967025756836
1745728933.966343,0.01925821788609028,-0.01729106903076172,-0.29620131850242615,0.2867306172847748,-0.5585540533065796,-9.701242446899414
1745728933.9686067,0.015552920289337635,-0.01988312229514122,-0.2951706349849701,0.4933501183986664,-0.6409193277359009,-9.73172378540039
1745728934.0073898,0.034837108105421066,-0.018132172524929047,-0.29466497898101807,0.36402544379234314,-0.3132093548774719,-9.784421920776367
1745728934.0101726,0.028081107884645462,-0.017383206635713577,-0.2973542809486389,0.4527124762535095,-0.7605345249176025,-9.825254440307617
1745728934.0120656,0.0371667854487896,-0.021031774580478668,-0.29630202054977417,0.3864842653274536,-0.4302118718624115,-9.673051834106445
1745728934.0134406,0.033787619322538376,-0.01695539988577366,-0.2957683205604553,0.31919288635253906,-0.7468748092651367,-9.762136459350586
1745728934.0155602,0.0287559125572443,-0.01955028995871544,-0.29617851972579956,0.45463353395462036,-0.6204330325126648,-9.746745109558105
1745728934.0486817,0.03619398549199104,-0.01638064719736576,-0.29858869314193726,0.3288232982158661,-0.5261935591697693,-9.741511344909668
1745728934.0503564,0.02250397764146328,-0.01858990453183651,-0.29642343521118164,0.5518921613693237,-0.7383989095687866,-9.820882797241211
1745728934.0526624,0.04352064058184624,-0.017167961224913597,-0.29850271344184875,0.35026445984840393,-0.46223801374435425,-9.733306884765625
1745728934.0530138,0.03329125791788101,-0.017217401415109634,-0.2986792325973511,0.4188757538795471,-0.7728885412216187,-9.771371841430664
1745728934.0922856,0.03828109800815582,-0.019581908360123634,-0.2976866066455841,0.35064178705215454,-0.5962859988212585,-9.719006538391113
1745728934.0948515,0.04616079851984978,-0.00898801814764738,-0.2977806627750397,0.3106587827205658,-0.5610541105270386,-9.75174331665039
1745728934.0989466,0.04142314940690994,-0.02043493464589119,-0.2971706688404083,0.41977888345718384,-0.6459044218063354,-9.658703804016113
1745728934.0992417,0.05161498859524727,-0.01297660730779171,-0.2987085282802582,0.3529275357723236,-0.5145662426948547,-9.715806007385254
1745728934.1349864,0.04414702206850052,-0.017008673399686813,-0.3006797730922699,0.5159977674484253,-0.6794465184211731,-9.920450210571289
1745728934.1365008,0.05043460801243782,-0.018108444288372993,-0.3007585406303406,0.33922529220581055,-0.6024315357208252,-9.893122673034668
1745728934.1379292,0.03824658691883087,-0.016189521178603172,-0.3000221848487854,0.46719056367874146,-0.7670596837997437,-9.714523315429688
1745728934.1415184,0.04200312867760658,-0.021290387958288193,-0.2983159124851227,0.43669480085372925,-0.690180778503418,-9.693817138671875
1745728934.143886,0.04534833878278732,-0.014131883159279823,-0.2986176013946533,0.41690048575401306,-0.6247027516365051,-9.8117094039917
1745728934.1774528,0.047424204647541046,-0.019534112885594368,-0.3005960285663605,0.40860503911972046,-0.4237494468688965,-9.752177238464355
1745728934.1780674,0.06983957439661026,-0.01914672739803791,-0.3028009235858917,0.3602616786956787,-0.680256724357605,-9.889016151428223
1745728934.1792352,0.05913420766592026,-0.01644427701830864,-0.3017652630805969,0.4221966862678528,-0.7132810950279236,-9.839454650878906
1745728934.1819522,0.06697048246860504,-0.01712847873568535,-0.3000057339668274,0.3360074460506439,-0.6899564266204834,-9.696332931518555
1745728934.227981,0.057815730571746826,-0.014834900386631489,-0.29971903562545776,0.4117424488067627,-0.7327003479003906,-9.664702415466309
1745728934.2280269,0.05739393085241318,-0.020558830350637436,-0.30150672793388367,0.422372430562973,-0.5101184248924255,-9.790576934814453
1745728934.231554,0.061693184077739716,-0.015361398458480835,-0.3035808503627777,0.44759446382522583,-0.8412055969238281,-9.890457153320312
1745728934.233904,0.056885890662670135,-0.01701166294515133,-0.3049296438694,0.41395559906959534,-0.5217209458351135,-9.7259521484375
1745728934.266276,0.06138176470994949,-0.01816924475133419,-0.30417293310165405,0.32921454310417175,-0.6652848720550537,-9.683862686157227
1745728934.267561,0.05585341900587082,-0.01690748892724514,-0.30566471815109253,0.45660725235939026,-0.7617600560188293,-9.679548263549805
1745728934.2708068,0.0641217976808548,-0.014142142608761787,-0.30343902111053467,0.24852398037910461,-0.5552893280982971,-9.768277168273926
1745728934.2726543,0.06569157540798187,-0.014541829004883766,-0.30354154109954834,0.5118807554244995,-0.7690576314926147,-9.764782905578613
1745728934.2758865,0.06901653110980988,-0.02051718905568123,-0.30569183826446533,0.3423195779323578,-0.4480443000793457,-9.746477127075195
1745728934.3104653,0.0388815812766552,-0.022353995591402054,-0.3138313889503479,0.31042784452438354,-0.8419243097305298,-9.802803039550781
1745728934.3124893,0.030711542814970016,-0.02068093605339527,-0.3135562241077423,0.4946097433567047,-0.8484563827514648,-9.828386306762695
1745728934.31474,0.04151804745197296,-0.022711962461471558,-0.31101614236831665,0.3112848401069641,-0.7741008996963501,-9.780346870422363
1745728934.3510513,0.029943818226456642,-0.022616976872086525,-0.3116723895072937,0.49886202812194824,-0.8601342439651489,-9.688061714172363
1745728934.3512409,0.043162085115909576,-0.02091759815812111,-0.3134535849094391,0.39171943068504333,-0.5809304118156433,-9.63636302947998
1745728934.3540163,0.03650113567709923,-0.021805647760629654,-0.31164059042930603,0.4585503935813904,-0.9868720173835754,-9.786865234375
1745728934.3541896,0.03525283560156822,-0.023374760523438454,-0.3115695118904114,0.41257739067077637,-0.6537816524505615,-9.772588729858398
1745728934.3551402,0.039987899363040924,-0.022043190896511078,-0.3105948865413666,0.3012833893299103,-0.8741695284843445,-9.822603225708008
1745728934.3953698,0.030993610620498657,-0.02105354145169258,-0.312013179063797,0.37985140085220337,-0.7576054334640503,-9.6503324508667
1745728934.3978765,0.04009504243731499,-0.021745292469859123,-0.31356436014175415,0.29312771558761597,-0.6856045722961426,-9.616042137145996
1745728934.3990839,0.026496857404708862,-0.02237209677696228,-0.3122657239437103,0.5463892221450806,-0.881901741027832,-9.840351104736328
1745728934.4004323,0.038549356162548065,-0.02427859976887703,-0.3130975067615509,0.35845810174942017,-0.6298061609268188,-9.852354049682617
1745728934.435256,0.03509197384119034,-0.020885592326521873,-0.3147779405117035,0.4375399947166443,-0.9720741510391235,-9.775171279907227
1745728934.4364455,0.03281901031732559,-0.02615932747721672,-0.3113793730735779,0.3851850926876068,-0.7657462358474731,-9.573030471801758
1745728934.4387102,0.03941049054265022,-0.017539983615279198,-0.31068649888038635,0.3904302716255188,-0.7697809934616089,-9.744111061096191
1745728934.4420779,0.02777034603059292,-0.026611825451254845,-0.3083000183105469,0.4574761986732483,-0.8377372026443481,-9.82194709777832
1745728934.4424884,0.04119252786040306,-0.016872409731149673,-0.30957111716270447,0.27883440256118774,-0.6842755079269409,-9.6947021484375
1745728934.4814024,0.02994813397526741,-0.02315281704068184,-0.31295540928840637,0.4638672471046448,-0.8159326314926147,-9.61599063873291
1745728934.4830344,0.04076049476861954,-0.022190848365426064,-0.31187885999679565,0.33415117859840393,-0.6425632238388062,-9.783289909362793
1745728934.4831798,0.030140310525894165,-0.021602552384138107,-0.31548166275024414,0.462317556142807,-0.8349383473396301,-9.939116477966309
1745728934.485173,0.03372497111558914,-0.023756099864840508,-0.31095296144485474,0.37702757120132446,-0.8197599649429321,-9.789607048034668
1745728934.524498,0.03709752485156059,-0.015110778622329235,-0.31295913457870483,0.38843709230422974,-0.8373333215713501,-9.5637845993042
1745728934.5275145,0.028973376378417015,-0.024187881499528885,-0.31190696358680725,0.45789164304733276,-0.7027901411056519,-9.625585556030273
1745728934.530546,0.03461313620209694,-0.012912079691886902,-0.3159964680671692,0.42101556062698364,-0.6431834101676941,-9.74335765838623
1745728934.5336835,0.05046045035123825,-0.017234068363904953,-0.315054327249527,0.3479744791984558,-0.6882951855659485,-9.63768196105957
1745728934.565369,0.03920923173427582,-0.017923057079315186,-0.31585055589675903,0.42265409231185913,-0.8317621350288391,-9.778998374938965
1745728934.567557,0.047223664820194244,-0.01845376379787922,-0.3151319622993469,0.30637016892433167,-0.7754896879196167,-9.993820190429688
1745728934.5710797,0.038173653185367584,-0.012834710069000721,-0.3128007650375366,0.33613109588623047,-0.9174829721450806,-9.786126136779785
1745728934.5732496,0.03273659572005272,-0.018861418589949608,-0.3153512477874756,0.4122050702571869,-0.6902434825897217,-9.471354484558105
1745728934.610538,0.04185580462217331,-0.012837965972721577,-0.3148753345012665,0.3861018419265747,-0.8993751406669617,-9.684290885925293
1745728934.6157424,0.03340994566679001,-0.017958713695406914,-0.31657886505126953,0.47948354482650757,-0.6952422857284546,-9.928313255310059
1745728934.6199708,0.04543295502662659,-0.010868405923247337,-0.3165498673915863,0.35986393690109253,-0.7332777380943298,-9.826294898986816
1745728934.6235328,0.035754114389419556,-0.011595837771892548,-0.31768926978111267,0.4782395362854004,-0.9168599247932434,-9.527083396911621
1745728934.6278293,0.03998279944062233,-0.015337377786636353,-0.3154223561286926,0.23015740513801575,-0.7007595300674438,-9.6395845413208
1745728934.6539295,0.041190050542354584,-0.011052695102989674,-0.3173872232437134,0.4641621708869934,-0.977100670337677,-9.912109375
1745728934.6565206,0.022085396572947502,-0.011160981841385365,-0.3082972764968872,0.5531417727470398,-0.9492133855819702,-9.81544303894043
1745728934.6585789,0.03520569950342178,-0.009466538205742836,-0.30669307708740234,0.32373541593551636,-0.7194583415985107,-9.847434997558594
1745728934.6949067,0.025273442268371582,-0.00924660824239254,-0.3080082833766937,0.43098220229148865,-0.9319775700569153,-9.740677833557129
1745728934.6970053,0.03934606909751892,-0.012207668274641037,-0.3055933713912964,0.3874865472316742,-0.6291771531105042,-9.581094741821289
1745728934.7027059,0.033146150410175323,-0.010722732171416283,-0.3041084408760071,0.36397653818130493,-1.015931487083435,-9.796270370483398
1745728934.705976,0.034702736884355545,-0.011783395893871784,-0.30710381269454956,0.387733519077301,-0.6839381456375122,-9.741857528686523
1745728934.7084603,0.03513450175523758,-0.011562570929527283,-0.30642277002334595,0.36085790395736694,-0.941517174243927,-9.738790512084961
1745728934.7379494,0.026431197300553322,-0.014578434638679028,-0.3037181496620178,0.5080938339233398,-0.9424503445625305,-9.722188949584961
1745728934.7380362,0.03658680617809296,-0.011027739383280277,-0.3061417043209076,0.39773887395858765,-0.7810679078102112,-9.77901554107666
1745728934.7397764,0.017720120027661324,-0.013678145594894886,-0.3036234378814697,0.5392552614212036,-1.1173025369644165,-9.785615921020508
1745728934.7420347,0.030563879758119583,-0.014311300590634346,-0.30282044410705566,0.3967791795730591,-0.7542756199836731,-9.675821304321289
1745728934.7821624,0.023700913414359093,-0.009861643426120281,-0.3032801151275635,0.3883129954338074,-0.9762464761734009,-9.821332931518555
1745728934.784008,0.028191417455673218,-0.016137149184942245,-0.3017064929008484,0.41636258363723755,-0.6659435033798218,-9.716940879821777
1745728934.7840502,0.036935292184352875,-0.010326812043786049,-0.30293792486190796,0.3707262873649597,-0.74473637342453,-9.720318794250488
1745728934.785638,0.02806936204433441,-0.019195906817913055,-0.30298054218292236,0.5275915861129761,-0.9863911867141724,-9.771773338317871
1745728934.8237236,0.03856712207198143,-0.012846454977989197,-0.3013829290866852,0.2899143099784851,-0.7879215478897095,-9.750297546386719
1745728934.8263943,0.02400108613073826,-0.013651588931679726,-0.30134761333465576,0.4632643163204193,-1.0757052898406982,-9.745162963867188
1745728934.8275275,0.03367622196674347,-0.015877705067396164,-0.2976517081260681,0.3513113260269165,-0.8153640627861023,-9.633598327636719
1745728934.8297343,0.02363143488764763,-0.012822571210563183,-0.2971217632293701,0.4656936526298523,-0.916342556476593,-9.723596572875977
1745728934.8317368,0.022586684674024582,-0.02005098946392536,-0.2981277406215668,0.5239545106887817,-0.7808922529220581,-9.858175277709961
1745728934.8679476,0.03383264318108559,-0.01364897657185793,-0.29834166169166565,0.39914971590042114,-0.8288800120353699,-9.846418380737305
1745728934.8702302,0.027602681890130043,-0.016450874507427216,-0.2994467318058014,0.43941229581832886,-0.824958324432373,-9.683558464050293
1745728934.8730204,0.03216419741511345,-0.02009895257651806,-0.2978864908218384,0.3050525188446045,-0.9225313067436218,-9.645638465881348
1745728934.8740332,0.030711423605680466,-0.015902508050203323,-0.29520413279533386,0.4532308578491211,-0.8573052287101746,-9.72918701171875
1745728934.912675,0.035639792680740356,-0.017475370317697525,-0.29361021518707275,0.3372111916542053,-0.8433942794799805,-9.764699935913086
1745728934.9204009,0.03143375739455223,-0.013909447006881237,-0.2926715314388275,0.45797672867774963,-0.924205482006073,-9.679664611816406
1745728934.9224212,0.03399825841188431,-0.020114801824092865,-0.2931346595287323,0.403780072927475,-0.703924834728241,-9.711590766906738
1745728934.9236104,0.03730618581175804,-0.015013903379440308,-0.29266437888145447,0.4125272333621979,-0.9405220746994019,-9.858287811279297
1745728934.9277754,0.02784973755478859,-0.019240178167819977,-0.2937019467353821,0.42835575342178345,-0.7874676585197449,-9.788675308227539
1745728934.9553187,0.03326631337404251,-0.019089478999376297,-0.2932879328727722,0.4106578826904297,-1.1093794107437134,-9.794260025024414
1745728934.9585538,0.024548429995775223,-0.020011426880955696,-0.28782135248184204,0.4386011064052582,-0.8771328926086426,-9.677553176879883
1745728934.9605,0.029319997876882553,-0.02059740200638771,-0.29074937105178833,0.3001774251461029,-0.819088339805603,-9.74220085144043
1745728934.9629169,0.024639001116156578,-0.01789805293083191,-0.28885844349861145,0.5054379105567932,-0.9727535247802734,-9.716012954711914
1745728934.9977095,0.03389010578393936,-0.019465722143650055,-0.28829705715179443,0.39764413237571716,-0.5631291270256042,-9.70127010345459
1745728935.000655,0.034499842673540115,-0.02300436794757843,-0.2896265387535095,0.4864974021911621,-1.0323809385299683,-9.834696769714355
1745728935.0032308,0.02922884188592434,-0.023572204634547234,-0.2873143255710602,0.37557291984558105,-0.7842938303947449,-9.824065208435059
1745728935.0080888,0.017240678891539574,-0.027321865782141685,-0.27021726965904236,0.28013646602630615,-0.8316319584846497,-9.889262199401855
1745728935.03861,0.015507248230278492,-0.020613770931959152,-0.2722927927970886,0.506250262260437,-0.8779845237731934,-9.957466125488281
1745728935.0415635,0.018559375777840614,-0.020960608497262,-0.2702271044254303,0.38834285736083984,-0.7778257131576538,-9.633646965026855
1745728935.043512,0.01406803447753191,-0.02421918883919716,-0.27053263783454895,0.40221351385116577,-1.0036566257476807,-9.613041877746582
1745728935.044204,0.012045422568917274,-0.02679532766342163,-0.26875633001327515,0.5179177522659302,-0.8614409565925598,-9.845542907714844
1745728935.0827265,0.011811918579041958,-0.022195803001523018,-0.26969996094703674,0.37954866886138916,-1.0700228214263916,-10.007661819458008
1745728935.0829065,0.007787945680320263,-0.025038186460733414,-0.2695816457271576,0.4415362477302551,-0.8647062182426453,-9.653585433959961
1745728935.0836792,0.001172523247078061,-0.024502119049429893,-0.26662322878837585,0.3054925203323364,-0.950649082660675,-9.586423873901367
1745728935.0861726,-0.0034134413581341505,-0.02490779384970665,-0.26861220598220825,0.4397837221622467,-0.9733274579048157,-9.711471557617188
1745728935.0885956,0.007014235947281122,-0.02257806621491909,-0.26860255002975464,0.3638041019439697,-0.6935275793075562,-9.767971992492676
1745728935.1285563,-0.001194523647427559,-0.021117376163601875,-0.2699403464794159,0.4296267032623291,-0.9987524747848511,-9.779541969299316
1745728935.1312652,0.0035894946195185184,-0.02423473261296749,-0.2696254849433899,0.42774057388305664,-0.7758399248123169,-9.67083740234375
1745728935.1349795,0.012463306076824665,-0.017450477927923203,-0.26687607169151306,0.3638589680194855,-0.9495531320571899,-9.79433536529541
1745728935.1391754,0.0029776976443827152,-0.024155551567673683,-0.26595640182495117,0.44225555658340454,-0.7966474294662476,-9.775503158569336
1745728935.1688814,0.020965177565813065,-0.020045122131705284,-0.26686543226242065,0.3555814325809479,-0.8373778462409973,-9.766377449035645
1745728935.1708095,0.002075479133054614,-0.022864246740937233,-0.2657114863395691,0.4640439450740814,-0.9346839189529419,-9.77795696258545
1745728935.1725478,0.018958868458867073,-0.024762103334069252,-0.2671779990196228,0.3137184679508209,-0.6819409132003784,-9.63247013092041
1745728935.1751351,0.000153231289004907,-0.020987996831536293,-0.267971932888031,0.4758091866970062,-1.0366860628128052,-9.72076416015625
1745728935.1773925,0.0043288967572152615,-0.025356803089380264,-0.26776647567749023,0.37248170375823975,-0.8605551719665527,-9.775038719177246
1745728935.215573,0.007398943416774273,-0.01695464551448822,-0.26794901490211487,0.3777315616607666,-0.9095573425292969,-9.770868301391602
1745728935.217421,-0.006962305400520563,-0.024219974875450134,-0.2666938304901123,0.38990160822868347,-0.8710635900497437,-9.648971557617188
1745728935.2186944,0.011790327727794647,-0.0208003930747509,-0.26468735933303833,0.35725435614585876,-0.8914396166801453,-9.691566467285156
1745728935.221309,0.001324634999036789,-0.02058899775147438,-0.2671700119972229,0.44563645124435425,-0.8081674575805664,-9.842846870422363
1745728935.2579079,0.011483605951070786,-0.02688387595117092,-0.2638661563396454,0.35281646251678467,-0.9518680572509766,-9.768649101257324
1745728935.259073,0.012539875693619251,-0.01894787698984146,-0.2656843960285187,0.37333613634109497,-0.9581484794616699,-9.692398071289062
1745728935.261371,-0.007008624263107777,-0.02229698933660984,-0.2645127475261688,0.42554205656051636,-0.9281574487686157,-9.682516098022461
1745728935.262982,0.005785593297332525,-0.018807873129844666,-0.2644895911216736,0.3747308850288391,-0.9816551208496094,-9.689737319946289
1745728935.3002486,-0.00758010009303689,-0.022224942222237587,-0.26496028900146484,0.5001837015151978,-0.7833791375160217,-9.720525741577148
1745728935.3031209,-0.0041876076720654964,-0.02187708206474781,-0.26499471068382263,0.3673458993434906,-0.8872777223587036,-9.898892402648926
1745728935.3074543,-0.004188372753560543,-0.01812606491148472,-0.2648577094078064,0.47268161177635193,-0.8318905830383301,-9.7689790725708
1745728935.3101747,0.005181322805583477,-0.024250436574220657,-0.2671529948711395,0.2745862901210785,-0.771200954914093,-9.677762985229492
1745728935.3415458,0.0010915303137153387,-0.020973581820726395,-0.2648537755012512,0.4064887464046478,-0.9365498423576355,-9.665575981140137
1745728935.343093,0.010023092851042747,-0.019666019827127457,-0.2632367014884949,0.3914797306060791,-0.6784281730651855,-9.740714073181152
1745728935.3447042,0.011418993584811687,-0.019440729171037674,-0.2628091871738434,0.402341365814209,-1.0385879278182983,-9.779629707336426
1745728935.3471189,0.0005957108223810792,-0.023074185475707054,-0.2625216841697693,0.46928849816322327,-0.8247007131576538,-9.683717727661133
1745728935.3490524,0.006550777703523636,-0.022606369107961655,-0.2613997757434845,0.34601137042045593,-0.9546047449111938,-9.785235404968262
1745728935.385184,-0.007446736097335815,-0.01812918484210968,-0.25268954038619995,0.5301556587219238,-1.0138599872589111,-9.74876594543457
1745728935.3870733,-0.004028386436402798,-0.021684709936380386,-0.2537999749183655,0.3581674098968506,-0.7027217745780945,-9.851537704467773
1745728935.3896873,-0.009455840103328228,-0.01766864024102688,-0.2520691752433777,0.4727243483066559,-0.855852484703064,-9.805583000183105
1745728935.3918574,-0.011653942056000233,-0.02019224874675274,-0.25514665246009827,0.3883414566516876,-0.7771657109260559,-9.577515602111816
1745728935.427689,-0.008208789862692356,-0.014387394301593304,-0.2537635862827301,0.27092278003692627,-0.8064963221549988,-9.687759399414062
1745728935.4299269,-0.015173790045082569,-0.022399980574846268,-0.25370362401008606,0.5605877637863159,-0.855972945690155,-9.832405090332031
1745728935.4315636,-0.007529763970524073,-0.017786148935556412,-0.2521280348300934,0.31172508001327515,-0.7622602581977844,-9.92101001739502
1745728935.434435,-0.013202821835875511,-0.021155226975679398,-0.25258100032806396,0.48770761489868164,-0.9001294374465942,-9.786172866821289
1745728935.4357617,-0.0035593442153185606,-0.019769705832004547,-0.2516641318798065,0.3029260039329529,-0.7101909518241882,-9.619413375854492
1745728935.468443,-0.018435683101415634,-0.01961321383714676,-0.24986323714256287,0.447995662689209,-0.8301352262496948,-9.694914817810059
1745728935.4705148,0.0012530458625406027,-0.019254708662629128,-0.252768337726593,0.42830151319503784,-0.6462312936782837,-9.78219985961914
1745728935.4730778,-0.00582362525165081,-0.016544459387660027,-0.2522438168525696,0.35426637530326843,-0.8147257566452026,-9.822275161743164
1745728935.473144,-0.008800329640507698,-0.021251462399959564,-0.25534215569496155,0.47223520278930664,-0.6979652047157288,-9.637208938598633
1745728935.5131001,0.00013845518697053194,-0.01701481081545353,-0.2540052533149719,0.37931451201438904,-0.8566173315048218,-9.684091567993164
