timestamp,angular_vel_x,angular_vel_y,angular_vel_z,linear_acc_x,linear_acc_y,linear_acc_z
1745658925.6543772,-0.14302413165569305,0.017084816470742226,0.3723129630088806,0.9261568188667297,0.05763373523950577,-9.924348831176758
1745658925.6621747,-0.1467331349849701,0.010815171524882317,0.37916699051856995,1.0853852033615112,0.1777460277080536,-9.751065254211426
1745658925.6710818,-0.12219031155109406,0.014576822519302368,0.38533809781074524,0.8451206088066101,0.508353054523468,-9.596024513244629
1745658925.674184,-0.1084153801202774,0.008054905571043491,0.38939976692199707,1.0652430057525635,0.5872920155525208,-9.693153381347656
1745658925.67427,-0.08597477525472641,-0.005272867623716593,0.39001965522766113,0.8540461659431458,0.6873580813407898,-10.010448455810547
1745658925.694357,-0.06088948994874954,0.00801216159015894,0.3904968202114105,0.7577110528945923,0.47212761640548706,-9.870198249816895
1745658925.696486,-0.06773766130208969,-0.005957365967333317,0.3921648859977722,0.790571391582489,0.44579195976257324,-9.518781661987305
1745658925.7003336,-0.0722086951136589,-0.006993086077272892,0.3899175822734833,0.8237508535385132,0.19913488626480103,-9.649660110473633
1745658925.7013896,-0.07973597198724747,-0.010289886966347694,0.39250877499580383,1.24771249294281,0.03474351018667221,-9.912322044372559
1745658925.7364511,-0.09326760470867157,-0.01672699674963951,0.39441508054733276,0.9896602630615234,0.0791306421160698,-10.047331809997559
1745658925.739467,-0.1070372462272644,-0.016855228692293167,0.40100306272506714,1.099733591079712,-0.12496652454137802,-9.678648948669434
1745658925.7404554,-0.12126034498214722,-0.02607651613652706,0.4070729613304138,1.0113087892532349,-0.042382869869470596,-9.5851469039917
1745658925.743809,-0.1044444888830185,-0.03503258526325226,0.4188023507595062,0.7417303919792175,0.6081252694129944,-9.727029800415039
1745658925.7813778,-0.10142292827367783,-0.027884433045983315,0.419278085231781,0.8723329305648804,0.2736244201660156,-9.889294624328613
1745658925.7844722,-0.09830864518880844,-0.03927254676818848,0.4206247925758362,1.0254442691802979,0.2961697280406952,-9.696649551391602
1745658925.7906225,-0.10755946487188339,-0.03579757735133171,0.42380690574645996,0.8337176442146301,0.1813870668411255,-9.728800773620605
1745658925.7917035,-0.11568782478570938,-0.04427871108055115,0.4284513592720032,1.075029969215393,0.07375897467136383,-9.752202033996582
1745658925.8233502,-0.113520547747612,-0.03968176990747452,0.4332660734653473,0.8344460725784302,0.3218773305416107,-9.840484619140625
1745658925.8269653,-0.11743752658367157,-0.03949800133705139,0.4344862997531891,0.9648431539535522,0.3080727159976959,-9.698675155639648
1745658925.8276212,-0.11643519252538681,-0.05512668937444687,0.43508854508399963,0.8855166435241699,0.5060383081436157,-9.732560157775879
1745658925.8322563,-0.10491809993982315,-0.04453299194574356,0.43596237897872925,0.7380353212356567,0.5016560554504395,-9.889871597290039
1745658925.8348432,-0.10162907838821411,-0.054879795759916306,0.4353121817111969,0.897822380065918,0.3879200518131256,-9.793756484985352
1745658925.8775852,-0.10421911627054214,-0.05183685943484306,0.43820899724960327,0.6658946871757507,0.4063204228878021,-9.784833908081055
1745658925.8799267,-0.10664774477481842,-0.0571153461933136,0.4393511414527893,0.9575063586235046,0.12014441192150116,-9.705170631408691
1745658925.8859234,-0.10166162252426147,-0.06084488704800606,0.44265174865722656,0.7833675742149353,0.32443538308143616,-9.790194511413574
1745658925.9085715,-0.12521599233150482,-0.06075207516551018,0.47987765073776245,0.5111050605773926,0.6173515319824219,-9.850786209106445
1745658925.9112868,-0.12800918519496918,-0.062339745461940765,0.48014265298843384,0.7854573726654053,0.49189290404319763,-9.717303276062012
1745658925.912519,-0.12502805888652802,-0.060073427855968475,0.48096734285354614,0.5887317061424255,0.6567748188972473,-9.82052230834961
1745658925.9148812,-0.123629130423069,-0.0562734417617321,0.48017579317092896,0.7277312874794006,0.5775871276855469,-9.762561798095703
1745658925.9164672,-0.1309720128774643,-0.06605374068021774,0.48298200964927673,0.6990121006965637,0.5659775733947754,-9.794626235961914
1745658925.9533257,-0.11476798355579376,-0.05175463482737541,0.48191627860069275,0.5533145666122437,0.6328151822090149,-9.813130378723145
1745658925.9569886,-0.13673654198646545,-0.0600709430873394,0.4819723963737488,0.7291263341903687,0.6429138779640198,-9.688578605651855
1745658925.9587622,-0.12818634510040283,-0.06041852757334709,0.4803076684474945,0.5218306183815002,0.6118170022964478,-9.789910316467285
1745658925.9608502,-0.12554672360420227,-0.0497543029487133,0.4820423722267151,0.7875822186470032,0.6426074504852295,-9.692361831665039
1745658926.0045128,-0.12691326439380646,-0.05796734243631363,0.48226475715637207,0.5544168949127197,0.7809531092643738,-9.85862922668457
1745658926.0045934,-0.12018773704767227,-0.04978067800402641,0.48216837644577026,0.5951303243637085,0.5624800324440002,-9.756418228149414
1745658926.0046673,-0.11480854451656342,-0.05211072042584419,0.4844911992549896,0.712666392326355,0.6984795928001404,-9.596226692199707
1745658926.0047457,-0.11314880847930908,-0.04721757024526596,0.4836077094078064,0.4609958529472351,0.7752330303192139,-9.858766555786133
1745658926.0414333,-0.11718489974737167,-0.05036039277911186,0.48316460847854614,0.759410560131073,0.6713315844535828,-9.802905082702637
1745658926.0450196,-0.10664001852273941,-0.04962461441755295,0.4827061593532562,0.5280608534812927,0.6866854429244995,-9.79895305633545
1745658926.047177,-0.10195014625787735,-0.039089009165763855,0.4828615188598633,0.6249330043792725,0.7524415850639343,-9.672544479370117
1745658926.0491097,-0.1258086860179901,-0.05403105542063713,0.4797636866569519,0.6195560693740845,0.6810120940208435,-9.808712005615234
1745658926.0520844,-0.10813923180103302,-0.043286748230457306,0.48019474744796753,0.5820391774177551,0.5247951745986938,-9.794684410095215
1745658926.085632,-0.11372623592615128,-0.04338972643017769,0.4806860089302063,0.7791671752929688,0.7625335454940796,-9.632272720336914
1745658926.0856967,-0.12111325562000275,-0.04841628670692444,0.4771489202976227,0.3056502938270569,0.7824784517288208,-9.927156448364258
1745658926.0902538,-0.10737328231334686,-0.0419590100646019,0.47577357292175293,0.6515250205993652,0.6594113111495972,-9.68428897857666
1745658926.09376,-0.1021520271897316,-0.044444404542446136,0.47466644644737244,0.41620737314224243,0.8779629468917847,-9.679750442504883
1745658926.1245985,-0.09537237882614136,-0.03825957328081131,0.4750320315361023,0.41782984137535095,0.7739789485931396,-9.840810775756836
1745658926.127031,-0.10637138783931732,-0.04176127910614014,0.46950235962867737,0.4357096552848816,0.5653262138366699,-9.92868423461914
1745658926.1291213,-0.09220103919506073,-0.03376740217208862,0.46858128905296326,0.6737796664237976,0.4976345896720886,-9.772366523742676
1745658926.1313362,-0.12421184778213501,-0.039535265415906906,0.4694076478481293,0.4915536344051361,0.7160035967826843,-9.701093673706055
1745658926.1334434,-0.12040837109088898,-0.03730543330311775,0.4645334780216217,0.5020755529403687,0.4744550585746765,-9.709917068481445
1745658926.1683376,-0.11678212881088257,-0.03797686845064163,0.46740150451660156,0.6816043853759766,0.8303982019424438,-9.689654350280762
1745658926.170696,-0.12476684898138046,-0.03478162735700607,0.46663713455200195,0.30994850397109985,0.8678545951843262,-9.903302192687988
1745658926.1736019,-0.1092786192893982,-0.036571014672517776,0.4644396901130676,0.6725780367851257,0.8458913564682007,-9.573015213012695
1745658926.1749258,-0.09755118191242218,-0.03355588763952255,0.46556758880615234,0.4295436441898346,1.0333892107009888,-9.773139953613281
1745658926.2101712,-0.07749268412590027,-0.02866332232952118,0.4628094732761383,0.5408050417900085,1.1181964874267578,-9.806356430053711
1745658926.2120652,-0.08484335243701935,-0.04318509250879288,0.4622785151004791,0.5662049651145935,0.8607206344604492,-9.811602592468262
1745658926.2143805,-0.03950578719377518,-0.02605164609849453,0.4624459743499756,0.4325289726257324,0.935144305229187,-9.66454792022705
1745658926.216501,-0.07785232365131378,-0.031993113458156586,0.4589202404022217,0.6248730421066284,0.8666335940361023,-9.615015029907227
1745658926.218793,-0.05364743992686272,-0.041424501687288284,0.4583713114261627,0.4912973940372467,0.7180711030960083,-9.838791847229004
1745658926.26385,0.0360136516392231,-0.011765887960791588,0.4399576187133789,0.7183368802070618,0.771981954574585,-9.831075668334961
1745658926.2639565,0.037006620317697525,-0.011964203789830208,0.4417012631893158,0.6561949849128723,0.6313279271125793,-9.897619247436523
1745658926.2640328,0.027992192655801773,-0.008159245364367962,0.4432499408721924,0.5941945910453796,0.565766453742981,-9.654123306274414
1745658926.2970006,-0.014268726110458374,-0.012632424011826515,0.44335612654685974,0.6395142078399658,0.353804349899292,-9.664886474609375
1745658926.2993846,-0.020836537703871727,-0.01017043273895979,0.44113269448280334,0.525834858417511,0.38669025897979736,-9.806025505065918
1745658926.303822,-0.045157540589571,-0.00424811989068985,0.44040125608444214,0.6914995312690735,0.5716767311096191,-9.71081256866455
1745658926.3038871,-0.06217930465936661,-0.011398390866816044,0.4427510201931,0.4031129777431488,0.6421253085136414,-9.763272285461426
1745658926.307786,-0.05911346524953842,-0.0037117782048881054,0.44246721267700195,0.6500035524368286,0.6958976984024048,-9.617427825927734
1745658926.3425226,-0.056188859045505524,-0.010831513442099094,0.4413544535636902,0.5983151197433472,1.037766933441162,-9.76829719543457
1745658926.3442388,-0.03375941514968872,-0.005617108196020126,0.4438104033470154,0.4191557765007019,1.1383590698242188,-9.938154220581055
1745658926.345956,-0.029231607913970947,-0.008937089703977108,0.4433748126029968,0.5468906760215759,1.1608632802963257,-9.740965843200684
1745658926.3517036,0.00801786594092846,-0.008640098385512829,0.44060245156288147,0.2812361717224121,1.118996024131775,-9.636446952819824
1745658926.3846357,0.014804991893470287,0.0007208426250144839,0.4401461184024811,0.47962790727615356,1.1679173707962036,-9.553248405456543
1745658926.389004,0.005425721872597933,-0.016351986676454544,0.4379831850528717,0.4073331952095032,0.8400830030441284,-9.878026962280273
1745658926.3890755,0.03795165941119194,0.000855974096339196,0.4364701807498932,0.644278883934021,0.8322121500968933,-9.726921081542969
1745658926.3909473,0.0038694008253514767,-0.0067558311857283115,0.4332811236381531,0.564893364906311,0.7764149904251099,-9.785482406616211
1745658926.3923318,-0.0007295850664377213,-0.012621584348380566,0.43372565507888794,0.499434232711792,0.49155348539352417,-9.771493911743164
1745658926.4271069,-0.006429637782275677,-0.004611044190824032,0.43400144577026367,0.7437736392021179,0.5372760891914368,-9.64151382446289
1745658926.429224,-0.02305026724934578,-0.009096762165427208,0.43466606736183167,0.3983860909938812,0.6571645140647888,-9.883047103881836
1745658926.4336286,-0.03134896233677864,-0.006144729442894459,0.4363310933113098,0.6257744431495667,0.7020447850227356,-9.71784496307373
1745658926.435689,-0.034635551273822784,-0.016095515340566635,0.434950053691864,0.47633814811706543,0.7519279718399048,-9.761588096618652
1745658926.4685595,-0.003124199341982603,0.0005032815970480442,0.4322787821292877,0.35885247588157654,1.1339991092681885,-9.698466300964355
1745658926.4732933,-0.004899448249489069,-0.015729349106550217,0.4276033341884613,0.5275235176086426,0.8040179014205933,-9.609156608581543
1745658926.4766529,0.009229244664311409,-0.012266157194972038,0.4286592900753021,0.5541568398475647,0.8538344502449036,-9.752809524536133
1745658926.4933934,-0.004944539628922939,-0.008945384994149208,0.42774420976638794,0.6995695233345032,0.7414149045944214,-9.915287971496582
1745658926.5126865,0.01916755735874176,-0.015010945498943329,0.42354097962379456,0.43359294533729553,1.0965948104858398,-9.737089157104492
1745658926.5151207,-0.015614365227520466,-0.012947985902428627,0.4222750663757324,0.5105189085006714,0.7509024143218994,-9.613298416137695
1745658926.5181005,0.02154255285859108,-0.019486095756292343,0.4194559156894684,0.46758896112442017,0.7232103943824768,-9.746429443359375
1745658926.5217066,0.0017831415170803666,0.0004274318926036358,0.42043763399124146,0.4507067799568176,1.0235419273376465,-9.759344100952148
1745658926.5568585,-0.001458249636925757,-0.0231485515832901,0.4216621518135071,0.6160324811935425,0.528171181678772,-9.791211128234863
1745658926.5598106,0.02497110515832901,-0.009965995326638222,0.41995906829833984,0.467400461435318,1.0659831762313843,-9.643184661865234
1745658926.564085,-0.01087185274809599,-0.01577186957001686,0.4190272390842438,0.5963557958602905,0.6283837556838989,-9.82945728302002
1745658926.5678616,0.017061416059732437,-0.02052287384867668,0.41961121559143066,0.5147954225540161,0.7959207892417908,-9.724248886108398
1745658926.5773335,0.001185100176371634,-0.003565369639545679,0.41879385709762573,0.5448402166366577,0.7308118343353271,-9.651420593261719
1745658926.5992687,0.0001772999094100669,-0.02847585454583168,0.4194191098213196,0.5578033328056335,0.8113946914672852,-9.732160568237305
1745658926.6011178,-0.005144273862242699,-0.00827435590326786,0.4170733094215393,0.4580015540122986,0.8304933309555054,-9.79730224609375
1745658926.603551,0.020921824499964714,-0.024652525782585144,0.40100860595703125,0.46141886711120605,0.7797908186912537,-9.685900688171387
1745658926.6047022,0.011360729113221169,-0.026905274018645287,0.40343937277793884,0.6104791164398193,0.578798770904541,-9.809135437011719
1745658926.6416667,0.021455612033605576,-0.027977341786026955,0.4009103775024414,0.4019943177700043,0.9448686838150024,-9.744678497314453
1745658926.6446674,0.00021744407422374934,-0.028075039386749268,0.40051907300949097,0.6049691438674927,0.5299090147018433,-9.717582702636719
1745658926.6467218,0.02674819529056549,-0.03324931487441063,0.40056729316711426,0.4756595492362976,0.8483757972717285,-9.782451629638672
1745658926.649629,-0.0064750476740300655,-0.019969988614320755,0.3974931836128235,0.4053782522678375,0.7619636654853821,-9.815451622009277
1745658926.6520553,0.009213403798639774,-0.03697891905903816,0.3986430764198303,0.6117702126502991,0.6228830218315125,-9.644899368286133
1745658926.6914163,0.009526276960968971,-0.022627394646406174,0.398789644241333,0.377362459897995,0.9488579034805298,-9.699910163879395
1745658926.6959767,-0.0002923220454249531,-0.030369192361831665,0.3972351849079132,0.5792736411094666,0.592349648475647,-9.887590408325195
1745658926.699678,0.014323691837489605,-0.030164843425154686,0.3975902795791626,0.4522697925567627,0.9207519292831421,-9.755404472351074
1745658926.7018833,0.011049604043364525,-0.02104968950152397,0.3979490399360657,0.4436133801937103,0.6664724946022034,-9.664998054504395
1745658926.729829,0.013852385804057121,-0.03807170316576958,0.395844966173172,0.5264045000076294,0.8734736442565918,-9.624113082885742
1745658926.7318552,0.012668190523982048,-0.017728552222251892,0.39815956354141235,0.3805789351463318,0.6809684038162231,-9.89574146270752
1745658926.7340393,0.02145775966346264,-0.03144935518503189,0.3949328362941742,0.6348322033882141,0.8338843584060669,-9.69419002532959
1745658926.7367978,0.003040130715817213,-0.027299463748931885,0.39469411969184875,0.30582451820373535,0.7439451813697815,-9.804014205932617
1745658926.739394,0.023395884782075882,-0.027031218633055687,0.3946381211280823,0.6025068163871765,0.5478416681289673,-9.681669235229492
1745658926.772359,-0.0022270805202424526,-0.025552397593855858,0.3931775987148285,0.41826528310775757,0.9205557107925415,-9.750188827514648
1745658926.773216,0.003764031920582056,-0.027486100792884827,0.39296606183052063,0.5198924541473389,0.48385852575302124,-9.830465316772461
1745658926.7750332,0.006367776542901993,-0.03385377675294876,0.39208880066871643,0.5886775255203247,0.8731862306594849,-9.691576957702637
1745658926.7780054,-0.006316151469945908,-0.02246161736547947,0.39459341764450073,0.21773488819599152,0.7365272641181946,-9.894219398498535
1745658926.8143694,0.012611341662704945,-0.03277762606739998,0.3964197039604187,0.7662135362625122,0.676691472530365,-9.623214721679688
1745658926.814458,0.036437712609767914,-0.038893990218639374,0.3836674392223358,0.37405699491500854,1.5222063064575195,-9.731401443481445
1745658926.8161077,0.11209054291248322,-0.014424020424485207,0.3400222659111023,0.2563261389732361,-0.10896305739879608,-9.038737297058105
1745658926.8171334,-0.03135547786951065,-0.05771977826952934,0.3417587876319885,0.12015146017074585,-0.06873293220996857,-9.321937561035156
1745658926.8606937,-0.005667001008987427,-0.06768523156642914,0.33536821603775024,0.8272464871406555,-0.3130342364311218,-10.480512619018555
1745658926.8649583,-0.031230639666318893,-0.022204939275979996,0.33004212379455566,0.024015581235289574,0.24740520119667053,-10.973773002624512
1745658926.8710625,-0.07951153814792633,-0.07639317214488983,0.3195466101169586,0.04323085397481918,0.8306437730789185,-8.785517692565918
1745658926.872999,-0.11183428764343262,-0.056015294045209885,0.3099806308746338,0.18500609695911407,-0.016041481867432594,-8.920370101928711
1745658926.901964,-0.06447575986385345,-0.06935574114322662,0.3032836318016052,-0.20215001702308655,1.7222602367401123,-10.525120735168457
1745658926.9053843,-0.0897233709692955,-0.05467122048139572,0.29049137234687805,0.024266347289085388,1.5555932521820068,-10.651041984558105
1745658926.9092934,-0.004031932447105646,-0.06109484285116196,0.28667065501213074,0.31603628396987915,1.1340181827545166,-9.047279357910156
1745658926.9165597,0.06299706548452377,-0.07409879565238953,0.2847234010696411,0.17515036463737488,2.141758680343628,-8.95585823059082
1745658926.9166558,0.04928332567214966,-0.08206389844417572,0.2828122675418854,0.2411389797925949,0.9080908894538879,-11.042093276977539
1745658926.9442825,0.16511757671833038,-0.06698617339134216,0.2859155535697937,0.10150493681430817,1.1394808292388916,-10.308645248413086
1745658926.9464204,0.14709323644638062,-0.05340735986828804,0.27877897024154663,0.0665777325630188,1.0850164890289307,-8.738275527954102
1745658926.9486938,0.09572716057300568,-0.10080806910991669,0.27704501152038574,0.3266240954399109,0.16336670517921448,-9.290864944458008
1745658926.951836,0.18299119174480438,-0.009454352781176567,0.1283448487520218,0.639948844909668,1.2759941816329956,-9.286585807800293
1745658926.9875846,0.1681770533323288,-0.033076029270887375,0.11297082901000977,0.5588035583496094,1.433435082435608,-9.418844223022461
1745658926.9933465,0.23407897353172302,-0.016302283853292465,0.10793595016002655,0.5124577879905701,0.33976325392723083,-10.44140625
1745658926.9935355,0.23961086571216583,-0.0006389365298673511,0.10944299399852753,0.3097737431526184,0.5789670944213867,-9.941762924194336
1745658926.9940886,0.2439650595188141,0.0003258574870415032,0.10918344557285309,0.2218712568283081,-0.08654151111841202,-9.09229564666748
1745658926.9961884,0.2320895493030548,0.010805979371070862,0.10588853061199188,0.6636341214179993,0.10136838257312775,-9.444463729858398
1745658927.0289361,0.18194609880447388,0.0013152786996215582,0.09489569813013077,0.5227375626564026,0.08296705782413483,-10.564695358276367
1745658927.031255,0.21282391250133514,0.022137127816677094,0.07745284587144852,0.7125820517539978,0.5149981379508972,-10.024921417236328
1745658927.0336528,0.12401337921619415,0.017863884568214417,0.06337501853704453,0.4318229556083679,-0.013234985060989857,-9.351842880249023
1745658927.0350113,0.15315380692481995,0.02069973014295101,0.05577729269862175,0.6004306674003601,-0.1121290922164917,-9.374170303344727
1745658927.0726352,0.08539776504039764,0.023849910125136375,0.05400346964597702,0.5893040299415588,0.07704924046993256,-10.22472095489502
1745658927.0763943,0.1254829466342926,0.028154369443655014,0.05523794889450073,0.2392466515302658,0.32124263048171997,-10.28976821899414
1745658927.0859838,0.1446319818496704,0.050270743668079376,0.0536145344376564,0.5068997144699097,1.0119295120239258,-9.26793098449707
1745658927.0860877,0.17133572697639465,0.0292622409760952,0.046686556190252304,0.40035074949264526,1.0322450399398804,-9.447052955627441
1745658927.0870373,0.24925053119659424,0.04343719780445099,0.03458953648805618,0.520174503326416,1.4657062292099,-10.082865715026855
1745658927.1160932,0.24566678702831268,0.04362335801124573,0.027736401185393333,0.3460872769355774,0.8483996391296387,-10.250425338745117
1745658927.1193476,0.31541866064071655,0.054836660623550415,0.021063661202788353,0.3393712639808655,0.7529215812683105,-9.336313247680664
1745658927.1211393,0.267776757478714,0.0491388738155365,0.01753070019185543,0.5397588014602661,-0.11267101764678955,-9.429384231567383
1745658927.1231704,0.2775508761405945,0.04509462043642998,0.01312338374555111,0.5677767992019653,0.06253086775541306,-10.106058120727539
1745658927.162364,0.24788400530815125,0.06676473468542099,0.005476321093738079,0.7506340146064758,-0.14739340543746948,-10.048810005187988
1745658927.1652527,0.21668478846549988,0.05256009101867676,-0.0012722555547952652,0.5624319911003113,-0.1836368888616562,-9.5621337890625
1745658927.1694586,0.20597930252552032,0.05871167778968811,-0.010289422236382961,0.7101644277572632,0.012211119756102562,-9.384786605834961
1745658927.1745074,0.23632843792438507,0.07778041809797287,-0.035631634294986725,0.6304639577865601,0.4352389872074127,-9.717370986938477
1745658927.2035577,0.2341708391904831,0.06723923236131668,-0.04102125018835068,0.6853587627410889,0.13566018640995026,-9.505452156066895
1745658927.2079675,0.22182898223400116,0.06845905631780624,-0.04694228991866112,0.5290635824203491,0.19336380064487457,-9.834314346313477
1745658927.2090707,0.22734983265399933,0.0762217789888382,-0.05091071128845215,0.7784150838851929,-0.1681276559829712,-9.982192993164062
1745658927.2136204,0.20869457721710205,0.06515006721019745,-0.055830199271440506,0.5493380427360535,0.1550299972295761,-9.687910079956055
1745658927.249995,0.21578757464885712,0.07151461392641068,-0.05825367569923401,0.6549321413040161,0.07075222581624985,-9.499323844909668
1745658927.2501254,0.20439712703227997,0.0636572390794754,-0.06379681825637817,0.5581814050674438,0.16575664281845093,-9.837569236755371
1745658927.2531438,0.22176246345043182,0.07024180889129639,-0.07105033844709396,0.37842854857444763,0.0797756165266037,-9.973494529724121
1745658927.256053,0.22432458400726318,0.066739022731781,-0.07142253965139389,0.5914279818534851,-0.041148360818624496,-9.697072982788086
1745658927.260035,0.21930797398090363,0.0634225606918335,-0.07468002289533615,0.23966774344444275,-0.10691343247890472,-9.627415657043457
1745658927.2875106,0.2404615879058838,0.07178864628076553,-0.0741846039891243,0.5381190180778503,-0.26804590225219727,-9.59121322631836
1745658927.2917309,0.19906285405158997,0.06716674566268921,-0.07778028398752213,0.5080824494361877,-0.2200097143650055,-9.750114440917969
1745658927.29555,0.2232387512922287,0.07059814035892487,-0.0832660049200058,0.6946207284927368,-0.1296640932559967,-9.683244705200195
1745658927.2979178,0.17992308735847473,0.06595773994922638,-0.08867433667182922,0.7481008172035217,-0.2263861894607544,-9.763995170593262
1745658927.330998,0.15605062246322632,0.017447231337428093,-0.17700164020061493,0.511152446269989,-0.2956155240535736,-9.420694351196289
1745658927.3344164,0.1502985805273056,0.0036475942470133305,-0.1747412383556366,0.6459860801696777,-0.5816802978515625,-9.781106948852539
1745658927.3350704,0.16511109471321106,0.01654655858874321,-0.1777046024799347,0.5620298385620117,-0.22600984573364258,-9.876726150512695
1745658927.3372886,0.14579927921295166,0.0022728457115590572,-0.18119384348392487,0.6907812356948853,-0.6322054862976074,-9.713445663452148
1745658927.3775687,0.14513617753982544,0.006335741374641657,-0.1824418008327484,0.6125151515007019,-0.33032292127609253,-9.480612754821777
1745658927.3786778,0.12655946612358093,-6.866408511996269e-05,-0.18818585574626923,0.6853057742118835,-0.7056653499603271,-9.925774574279785
1745658927.3814497,0.12830810248851776,-0.005376472603529692,-0.18839187920093536,0.651411771774292,-0.4819753170013428,-10.02221393585205
1745658927.3829174,0.11281386762857437,0.004974171984940767,-0.19106453657150269,0.5554043650627136,-0.5190768837928772,-9.686184883117676
1745658927.384834,0.11315269768238068,-0.012727668508887291,-0.19184798002243042,0.5981649160385132,-0.5180149078369141,-9.403785705566406
1745658927.4163005,0.12322618812322617,-0.00022077615722082555,-0.19227585196495056,0.49322181940078735,-0.20025622844696045,-9.633610725402832
1745658927.418281,0.11716513335704803,-0.007809750735759735,-0.19812314212322235,0.6879186630249023,-0.34612149000167847,-9.993032455444336
1745658927.42069,0.14323444664478302,-0.005851869471371174,-0.19810867309570312,0.5061730146408081,-0.2334861010313034,-9.813161849975586
1745658927.4225538,0.14203563332557678,-0.007248319685459137,-0.20060734450817108,0.4490334391593933,-0.40048331022262573,-9.607443809509277
1745658927.460344,0.1486477553844452,-0.012557433918118477,-0.20036852359771729,0.5852299928665161,-0.534002423286438,-9.622743606567383
1745658927.464198,0.14609244465827942,-0.004501393996179104,-0.20055857300758362,0.48776906728744507,-0.5023252367973328,-9.883581161499023
1745658927.4698744,0.13262908160686493,-0.01792171783745289,-0.20383644104003906,0.7750439643859863,-0.7474197745323181,-9.814191818237305
1745658927.4752135,0.1218961626291275,-0.011515024118125439,-0.20627442002296448,0.5612084865570068,-0.5586460828781128,-9.666709899902344
1745658927.4779718,0.10373488813638687,-0.0176632571965456,-0.20625090599060059,0.6740641593933105,-0.8630278706550598,-9.74701976776123
1745658927.5044508,0.094105064868927,-0.016887174919247627,-0.2081160992383957,0.6123904585838318,-0.6140246391296387,-9.763710021972656
1745658927.5104852,0.09082265198230743,-0.012852108106017113,-0.2120504081249237,0.5250495672225952,-0.5339103937149048,-9.812784194946289
1745658927.5148094,0.08209027349948883,-0.020749593153595924,-0.2132139950990677,0.5552892088890076,-0.62779700756073,-9.81289291381836
1745658927.517877,0.10934488475322723,-0.014735381118953228,-0.2137852907180786,0.4009633958339691,-0.18586604297161102,-9.616279602050781
1745658927.5452938,0.09722365438938141,-0.015559105202555656,-0.22336414456367493,0.5247415900230408,-0.5537204742431641,-9.818389892578125
1745658927.5497708,0.10061749070882797,-0.02926633693277836,-0.22677743434906006,0.6039234399795532,-0.7646991014480591,-9.6705322265625
1745658927.55386,0.0901423841714859,-0.022414159029722214,-0.22825166583061218,0.43952053785324097,-0.4559834599494934,-9.658437728881836
1745658927.557172,0.08434049040079117,-0.023515066131949425,-0.23090705275535583,0.5799697041511536,-0.592258870601654,-9.838582038879395
1745658927.5886314,0.09229397028684616,-0.022779902443289757,-0.23353584110736847,0.5446484684944153,-0.5865397453308105,-9.837236404418945
1745658927.591807,0.09472190588712692,-0.019973261281847954,-0.23164494335651398,0.4172850549221039,-0.5419782996177673,-9.747346878051758
1745658927.595177,0.0931396335363388,-0.028498325496912003,-0.23385079205036163,0.6648252606391907,-0.7271955609321594,-9.741403579711914
1745658927.598146,0.09977951645851135,-0.017697235569357872,-0.23146012425422668,0.4181368350982666,-0.5502687096595764,-9.912198066711426
1745658927.600546,0.09916815906763077,-0.027768829837441444,-0.23161420226097107,0.7116657495498657,-0.6836996674537659,-9.769710540771484
1745658927.631769,0.08610019087791443,-0.024752208963036537,-0.23535358905792236,0.5080455541610718,-0.5732014775276184,-9.766214370727539
1745658927.633826,0.09115128964185715,-0.02396179735660553,-0.23646967113018036,0.5718709230422974,-0.7421244382858276,-9.770663261413574
1745658927.6357348,0.07918006926774979,-0.02921866811811924,-0.23780950903892517,0.6329941153526306,-0.5784648656845093,-9.770329475402832
1745658927.6373806,0.07773656398057938,-0.022984148934483528,-0.23962800204753876,0.43338099122047424,-0.6387472748756409,-9.875297546386719
1745658927.675405,0.0723368376493454,-0.028091004118323326,-0.24279053509235382,0.6397845149040222,-0.7562654614448547,-9.789628982543945
1745658927.678914,0.06096535176038742,-0.019247259944677353,-0.2646963596343994,0.5023349523544312,-0.6681238412857056,-9.663459777832031
1745658927.6804612,0.05616088584065437,-0.018459409475326538,-0.26694127917289734,0.5802467465400696,-0.837726891040802,-9.825386047363281
1745658927.683708,0.049770958721637726,-0.01468419749289751,-0.2666183114051819,0.4785107672214508,-0.629673182964325,-9.734813690185547
1745658927.720694,0.050788670778274536,-0.01838327944278717,-0.26998788118362427,0.6570447683334351,-0.8417317271232605,-9.69182014465332
1745658927.7237022,0.045492496341466904,-0.016116848215460777,-0.26878294348716736,0.37754887342453003,-0.6534735560417175,-9.813559532165527
1745658927.7268128,0.05020220950245857,-0.016892805695533752,-0.2692456841468811,0.6536918878555298,-0.7666620016098022,-9.736834526062012
1745658927.7301097,0.0547468475997448,-0.01805884949862957,-0.267578125,0.43433713912963867,-0.7763038873672485,-9.933915138244629
1745658927.7327292,0.051399003714323044,-0.01810690388083458,-0.26843518018722534,0.5420193672180176,-0.6911481022834778,-9.727828979492188
1745658927.76215,0.05163753032684326,-0.024147596210241318,-0.26798978447914124,0.5241454839706421,-0.7676416635513306,-9.75597858428955
1745658927.7628326,0.0476374551653862,-0.01512098778039217,-0.26937007904052734,0.38737988471984863,-0.7379614114761353,-9.786846160888672
1745658927.765758,0.043858762830495834,-0.02096383273601532,-0.2707470655441284,0.635942816734314,-0.7916132807731628,-9.563447952270508
1745658927.7671342,0.04797086864709854,-0.017173459753394127,-0.27142301201820374,0.40077343583106995,-0.6955607533454895,-9.769636154174805
1745658927.806919,0.032661546021699905,-0.015607091598212719,-0.27284711599349976,0.6851254105567932,-0.8182600140571594,-9.798730850219727
1745658927.8113134,0.04269229620695114,-0.019020816311240196,-0.2730073034763336,0.47922205924987793,-0.768466591835022,-9.801302909851074
1745658927.8154104,0.035119734704494476,-0.016757983714342117,-0.27356335520744324,0.4960821270942688,-0.7572972774505615,-9.72990894317627
1745658927.8179774,0.03918296471238136,-0.016606086865067482,-0.2730717062950134,0.5780569314956665,-0.7429603338241577,-9.745423316955566
1745658927.8481288,0.03894595056772232,-0.017946826294064522,-0.2732853889465332,0.35655373334884644,-0.6267577409744263,-9.792473793029785
1745658927.8499825,0.04433406516909599,-0.012638011947274208,-0.27500736713409424,0.6534802317619324,-0.7197929620742798,-9.634849548339844
1745658927.8551247,0.03577332943677902,-0.020972400903701782,-0.27434879541397095,0.392170250415802,-0.7111135721206665,-9.765725135803223
1745658927.8575187,0.05126814916729927,-0.013612071983516216,-0.27518510818481445,0.5246875882148743,-0.7448480725288391,-9.754079818725586
1745658927.8885772,0.0375642254948616,-0.016816500574350357,-0.2783420979976654,0.5680316686630249,-0.7903380393981934,-9.780630111694336
1745658927.8899698,0.02410339191555977,-0.02007307857275009,-0.27952563762664795,0.47492533922195435,-0.6794599890708923,-9.795400619506836
1745658927.892978,0.02336459793150425,-0.019842073321342468,-0.28150254487991333,0.5496668815612793,-0.7937525510787964,-9.67633056640625
1745658927.8954928,0.020667102187871933,-0.019187523052096367,-0.2788217067718506,0.4227084517478943,-0.7929008603096008,-9.745657920837402
1745658927.898999,0.021432558074593544,-0.017188362777233124,-0.2823004126548767,0.5578606724739075,-0.7573058009147644,-9.598955154418945
1745658927.9334908,0.026403317227959633,-0.01999390870332718,-0.2805471420288086,0.46268725395202637,-0.7144149541854858,-9.721400260925293
1745658927.9361014,0.015438778325915337,-0.012176868505775928,-0.28202301263809204,0.5478464961051941,-0.6412859559059143,-9.724761962890625
1745658927.9375556,0.02982933819293976,-0.01972091756761074,-0.28454267978668213,0.5624217987060547,-0.7171131372451782,-9.749665260314941
1745658927.9465027,0.02113362029194832,-0.018986044451594353,-0.28761404752731323,0.4547375738620758,-0.7245343923568726,-9.817710876464844
1745658927.9759421,0.025538599118590355,-0.01770886220037937,-0.2868868112564087,0.6617134809494019,-0.8117833137512207,-9.70983600616455
1745658927.9780977,0.02006281539797783,-0.025236457586288452,-0.2862858176231384,0.3985694944858551,-0.8253458738327026,-9.874185562133789
1745658927.9810152,0.017117690294981003,-0.017062567174434662,-0.28363776206970215,0.6102116703987122,-0.885114848613739,-9.626565933227539
1745658927.9824011,0.009060008451342583,-0.02344236895442009,-0.28585782647132874,0.5218644738197327,-0.857979953289032,-9.663366317749023
1745658927.9845285,0.012932181358337402,-0.019277427345514297,-0.2853597402572632,0.4047480523586273,-0.749055027961731,-9.760489463806152
1745658928.0226178,0.010561608709394932,-0.02085118554532528,-0.2859574854373932,0.6672986745834351,-0.7537466287612915,-9.692155838012695
1745658928.0231812,0.00961518008261919,-0.02174801006913185,-0.28743958473205566,0.3699961304664612,-0.6392539739608765,-9.84036922454834
1745658928.0247087,0.009206891059875488,-0.030451636761426926,-0.2951822280883789,0.4967688024044037,-0.7012685537338257,-9.773557662963867
1745658928.0278409,0.01393145602196455,-0.020974844694137573,-0.29544389247894287,0.39237895607948303,-0.7429140210151672,-9.78019905090332
1745658928.063457,0.0050061666406691074,-0.0262736938893795,-0.2967415153980255,0.5730287432670593,-0.8608938455581665,-9.742666244506836
1745658928.0648012,0.0004946751287207007,-0.026700466871261597,-0.2955244183540344,0.35733821988105774,-0.8072230219841003,-9.718358039855957
1745658928.0663292,0.00909871980547905,-0.020640231668949127,-0.2950441241264343,0.5824003219604492,-0.8564692735671997,-9.710142135620117
1745658928.0676343,-0.0037903450429439545,-0.025874372571706772,-0.29211539030075073,0.44291502237319946,-0.7034739851951599,-9.782735824584961
1745658928.10571,0.010324615985155106,-0.018427595496177673,-0.2949284017086029,0.49740323424339294,-0.6661621332168579,-9.638714790344238
1745658928.1084726,0.007218214683234692,-0.025752022862434387,-0.29350537061691284,0.4868672490119934,-0.6932016611099243,-9.793172836303711
1745658928.1173022,0.012978537008166313,-0.023381853476166725,-0.29607826471328735,0.47889918088912964,-0.6499077677726746,-9.77458381652832
1745658928.1174002,0.01537199504673481,-0.020297851413488388,-0.29518812894821167,0.4833415150642395,-0.8143627047538757,-9.877626419067383
1745658928.1185784,0.01335884165018797,-0.02863216958940029,-0.29451116919517517,0.42727890610694885,-0.7440141439437866,-9.740812301635742
1745658928.1495378,0.006295992527157068,-0.02363848313689232,-0.29463687539100647,0.4946776330471039,-0.7639736533164978,-9.611272811889648
1745658928.1503575,0.005904494319111109,-0.027905013412237167,-0.2932366132736206,0.5272804498672485,-0.8562189340591431,-9.839044570922852
1745658928.1518302,0.0017982125282287598,-0.021141454577445984,-0.2952710688114166,0.5124138593673706,-0.737037181854248,-9.702491760253906
1745658928.1557736,0.010854792781174183,-0.028655778616666794,-0.2964962124824524,0.5275851488113403,-0.7174385190010071,-9.737403869628906
1745658928.1901379,-0.007188812829554081,-0.023138269782066345,-0.29590529203414917,0.47303909063339233,-0.7863972783088684,-9.852736473083496
1745658928.1955361,0.014845123514533043,-0.022087462246418,-0.29509270191192627,0.4387301504611969,-0.7201518416404724,-9.71371841430664
1745658928.2039611,0.001923039904795587,-0.025885138660669327,-0.2934797406196594,0.3969710171222687,-0.7337900996208191,-9.781538963317871
1745658928.204013,0.014085033908486366,-0.016169564798474312,-0.29569390416145325,0.4598047733306885,-0.6472030878067017,-9.636632919311523
1745658928.2058542,0.012491108849644661,-0.03311265632510185,-0.29672932624816895,0.4335080683231354,-0.7239260077476501,-9.801493644714355
1745658928.2367508,0.011564175598323345,-0.019292933866381645,-0.2951015830039978,0.5274146795272827,-0.7312799692153931,-9.767670631408691
1745658928.2404447,0.009936520829796791,-0.03011700138449669,-0.2949899137020111,0.41818004846572876,-0.7908902764320374,-9.830728530883789
1745658928.2438836,0.015839919447898865,-0.016467127948999405,-0.2935939431190491,0.4909265637397766,-0.798841118812561,-9.790925025939941
1745658928.2474031,0.005971316248178482,-0.030709564685821533,-0.2916082441806793,0.523209810256958,-0.842065691947937,-9.74487018585205
1745658928.2776966,0.006743027362972498,-0.021649783477187157,-0.29127436876296997,0.40379124879837036,-0.7542745471000671,-9.738067626953125
1745658928.2805443,0.0026293103583157063,-0.027906054630875587,-0.2917523682117462,0.5608777403831482,-0.8940665125846863,-9.870489120483398
1745658928.2826955,-0.005986691452562809,-0.02568165399134159,-0.290586918592453,0.38312071561813354,-0.6710426211357117,-9.775310516357422
1745658928.2850606,0.0139735396951437,-0.02305292896926403,-0.2950180768966675,0.47012242674827576,-0.6918765902519226,-9.607742309570312
1745658928.320602,-0.011045372113585472,-0.025679748505353928,-0.2951192855834961,0.4724968373775482,-0.7009148001670837,-9.787546157836914
1745658928.3231084,0.016971545293927193,-0.01592405140399933,-0.2935516834259033,0.4017627239227295,-0.6440019011497498,-9.7356595993042
1745658928.326949,0.007988907396793365,-0.02763693407177925,-0.2919425368309021,0.5168550610542297,-0.7033452987670898,-9.784886360168457
1745658928.3276267,0.014390751719474792,-0.019234681501984596,-0.29423588514328003,0.43960070610046387,-0.6963188052177429,-9.793161392211914
1745658928.3303092,0.020455660298466682,-0.024558817967772484,-0.2921787202358246,0.47640499472618103,-0.7601692080497742,-9.856843948364258
1745658928.3716152,0.014343881979584694,-0.02169766090810299,-0.2916080951690674,0.43608275055885315,-0.7226663827896118,-9.697206497192383
1745658928.3716733,0.010428683832287788,-0.01995885744690895,-0.29286664724349976,0.5050442218780518,-0.7230466604232788,-9.609061241149902
1745658928.3717499,0.012900462374091148,-0.028227780014276505,-0.2940201163291931,0.4595184326171875,-0.8239231109619141,-9.876920700073242
1745658928.3717933,0.0189322791993618,-0.020748348906636238,-0.291897177696228,0.44416898488998413,-0.7065540552139282,-9.724119186401367
1745658928.4088426,0.020749468356370926,-0.011650573462247849,-0.2934582829475403,0.4384901523590088,-0.6737513542175293,-9.824583053588867
1745658928.4101698,0.025122303515672684,-0.016826150938868523,-0.29417741298675537,0.5210152864456177,-0.7683736085891724,-9.718045234680176
1745658928.4126453,0.01924116164445877,-0.019715212285518646,-0.2943135201931,0.41031360626220703,-0.7902049422264099,-9.79255199432373
1745658928.4183686,0.017936719581484795,-0.008002819493412971,-0.292782723903656,0.4329564571380615,-0.8150846362113953,-9.741003036499023
1745658928.4499407,0.007833695039153099,-0.021532148122787476,-0.29379886388778687,0.5101574659347534,-0.7923876643180847,-9.69929313659668
1745658928.4524245,0.016487764194607735,-0.006678563542664051,-0.2925603985786438,0.41450434923171997,-0.7915473580360413,-9.84189510345459
1745658928.453418,0.013200762681663036,-0.0186530202627182,-0.2957102358341217,0.5754021406173706,-0.6479498744010925,-9.659612655639648
1745658928.4562936,0.015217308886349201,-0.012146811001002789,-0.29391950368881226,0.31833285093307495,-0.739355206489563,-9.759129524230957
1745658928.4602993,0.021554216742515564,-0.010934884659945965,-0.29752832651138306,0.4061504304409027,-0.6195356249809265,-9.698076248168945
1745658928.4937582,0.02061932347714901,-0.017184311524033546,-0.29473039507865906,0.4730750620365143,-0.7241320610046387,-9.740034103393555
1745658928.4989755,0.03152279183268547,-0.00556220393627882,-0.29632267355918884,0.36662131547927856,-0.7076550722122192,-9.863081932067871
1745658928.5038886,0.021730652078986168,-0.02161109447479248,-0.29625022411346436,0.6253560781478882,-0.8419814109802246,-9.776874542236328
1745658928.5062525,0.02196541801095009,-0.013390816748142242,-0.2934774160385132,0.35745787620544434,-0.7790237665176392,-9.808355331420898
1745658928.5347703,0.018721282482147217,-0.01485945750027895,-0.2915855646133423,0.5373294353485107,-0.8762035369873047,-9.726127624511719
1745658928.5388477,0.0126786008477211,-0.01579134538769722,-0.29350271821022034,0.39400726556777954,-0.7631341814994812,-9.650702476501465
1745658928.5422614,0.02447834052145481,-0.01001710444688797,-0.29518797993659973,0.45504188537597656,-0.6099686622619629,-9.601959228515625
1745658928.5435808,0.004189670085906982,-0.015780940651893616,-0.29450535774230957,0.5618928670883179,-0.8505260348320007,-9.945147514343262
1745658928.546673,0.02771948277950287,-0.0093500642105937,-0.29654908180236816,0.3189353942871094,-0.5838070511817932,-9.776243209838867
1745658928.5808327,0.015570536255836487,-0.017124703153967857,-0.2972601056098938,0.49091482162475586,-0.7928463816642761,-9.686365127563477
1745658928.5840216,0.025463318452239037,-0.010701717808842659,-0.29640114307403564,0.31913432478904724,-0.710426390171051,-9.754094123840332
1745658928.5865119,0.012497860006988049,-0.01592210866510868,-0.29358911514282227,0.39145365357398987,-0.8464025259017944,-9.624347686767578
1745658928.5902271,0.025371959432959557,-0.0073814382776618,-0.2942493259906769,0.4259547293186188,-0.6409817337989807,-9.610652923583984
1745658928.6219392,0.015902703627943993,-0.021361781284213066,-0.29216518998146057,0.616788387298584,-0.8066889047622681,-9.747088432312012
1745658928.6232612,0.026700858026742935,-0.007462051697075367,-0.29020020365715027,0.41748881340026855,-0.7718999981880188,-9.9998197555542
1745658928.6257498,0.023951517418026924,-0.022311970591545105,-0.29082679748535156,0.5937652587890625,-0.8144691586494446,-9.748908996582031
1745658928.6290705,0.021465476602315903,-0.018371354788541794,-0.2885405123233795,0.3413293957710266,-0.7536761164665222,-9.771322250366211
1745658928.664248,0.024290839210152626,-0.010966765694320202,-0.2871328890323639,0.4024130403995514,-0.8091601133346558,-9.652389526367188
1745658928.6653738,0.0171511210501194,-0.020254824310541153,-0.2895267605781555,0.442486047744751,-0.7271722555160522,-9.630389213562012
1745658928.669386,0.028758754953742027,-0.01054026372730732,-0.2894969582557678,0.31931254267692566,-0.658284068107605,-9.738405227661133
1745658928.669469,0.01580718345940113,-0.017590641975402832,-0.2921210825443268,0.5803080797195435,-0.7510196566581726,-9.761080741882324
1745658928.6714847,0.026900479570031166,-0.011043405160307884,-0.2920403480529785,0.3055577874183655,-0.7679516077041626,-9.746454238891602
1745658928.7117271,0.02018418163061142,-0.014894428662955761,-0.2918255925178528,0.4750089645385742,-0.752707302570343,-9.625344276428223
1745658928.7158,0.014232565648853779,-0.01524441223591566,-0.2895781099796295,0.5222463607788086,-0.9169971346855164,-9.848570823669434
1745658928.7198327,0.02148219756782055,-0.011220141313970089,-0.290212482213974,0.4698667526245117,-0.7904718518257141,-9.857874870300293
1745658928.727486,0.00951494462788105,-0.023391596972942352,-0.28639501333236694,0.5941930413246155,-0.9221499562263489,-9.7869234085083
1745658928.7513585,0.0010675749508664012,-0.018303385004401207,-0.2824665904045105,0.3655121922492981,-0.70843505859375,-9.755146026611328
1745658928.753883,-0.005203104577958584,-0.020300131291151047,-0.27999234199523926,0.4988408088684082,-0.7964822053909302,-9.723397254943848
1745658928.7551968,-0.003537867683917284,-0.01414645928889513,-0.283505916595459,0.3347422778606415,-0.7097977995872498,-9.69703197479248
1745658928.758888,-0.006688223220407963,-0.021224986761808395,-0.2836224436759949,0.5150860548019409,-0.8330978155136108,-9.702256202697754
1745658928.7930663,-0.008211147040128708,-0.012768542394042015,-0.2806853652000427,0.40833425521850586,-0.7831767201423645,-9.818406105041504
1745658928.796645,-0.010916437953710556,-0.020310433581471443,-0.2837757170200348,0.4988560676574707,-0.7033272981643677,-9.715909957885742
1745658928.8006356,-0.016287576407194138,-0.018241148442029953,-0.2807425856590271,0.3993786871433258,-0.9170438647270203,-9.913990020751953
1745658928.8032463,-0.00354771432466805,-0.013677063398063183,-0.28092408180236816,0.40529975295066833,-0.5951959490776062,-9.695989608764648
1745658928.80379,-0.008692740462720394,-0.02114386111497879,-0.2785833477973938,0.46851906180381775,-0.7313039302825928,-9.659524917602539
1745658928.8383927,0.002029719529673457,-0.011786185204982758,-0.27964815497398376,0.35771822929382324,-0.5711721181869507,-9.79017448425293
1745658928.838441,0.0032273191027343273,-0.024817144498229027,-0.2797964811325073,0.5347387194633484,-0.7417234182357788,-9.751733779907227
1745658928.838474,7.085725519573316e-05,-0.007001490332186222,-0.2793886065483093,0.2879580557346344,-0.7122501134872437,-9.800580978393555
1745658928.8401408,0.0006586460513062775,-0.02083045244216919,-0.28016430139541626,0.5144795775413513,-0.8164488673210144,-9.60715103149414
1745658928.8807077,-0.008586298674345016,-0.020623594522476196,-0.28110140562057495,0.4165748655796051,-0.8006534576416016,-9.882974624633789
1745658928.8831654,-0.008513020351529121,-0.011985478922724724,-0.27842020988464355,0.4600074887275696,-0.8263369798660278,-9.911642074584961
1745658928.8864365,-0.017462149262428284,-0.0231793150305748,-0.279750257730484,0.5507811307907104,-0.7583359479904175,-9.628873825073242
1745658928.8971806,-0.008512171916663647,-0.012898683547973633,-0.2816691994667053,0.29852530360221863,-0.7101165056228638,-9.649136543273926
1745658928.9210467,-0.01769997552037239,-0.01789296790957451,-0.2791503965854645,0.5896602869033813,-0.663948655128479,-9.673480987548828
1745658928.9237456,-0.006446312181651592,-0.014238610863685608,-0.2797282636165619,0.34078940749168396,-0.6901212930679321,-9.849638938903809
1745658928.9277754,0.00034021702595055103,-0.01666288450360298,-0.28018563985824585,0.4237890839576721,-0.6240934133529663,-9.75599479675293
1745658928.93094,-0.004032572265714407,-0.019072987139225006,-0.27801817655563354,0.4324166178703308,-0.6863080263137817,-9.734063148498535
1745658928.9344668,0.010510260239243507,-0.009527173824608326,-0.27643436193466187,0.23938655853271484,-0.6515539884567261,-9.787992477416992
1745658928.9748492,-0.018613899126648903,-0.01969173550605774,-0.27710121870040894,0.5248779654502869,-0.9143074154853821,-9.925596237182617
1745658928.9774299,-0.008850490674376488,-0.01079210452735424,-0.2779087722301483,0.28166404366493225,-0.5058020949363708,-9.799044609069824
1745658928.9810753,-0.0059275017119944096,-0.021722327917814255,-0.2791549265384674,0.5123666524887085,-0.7575951814651489,-9.72529411315918
1745658928.9834206,0.0014242507750168443,-0.013048713095486164,-0.2798973619937897,0.3508753180503845,-0.5156298875808716,-9.670205116271973
1745658929.0082247,0.00040998440817929804,-0.019932085648179054,-0.2793203294277191,0.4540535807609558,-0.7542617917060852,-9.76001262664795
1745658929.0105908,0.00343835586681962,-0.015386690385639668,-0.27569514513015747,0.4718101918697357,-0.7671173810958862,-9.85714054107666
1745658929.0123913,0.0008509840699844062,-0.01324357558041811,-0.27570971846580505,0.370796799659729,-0.7823179364204407,-9.737089157104492
1745658929.0165086,-0.003523011924698949,-0.021805286407470703,-0.27542462944984436,0.4928527772426605,-0.8099744915962219,-9.658316612243652
1745658929.0168345,-0.008953742682933807,-0.009346927516162395,-0.27715760469436646,0.3963395953178406,-0.6892983317375183,-9.777857780456543
1745658929.0521402,-0.007909384556114674,-0.02353106439113617,-0.2769893705844879,0.5342475175857544,-0.5839558839797974,-9.757720947265625
1745658929.0558171,-0.010216576978564262,-0.012643168680369854,-0.2793233394622803,0.3568214476108551,-0.7456469535827637,-9.917811393737793
1745658929.0574174,-0.001931455684825778,-0.016494199633598328,-0.28106874227523804,0.44304990768432617,-0.5711482167243958,-9.550090789794922
1745658929.0608246,-0.011679137125611305,-0.016477178782224655,-0.2808048725128174,0.40992793440818787,-0.7470876574516296,-9.677983283996582
1745658929.1007695,0.002136833965778351,-0.011769503355026245,-0.27977877855300903,0.34366846084594727,-0.5766534805297852,-9.82398509979248
1745658929.100836,0.004209642764180899,-0.020024769008159637,-0.2761208415031433,0.508133590221405,-0.6611162424087524,-9.750463485717773
1745658929.101019,0.014472102746367455,-0.013866841793060303,-0.27645736932754517,0.24576766788959503,-0.5744621157646179,-9.76231575012207
1745658929.1016257,0.012172607704997063,-0.022740807384252548,-0.2760794162750244,0.5863267183303833,-0.6596167683601379,-9.674525260925293
1745658929.1428406,0.007732632104307413,-0.016602523624897003,-0.2759019434452057,0.3093644976615906,-0.5974304676055908,-9.8431978225708
1745658929.1441984,0.017794374376535416,-0.016417181119322777,-0.2752905488014221,0.4310895800590515,-0.7280052900314331,-9.698821067810059
1745658929.1464863,0.009733173996210098,-0.018462752923369408,-0.27637627720832825,0.3915647864341736,-0.665338933467865,-9.626023292541504
1745658929.1474516,0.020030036568641663,-0.016125451773405075,-0.27710023522377014,0.33589839935302734,-0.5835138559341431,-9.693889617919922
1745658929.1816273,0.008139379322528839,-0.014656725339591503,-0.2780744433403015,0.5870791673660278,-0.7688644528388977,-9.896020889282227
1745658929.184789,0.021222613751888275,-0.014165153726935387,-0.2765387296676636,0.3152466416358948,-0.4817209243774414,-9.782840728759766
1745658929.1940875,0.01683994196355343,-0.02000698633491993,-0.2787051796913147,0.5075802206993103,-0.8072336316108704,-9.744089126586914
1745658929.1941543,0.019550872966647148,-0.01566625013947487,-0.2766536772251129,0.383313924074173,-0.6442145109176636,-9.750524520874023
1745658929.1941905,0.012169249355793,-0.01748339831829071,-0.27704623341560364,0.3957948684692383,-0.6953052282333374,-9.752131462097168
1745658929.2240312,0.018897589296102524,-0.017549613490700722,-0.27531886100769043,0.5125051736831665,-0.7657122611999512,-9.770888328552246
1745658929.2258105,0.014450225047767162,-0.015728291124105453,-0.27837079763412476,0.3463475704193115,-0.521788477897644,-9.714310646057129
1745658929.227251,0.020492717623710632,-0.020560167729854584,-0.27539029717445374,0.5183894634246826,-0.7781210541725159,-9.81350040435791
1745658929.2294257,0.015544695779681206,-0.01609853096306324,-0.2770910859107971,0.3606697916984558,-0.5790796875953674,-9.750753402709961
1745658929.2667463,0.016506854444742203,-0.019498351961374283,-0.27825310826301575,0.42511773109436035,-0.6047154664993286,-9.712119102478027
1745658929.270922,0.017324836924672127,-0.016559960320591927,-0.2780503034591675,0.38074055314064026,-0.8067964315414429,-9.843154907226562
1745658929.2751684,0.022724131122231483,-0.013149576261639595,-0.2775220274925232,0.3942459225654602,-0.5363897681236267,-9.625475883483887
1745658929.2766557,0.02145291306078434,-0.02012326940894127,-0.2779385447502136,0.49594154953956604,-0.7448493242263794,-9.693102836608887
1745658929.2807708,0.01831676997244358,-0.011483225040137768,-0.2776957154273987,0.3320768475532532,-0.5739916563034058,-9.823393821716309
1745658929.3127186,0.026363223791122437,-0.021699950098991394,-0.27889686822891235,0.5575845837593079,-0.7601032257080078,-9.682087898254395
1745658929.316517,0.02236734889447689,-0.011096524074673653,-0.27965718507766724,0.243055060505867,-0.6177409887313843,-9.73689079284668
1745658929.3181973,0.015633393079042435,-0.015471522696316242,-0.2819763422012329,0.6101920008659363,-0.6716185212135315,-9.764314651489258
1745658929.320925,0.02411735989153385,-0.014517070725560188,-0.27988845109939575,0.4053756594657898,-0.6499233245849609,-9.873542785644531
1745658929.3601706,0.023539859801530838,-0.01755937747657299,-0.27895528078079224,0.4253148138523102,-0.665425181388855,-9.798087120056152
1745658929.360266,0.023643504828214645,-0.019307691603899002,-0.27863118052482605,0.4917181134223938,-0.7471504211425781,-9.747876167297363
1745658929.3603299,0.023675763979554176,-0.012272926047444344,-0.2772904634475708,0.24434442818164825,-0.6457059979438782,-9.777189254760742
1745658929.36051,0.02447277307510376,-0.020651470869779587,-0.2766560912132263,0.585524320602417,-0.7000752091407776,-9.650542259216309
1745658929.3966875,0.01705886423587799,-0.0148098673671484,-0.27863556146621704,0.2840062975883484,-0.5758392810821533,-9.7936372756958
1745658929.3980718,0.02984052337706089,-0.015587377361953259,-0.2816520035266876,0.4631558954715729,-0.7397297024726868,-9.718534469604492
1745658929.3994305,0.020382456481456757,-0.018433930352330208,-0.2797936797142029,0.4721452295780182,-0.6933366656303406,-9.72553825378418
1745658929.4040875,0.024170801043510437,-0.013450177386403084,-0.28093498945236206,0.33406487107276917,-0.6273364424705505,-9.793314933776855
1745658929.4388425,0.016222085803747177,-0.015811966732144356,-0.27764418721199036,0.4866120219230652,-0.8894580602645874,-9.83682632446289
1745658929.4413214,0.02332942746579647,-0.009866458363831043,-0.27887770533561707,0.21405085921287537,-0.573003888130188,-9.630231857299805
1745658929.4431915,0.018099913373589516,-0.017046112567186356,-0.27986881136894226,0.5609918236732483,-0.7528196573257446,-9.620031356811523
1745658929.444887,0.023731719702482224,-0.015884164720773697,-0.2814052999019623,0.5613849759101868,-0.8139216303825378,-9.617090225219727
1745658929.4464142,0.014846736565232277,-0.006257412023842335,-0.2804047465324402,0.29815879464149475,-0.751418948173523,-9.950204849243164
1745658929.483971,0.027232950553297997,-0.014349122531712055,-0.28012821078300476,0.5070141553878784,-0.7096369862556458,-9.553357124328613
1745658929.4856343,0.013512283563613892,-0.007596843875944614,-0.27618011832237244,0.4744156002998352,-0.743567705154419,-9.694986343383789
1745658929.487324,0.02121749147772789,-0.012724417261779308,-0.27971184253692627,0.4293949604034424,-0.5610581636428833,-9.83376693725586
1745658929.4915698,0.02289559692144394,-0.013727816753089428,-0.28055131435394287,0.45575278997421265,-0.763892650604248,-9.983549118041992
1745658929.5265617,0.01987450197339058,-0.0058387089520692825,-0.27892744541168213,0.26960617303848267,-0.5854835510253906,-9.690439224243164
1745658929.5289009,0.011883147060871124,-0.01238471269607544,-0.28272292017936707,0.4598816931247711,-0.7504595518112183,-9.491982460021973
1745658929.5303843,0.028245920315384865,-0.013531401753425598,-0.2831479609012604,0.33824142813682556,-0.6774829030036926,-9.834662437438965
1745658929.5330596,0.014414981007575989,-0.006257279310375452,-0.2818832993507385,0.5544191598892212,-0.5758237838745117,-9.860734939575195
1745658929.5344195,0.029875099658966064,-0.011516491882503033,-0.282553493976593,0.5161234140396118,-0.8042939901351929,-9.79712200164795
1745658929.5712054,0.025815540924668312,-0.010721932165324688,-0.2792750298976898,0.3087785542011261,-0.6003432273864746,-9.632916450500488
1745658929.5757093,0.027170509099960327,-0.013925996609032154,-0.2805364727973938,0.5816930532455444,-0.7555110454559326,-9.765827178955078
1745658929.5773757,0.032029889523983,-0.008549565449357033,-0.27797573804855347,0.2467694729566574,-0.7332826852798462,-10.048484802246094
1745658929.582005,0.03177325055003166,-0.013247117400169373,-0.27785682678222656,0.5426681041717529,-0.6838204264640808,-9.626420021057129
1745658929.6147013,0.017759663984179497,-0.015818161889910698,-0.28034859895706177,0.3417433202266693,-0.7870436310768127,-9.736780166625977
1745658929.616458,0.022920195013284683,-0.011762474663555622,-0.2779824733734131,0.3484812378883362,-0.7612044215202332,-9.710210800170898
1745658929.6184022,0.013536252081394196,-0.011925466358661652,-0.2790701389312744,0.5196058750152588,-0.8025945425033569,-9.684713363647461
1745658929.6202822,0.01657717302441597,-0.01186557300388813,-0.28038686513900757,0.35918718576431274,-0.706261932849884,-9.769771575927734
1745658929.6210332,0.008121954277157784,-0.01051918976008892,-0.27791619300842285,0.6073905229568481,-0.8589580655097961,-9.83671760559082
1745658929.655586,0.0175018347799778,-0.013326829299330711,-0.27823689579963684,0.28380364179611206,-0.6245487928390503,-9.810609817504883
1745658929.6570156,0.01575254276394844,-0.010647770948708057,-0.27512848377227783,0.45518726110458374,-0.700384795665741,-9.644874572753906
1745658929.6584225,0.018277710303664207,-0.012051681987941265,-0.276441752910614,0.43500083684921265,-0.8576444387435913,-9.931114196777344
1745658929.6605597,0.01764627918601036,-0.010785986669361591,-0.2768344283103943,0.4178771376609802,-0.6814380884170532,-9.712587356567383
1745658929.6971369,0.0181284137070179,-0.014315771870315075,-0.27836599946022034,0.4905394911766052,-0.9240888357162476,-9.730588912963867
1745658929.699072,0.012954284437000751,-0.011823284439742565,-0.2754294276237488,0.354806512594223,-0.5875518918037415,-9.697421073913574
1745658929.700389,0.018269306048750877,-0.010932313278317451,-0.27790960669517517,0.526498556137085,-0.7565072774887085,-9.743741989135742
1745658929.7022102,0.017026474699378014,-0.010837119072675705,-0.2769860625267029,0.24965079128742218,-0.5805598497390747,-9.879060745239258
1745658929.7412271,0.02266014739871025,-0.013014592230319977,-0.2778843939304352,0.44403964281082153,-0.6856074333190918,-9.525622367858887
1745658929.7444205,0.015658408403396606,-0.01068802084773779,-0.2749921679496765,0.382329523563385,-0.7781040668487549,-9.782933235168457
1745658929.7487483,0.021138977259397507,-0.014531460590660572,-0.27816829085350037,0.48155203461647034,-0.7004632949829102,-9.908653259277344
1745658929.7509556,0.015595385804772377,-0.015913454815745354,-0.27655401825904846,0.49125415086746216,-0.7799736261367798,-9.848716735839844
1745658929.7852814,0.014621803537011147,-0.01180671714246273,-0.27547523379325867,0.3376789391040802,-0.8039237856864929,-9.678914070129395
1745658929.7904944,0.007470960728824139,-0.0138161052018404,-0.2760530114173889,0.5514936447143555,-0.7553249597549438,-9.528291702270508
1745658929.7941165,0.020354636013507843,-0.014216507785022259,-0.2755691111087799,0.3096166253089905,-0.6608141660690308,-9.854281425476074
1745658929.7996154,0.006000135093927383,-0.006940764375030994,-0.2743651866912842,0.511313796043396,-0.6039105653762817,-9.773115158081055
1745658929.8023865,0.00041762422188185155,-0.02045615389943123,-0.2775777280330658,0.324758917093277,-0.674786388874054,-9.889444351196289
1745658929.8282065,-0.010703552514314651,-0.01739407144486904,-0.2759993076324463,0.5415570735931396,-0.8137412071228027,-9.785921096801758
1745658929.8304794,5.6089462304953486e-05,-0.02429790236055851,-0.27283361554145813,0.4198770523071289,-0.7734582424163818,-9.727971076965332
1745658929.8325593,-0.006954604294151068,-0.017895523458719254,-0.27139803767204285,0.4345356822013855,-0.7616587281227112,-9.785395622253418
1745658929.834543,0.00012338123633526266,-0.020390179008245468,-0.2713541090488434,0.5240410566329956,-0.6752057075500488,-9.764166831970215
1745658929.870105,0.0002055944933090359,-0.023372109979391098,-0.26839110255241394,0.28624725341796875,-0.6026069521903992,-9.750872611999512
1745658929.8705287,0.0009953309781849384,-0.020221039652824402,-0.2718496322631836,0.5599610209465027,-0.6582870483398438,-9.617401123046875
1745658929.873557,-0.003881866578012705,-0.023944690823554993,-0.27037107944488525,0.29952138662338257,-0.7219468355178833,-9.84100341796875
1745658929.8750057,0.003676778171211481,-0.015924574807286263,-0.27213162183761597,0.3447738289833069,-0.7110427021980286,-9.769218444824219
1745658929.876549,-0.00904976949095726,-0.020212262868881226,-0.27138403058052063,0.46945086121559143,-0.7777862548828125,-9.645713806152344
1745658929.9131024,-0.009234907105565071,-0.017994029447436333,-0.27383655309677124,0.35341179370880127,-0.6222835779190063,-9.706682205200195
1745658929.9151347,-0.006600553635507822,-0.019856005907058716,-0.27025067806243896,0.5735930800437927,-0.8878087997436523,-9.90527629852295
1745658929.9177823,-0.007041613571345806,-0.01928999088704586,-0.27195993065834045,0.40133756399154663,-0.5378893613815308,-9.813474655151367
1745658929.9221594,0.00043649421422742307,-0.01880977302789688,-0.2692452371120453,0.4757673740386963,-0.7362996339797974,-9.59875202178955
1745658929.9575508,-0.0086565176025033,-0.02167489193379879,-0.26861587166786194,0.38443318009376526,-0.5916382670402527,-9.74887752532959
1745658929.9615448,0.005371676757931709,-0.020346228033304214,-0.26939621567726135,0.3743840157985687,-0.6345000267028809,-9.74812126159668
1745658929.963503,0.00967742782086134,-0.019592152908444405,-0.26795387268066406,0.4355498254299164,-0.6389662027359009,-9.78563404083252
1745658929.965107,0.008259827271103859,-0.023319214582443237,-0.27034279704093933,0.34220218658447266,-0.5593997240066528,-9.720016479492188
1745658929.9686744,0.014083869755268097,-0.018628859892487526,-0.26941895484924316,0.4513947069644928,-0.6981435418128967,-9.75716495513916
1745658930.0002613,0.0033104238100349903,-0.022316325455904007,-0.2686382234096527,0.3586280643939972,-0.7218724489212036,-9.862957954406738
1745658930.004049,0.0057719917967915535,-0.017509307712316513,-0.2718208134174347,0.48385685682296753,-0.6599389314651489,-9.624330520629883
1745658930.0054612,0.00687631219625473,-0.019515130668878555,-0.26970458030700684,0.4514563977718353,-0.8596749305725098,-9.742332458496094
1745658930.0101588,-0.007745771668851376,-0.020786970853805542,-0.26944202184677124,0.37584152817726135,-0.7487704753875732,-9.749201774597168
1745658930.0404537,0.0016456438461318612,-0.01796395517885685,-0.27000194787979126,0.34467828273773193,-0.6998364925384521,-9.70031452178955
1745658930.0415518,-0.0055639189667999744,-0.01685992255806923,-0.27059075236320496,0.618274450302124,-0.7096579074859619,-9.697244644165039
1745658930.0425725,-0.004334671888500452,-0.020045679062604904,-0.26794734597206116,0.3276194930076599,-0.639155924320221,-9.901321411132812
1745658930.0435812,-0.005583982449024916,-0.015194353647530079,-0.2681337296962738,0.5386359691619873,-0.773600161075592,-9.778327941894531
1745658930.0852573,-0.003612130880355835,-0.02210620790719986,-0.2691021263599396,0.34683501720428467,-0.5661081075668335,-9.750212669372559
1745658930.0865002,-0.00015159929171204567,-0.018009955063462257,-0.2693309783935547,0.35587090253829956,-0.6333333253860474,-9.746331214904785
1745658930.0885463,0.0011249266099184752,-0.015374568291008472,-0.26999402046203613,0.4669697880744934,-0.6082109808921814,-9.785250663757324
1745658930.0916584,0.004477064125239849,-0.023036817088723183,-0.26933273673057556,0.258126825094223,-0.6390102505683899,-9.728191375732422
1745658930.1293592,0.009542296640574932,-0.015342588536441326,-0.26828986406326294,0.5251455307006836,-0.7100331783294678,-9.6691255569458
1745658930.131519,0.00082358717918396,-0.022796854376792908,-0.26793214678764343,0.3285384476184845,-0.7479633092880249,-9.852490425109863
1745658930.1332066,0.008686656132340431,-0.016373228281736374,-0.2688726782798767,0.43369564414024353,-0.6915558576583862,-9.762419700622559
1745658930.1362038,-0.005783787462860346,-0.018063317984342575,-0.2663453221321106,0.46051281690597534,-0.7664746642112732,-9.766772270202637
1745658930.1386242,-0.002164070028811693,-0.01875683292746544,-0.26682376861572266,0.3617173731327057,-0.6129461526870728,-9.711357116699219
1745658930.1737704,0.017430109903216362,-0.020002763718366623,-0.2700948119163513,0.35286253690719604,-0.7073253393173218,-9.686992645263672
1745658930.1866539,0.016347741708159447,-0.01464896835386753,-0.26943057775497437,0.3523823022842407,-0.6511831283569336,-9.647188186645508
1745658930.1889098,0.02390250377357006,-0.01765296421945095,-0.27081459760665894,0.43297091126441956,-0.7943341135978699,-9.89350700378418
1745658930.1917005,0.008086775429546833,-0.01263494323939085,-0.26906850934028625,0.4226016402244568,-0.6277488470077515,-9.723323822021484
1745658930.2195654,0.020404081791639328,-0.012949004769325256,-0.26860541105270386,0.5473002195358276,-0.7318381071090698,-9.607723236083984
1745658930.2197146,0.008199609816074371,-0.018770132213830948,-0.2687618136405945,0.3317030370235443,-0.6528334617614746,-9.898897171020508
1745658930.2197957,0.023615460842847824,-0.01063871942460537,-0.26950401067733765,0.4796694219112396,-0.5949123501777649,-9.825191497802734
1745658930.2199056,0.01824079267680645,-0.017740944400429726,-0.26826414465904236,0.30504852533340454,-0.7019361257553101,-9.808123588562012
1745658930.2211046,0.025521889328956604,-0.016253292560577393,-0.2664513885974884,0.35067465901374817,-0.6770583391189575,-9.591888427734375
1745658930.2586274,0.015906933695077896,-0.014933353289961815,-0.2680809795856476,0.3781738877296448,-0.6648638844490051,-9.764074325561523
1745658930.2607365,0.021278556436300278,-0.01255025900900364,-0.26661109924316406,0.24561062455177307,-0.648339569568634,-9.866876602172852
1745658930.262094,0.025185663253068924,-0.010538187809288502,-0.269808828830719,0.5108219385147095,-0.5532229542732239,-9.561883926391602
1745658930.2638304,0.021615859121084213,-0.017437614500522614,-0.2701954245567322,0.39109474420547485,-0.6416875123977661,-9.80518627166748
1745658930.2987585,0.026327282190322876,-0.009517998434603214,-0.2708517909049988,0.523932933807373,-0.7072408199310303,-9.88955307006836
1745658930.3020103,0.023918038234114647,-0.017709143459796906,-0.2688092589378357,0.40956631302833557,-0.6744908094406128,-9.83016300201416
1745658930.3092122,0.02109694294631481,-0.013822918757796288,-0.26918458938598633,0.31805482506752014,-0.7769990563392639,-9.678522109985352
1745658930.3121386,0.028140753507614136,-0.010917667299509048,-0.2688547968864441,0.4470667839050293,-0.6280971169471741,-9.624417304992676
1745658930.3122225,0.019719064235687256,-0.018658282235264778,-0.2683511972427368,0.2792975902557373,-0.5964454412460327,-9.858619689941406
1745658930.3467638,0.03383622318506241,-0.00817679800093174,-0.26932594180107117,0.5196661949157715,-0.5827574729919434,-9.763324737548828
1745658930.349804,0.022178951650857925,-0.02151208557188511,-0.2712711691856384,0.3988162875175476,-0.7165514230728149,-9.763994216918945
1745658930.3535652,0.03198976069688797,-0.012734822928905487,-0.2698177695274353,0.317303329706192,-0.7242735028266907,-9.73447036743164
1745658930.356905,0.01906663179397583,-0.016059409826993942,-0.26994261145591736,0.45633524656295776,-0.8148922920227051,-9.767204284667969
1745658930.386176,0.025190066546201706,-0.01567116752266884,-0.2723994851112366,0.3798436224460602,-0.6631799340248108,-9.600431442260742
1745658930.3875747,0.021207008510828018,-0.013806653209030628,-0.2711317539215088,0.4535945951938629,-0.732807457447052,-9.855367660522461
1745658930.3899744,0.01967337355017662,-0.01683221198618412,-0.27242007851600647,0.3564991354942322,-0.7259188890457153,-9.961298942565918
1745658930.3941543,0.024528078734874725,-0.014740176498889923,-0.26967284083366394,0.45825958251953125,-0.6339605450630188,-9.639915466308594
1745658930.4302797,0.015659797936677933,-0.018842732533812523,-0.26914554834365845,0.3763650953769684,-0.781353771686554,-9.71891975402832
1745658930.4336257,0.021043678745627403,-0.011446679942309856,-0.26993417739868164,0.4681820273399353,-0.5627937316894531,-9.65109634399414
1745658930.4383428,0.030260711908340454,-0.017711186781525612,-0.2712787091732025,0.40524035692214966,-0.7372618913650513,-9.890274047851562
1745658930.4401782,0.013409232720732689,-0.012530781328678131,-0.2703738808631897,0.3651610314846039,-0.6416312456130981,-9.750856399536133
1745658930.4775443,0.027825653553009033,-0.014272535219788551,-0.27267855405807495,0.38992151618003845,-0.7314238548278809,-9.565652847290039
1745658930.4808095,0.014770056121051311,-0.01670139841735363,-0.27217423915863037,0.2564895451068878,-0.6743075251579285,-9.811173439025879
1745658930.4854603,0.0188900139182806,-0.011826274916529655,-0.27208375930786133,0.5124505758285522,-0.7248293161392212,-9.840545654296875
1745658930.4855084,0.017494414001703262,-0.0184908676892519,-0.27185460925102234,0.3885558545589447,-0.7507830858230591,-9.903580665588379
1745658930.488179,0.015587965957820415,-0.014876398257911205,-0.2713286280632019,0.4730663299560547,-0.7072160840034485,-9.60832405090332
1745658930.5153775,0.01049844641238451,-0.019265977665781975,-0.2685670554637909,0.42907992005348206,-0.7521392703056335,-9.748526573181152
1745658930.519075,0.003985958639532328,-0.009354355745017529,-0.27065008878707886,0.4677606523036957,-0.8204408884048462,-9.621566772460938
1745658930.522391,-0.008025771006941795,-0.01622358337044716,-0.26934975385665894,0.3482372462749481,-0.6915794610977173,-9.845410346984863
1745658930.523819,0.0016050031408667564,-0.007389143109321594,-0.27000418305397034,0.476571649312973,-0.7620862722396851,-9.897920608520508
1745658930.5581768,-4.460131822270341e-05,-0.016367603093385696,-0.26998138427734375,0.4245212972164154,-0.5964781045913696,-9.70391845703125
1745658930.560451,0.008661322295665741,-0.00921122170984745,-0.26840272545814514,0.29308390617370605,-0.6461127996444702,-9.564775466918945
1745658930.5637043,0.012550179846584797,-0.011771665886044502,-0.27156367897987366,0.432981014251709,-0.5815648436546326,-9.770737648010254
1745658930.5668197,0.012596763670444489,-0.01519167423248291,-0.2681789994239807,0.31801503896713257,-0.6381370425224304,-9.851502418518066
1745658930.601357,0.022345352917909622,-0.004007715731859207,-0.2690667510032654,0.3883236050605774,-0.6462754011154175,-9.780403137207031
1745658930.6038802,0.012091506272554398,-0.01944447122514248,-0.2702607214450836,0.3881472945213318,-0.7300825119018555,-9.72042465209961
1745658930.6073434,0.013374236412346363,-0.00829712487757206,-0.27138033509254456,0.36284205317497253,-0.6526757478713989,-9.750070571899414
1745658930.610535,0.008216997608542442,-0.01746572181582451,-0.27173179388046265,0.529127299785614,-0.8050642013549805,-9.86628532409668
1745658930.6131313,0.004231336526572704,-0.011400112882256508,-0.27200761437416077,0.36072975397109985,-0.678033709526062,-9.70223617553711
1745658930.6458435,0.01909533515572548,-0.013371765613555908,-0.2725393772125244,0.4286477565765381,-0.7503922581672668,-9.629484176635742
1745658930.649293,-0.003084086813032627,-0.015145232900977135,-0.26964226365089417,0.3960874080657959,-0.741865873336792,-9.83564281463623
1745658930.6539295,0.019471365958452225,-0.007104952819645405,-0.2692468464374542,0.33533257246017456,-0.6608561277389526,-9.734478950500488
1745658930.6572945,0.009424875490367413,-0.01627146080136299,-0.27046889066696167,0.30443263053894043,-0.5792135000228882,-9.738409996032715
1745658930.686791,0.018228955566883087,-0.004342112224549055,-0.27263960242271423,0.34558501839637756,-0.5305864810943604,-9.674741744995117
1745658930.689601,0.024726778268814087,-0.01396151352673769,-0.27260255813598633,0.42990654706954956,-0.7115934491157532,-9.894397735595703
1745658930.691776,0.016517531126737595,-0.013783028349280357,-0.2720594108104706,0.45529890060424805,-0.7606953382492065,-9.854657173156738
1745658930.6952715,0.012991835363209248,-0.011237342841923237,-0.27135589718818665,0.44012874364852905,-0.8114114999771118,-9.699213027954102
1745658930.6982553,0.00509898504242301,-0.014196304604411125,-0.2697172164916992,0.3215257525444031,-0.862734317779541,-9.707058906555176
1745658930.732217,0.0024116961285471916,-0.00477960892021656,-0.269259512424469,0.477795273065567,-0.7295680046081543,-9.651132583618164
1745658930.7349882,-0.0022947965189814568,-0.014393319375813007,-0.2684066891670227,0.45980697870254517,-0.6459583044052124,-9.827423095703125
1745658930.7378526,0.019556013867259026,-0.007228306028991938,-0.27156028151512146,0.4321916997432709,-0.6698116660118103,-9.660902976989746
1745658930.7390492,0.018505046144127846,-0.022482383996248245,-0.2703031897544861,0.36947089433670044,-0.7284786105155945,-9.691385269165039
1745658930.776149,0.021476196125149727,-0.004476596601307392,-0.270374596118927,0.3697039484977722,-0.6577720642089844,-9.774284362792969
1745658930.7783198,0.018041731789708138,-0.019240112975239754,-0.2704926133155823,0.5202831625938416,-0.772735595703125,-9.837580680847168
1745658930.7811706,0.014785194769501686,-0.012429973110556602,-0.27106937766075134,0.3470039367675781,-0.7304865121841431,-9.86636734008789
1745658930.7843926,0.009953000582754612,-0.013918581418693066,-0.27154871821403503,0.5041415095329285,-0.7559148669242859,-9.710966110229492
1745658930.786665,-0.0008407506975345314,-0.017452765256166458,-0.27230703830718994,0.2771605849266052,-0.7497397661209106,-9.724271774291992
1745658930.818782,0.012428775429725647,-0.006813976913690567,-0.2750464379787445,0.38313284516334534,-0.7070154547691345,-9.741716384887695
1745658930.820652,-0.006954333744943142,-0.01824495568871498,-0.2737147808074951,0.4934282898902893,-0.7118515968322754,-9.74498176574707
1745658930.823331,0.005385697819292545,-0.010984143242239952,-0.272699773311615,0.3632966876029968,-0.7168080806732178,-9.718286514282227
1745658930.8243315,0.0017116047674790025,-0.015459300950169563,-0.2746632695198059,0.4207332134246826,-0.656177282333374,-9.779077529907227
1745658930.860699,0.005260729230940342,-0.015688186511397362,-0.272510826587677,0.3769737482070923,-0.7139067649841309,-9.830739974975586
1745658930.862525,0.014107048511505127,-0.009475437924265862,-0.26919299364089966,0.42754000425338745,-0.7206318974494934,-9.796964645385742
1745658930.869404,0.010186521336436272,-0.008417505770921707,-0.2721813917160034,0.33246228098869324,-0.607728123664856,-9.803675651550293
1745658930.8791466,0.009162482805550098,-0.02043244242668152,-0.27108117938041687,0.4941137731075287,-0.697008490562439,-9.734230995178223
1745658930.9040296,0.007878964766860008,-0.011898261494934559,-0.27222442626953125,0.3299903869628906,-0.6955903768539429,-9.689217567443848
1745658930.9087434,0.015133094973862171,-0.01620388962328434,-0.27320796251296997,0.4171352982521057,-0.607673168182373,-9.682794570922852
1745658930.913952,0.0005710037657991052,-0.01613984815776348,-0.2710433304309845,0.45247000455856323,-0.8114162683486938,-9.959389686584473
1745658930.917259,0.017231887206435204,-0.011600775644183159,-0.2724083364009857,0.34278959035873413,-0.5124813914299011,-9.69929313659668
1745658930.9460676,0.007426152937114239,-0.019885335117578506,-0.2733080983161926,0.41475027799606323,-0.7027984857559204,-9.737504005432129
1745658930.9506536,0.01586103066802025,-0.0061872354708611965,-0.27688276767730713,0.31599441170692444,-0.48034438490867615,-9.73207950592041
1745658930.9532719,0.016961034387350082,-0.02296220138669014,-0.2752441465854645,0.5232793092727661,-0.6936664581298828,-9.77507209777832
1745658930.9566581,0.019149933010339737,-0.013608385808765888,-0.27283087372779846,0.42569050192832947,-0.7132519483566284,-9.885294914245605
1745658930.9604118,0.018042657524347305,-0.016359539702534676,-0.27084988355636597,0.3998900055885315,-0.708544135093689,-9.700113296508789
1745658930.9901643,0.019907202571630478,-0.020142724737524986,-0.2698156535625458,0.32991933822631836,-0.731061577796936,-9.755800247192383
1745658930.9927516,0.02011404000222683,-0.004493990447372198,-0.2689436078071594,0.3182516098022461,-0.644795835018158,-9.673514366149902
1745658930.997889,0.016477247700095177,-0.019999245181679726,-0.2718314826488495,0.4611923098564148,-0.5610701441764832,-9.685447692871094
1745658930.9993038,0.02681845799088478,-0.010775572620332241,-0.2721908688545227,0.31871935725212097,-0.6206247806549072,-9.921093940734863
1745658931.0320048,0.023607488721609116,-0.018305441364645958,-0.2754655182361603,0.4700325131416321,-0.5550406575202942,-9.737458229064941
1745658931.0350463,0.022707801312208176,-0.012856446206569672,-0.27470695972442627,0.33568423986434937,-0.8074270486831665,-9.749135971069336
1745658931.0382478,0.024177690967917442,-0.010923143476247787,-0.27338510751724243,0.3618558645248413,-0.6504018902778625,-9.610934257507324
1745658931.0417385,0.011861045844852924,-0.021886000409722328,-0.2742162346839905,0.5274004936218262,-0.8671982884407043,-9.695265769958496
1745658931.0766788,0.020573198795318604,-0.004114705603569746,-0.2708187699317932,0.27652812004089355,-0.6875088810920715,-9.900341033935547
1745658931.0779378,0.012577471323311329,-0.022100958973169327,-0.2712036967277527,0.6024110913276672,-0.719273567199707,-9.778121948242188
1745658931.0820851,0.018745724111795425,-0.01455455832183361,-0.27039238810539246,0.2513102889060974,-0.552664041519165,-9.804457664489746
1745658931.0842884,0.02555575966835022,-0.014110172167420387,-0.27294057607650757,0.2997998595237732,-0.6951426267623901,-9.807372093200684
1745658931.1271033,0.020887915045022964,-0.017072012647986412,-0.27391794323921204,0.5497449040412903,-0.8066582679748535,-9.779977798461914
1745658931.1376417,0.017629418522119522,-0.0160068366676569,-0.2747233510017395,0.37390387058258057,-0.7545887231826782,-9.807485580444336
1745658931.137763,0.019994882866740227,-0.016932398080825806,-0.27096986770629883,0.38381198048591614,-0.6575760245323181,-9.748861312866211
1745658931.1378322,0.013078401796519756,-0.021632874384522438,-0.27266475558280945,0.5328513383865356,-0.7361661195755005,-9.761281967163086
1745658931.1378837,0.013733640313148499,-0.01670476421713829,-0.2738455832004547,0.2479303777217865,-0.5951104760169983,-9.735361099243164
1745658931.161596,0.017769696190953255,-0.01931825466454029,-0.2747340798377991,0.45674943923950195,-0.7161842584609985,-9.697249412536621
1745658931.1650672,0.015083631500601768,-0.014043335802853107,-0.27398401498794556,0.32880428433418274,-0.6629831194877625,-9.776013374328613
1745658931.1683395,0.01605629362165928,-0.017357589676976204,-0.2749529480934143,0.41203370690345764,-0.6194266080856323,-9.630437850952148
1745658931.172196,0.01296841911971569,-0.019646722823381424,-0.27360957860946655,0.4166835844516754,-0.8266568183898926,-9.942285537719727
1745658931.2051759,0.020886022597551346,-0.015831883996725082,-0.2764558792114258,0.4051811099052429,-0.5498943328857422,-9.76904010772705
1745658931.2065525,0.01825771853327751,-0.022052893415093422,-0.27241456508636475,0.5263260006904602,-0.7755868434906006,-9.72756576538086
1745658931.2098064,0.023333296179771423,-0.012612002901732922,-0.2731185853481293,0.3170960545539856,-0.6039520502090454,-9.743240356445312
1745658931.213277,0.015235081315040588,-0.02495719864964485,-0.2752341330051422,0.4575321078300476,-0.7360877990722656,-9.572755813598633
1745658931.2166378,0.020057039335370064,-0.021916303783655167,-0.2726036012172699,0.5047219395637512,-0.7818605303764343,-9.655942916870117
1745658931.2497668,0.022375954315066338,-0.010300111956894398,-0.27100545167922974,0.27267399430274963,-0.6866320371627808,-9.852554321289062
1745658931.250212,0.018035225570201874,-0.018273595720529556,-0.27437344193458557,0.4740449786186218,-0.6899002194404602,-9.702299118041992
1745658931.252626,0.014740578830242157,-0.02030952461063862,-0.2751040458679199,0.3826501965522766,-0.727471649646759,-9.846868515014648
1745658931.2553875,0.010705859400331974,-0.012639880180358887,-0.2730881869792938,0.33195367455482483,-0.7057114839553833,-9.842196464538574
1745658931.2925935,0.004507089965045452,-0.02358774095773697,-0.2739192843437195,0.48070329427719116,-0.7897675037384033,-9.643804550170898
1745658931.303625,0.016374949365854263,-0.01304433774203062,-0.27394843101501465,0.2216947376728058,-0.704554557800293,-9.66749095916748
1745658931.3037393,0.004567309748381376,-0.014662301167845726,-0.27421337366104126,0.55825275182724,-0.6626335978507996,-9.650819778442383
1745658931.3050652,0.015038242563605309,-0.014704328961670399,-0.27394577860832214,0.3581700325012207,-0.6678021550178528,-9.8782377243042
1745658931.3318157,0.014970776624977589,-0.01539235282689333,-0.27240869402885437,0.3606508672237396,-0.5871139168739319,-9.818329811096191
1745658931.3340194,0.02182551845908165,-0.018280938267707825,-0.27249056100845337,0.4846164584159851,-0.7165240049362183,-9.752107620239258
1745658931.3362741,0.025867218151688576,-0.013153612613677979,-0.2705349624156952,0.17327043414115906,-0.6226640343666077,-9.790775299072266
1745658931.337724,0.02125079557299614,-0.017397481948137283,-0.2723948359489441,0.5494298934936523,-0.7409619092941284,-9.644535064697266
1745658931.3387575,0.014696630649268627,-0.013915243558585644,-0.2731235921382904,0.2689817547798157,-0.6504830718040466,-9.797714233398438
1745658931.376207,0.020951902493834496,-0.011507363989949226,-0.2738966941833496,0.45360055565834045,-0.6835426092147827,-9.674304962158203
1745658931.3779655,0.011762043461203575,-0.014720821753144264,-0.2769913077354431,0.470750093460083,-0.7639950513839722,-9.760223388671875
1745658931.3802843,0.016291480511426926,-0.00993674248456955,-0.27270641922950745,0.3280724585056305,-0.6310076713562012,-9.742411613464355
1745658931.3818185,0.00482941186055541,-0.01419289130717516,-0.2741909623146057,0.5063307285308838,-0.9156368970870972,-9.888586044311523
1745658931.4181786,0.013115550391376019,-0.011621935293078423,-0.2730010151863098,0.22434011101722717,-0.5805694460868835,-9.747283935546875
1745658931.4215343,0.015296706929802895,-0.014195096679031849,-0.2726743221282959,0.4902718961238861,-0.6952700614929199,-9.650429725646973
1745658931.4259243,0.021630119532346725,-0.00886759627610445,-0.27451759576797485,0.30591416358947754,-0.5397521257400513,-9.862208366394043
1745658931.4291027,0.02578488364815712,-0.013023436069488525,-0.2733757495880127,0.3819950520992279,-0.569166898727417,-9.677667617797852
1745658931.4673893,0.009696696884930134,-0.016053881496191025,-0.27403008937835693,0.4179667830467224,-0.8078516125679016,-9.880763053894043
1745658931.4676337,0.00574517110362649,-0.010918443091213703,-0.2757841646671295,0.37363699078559875,-0.5598238706588745,-9.7325439453125
1745658931.4677777,0.008993500843644142,-0.013825712725520134,-0.2754335403442383,0.4505765438079834,-0.7286403775215149,-9.720956802368164
1745658931.4684289,0.012066451832652092,-0.00946572981774807,-0.27487629652023315,0.22843870520591736,-0.5556963682174683,-9.742782592773438
1745658931.471906,0.013540724292397499,-0.017785022035241127,-0.27353641390800476,0.537939190864563,-0.755000650882721,-9.691134452819824
1745658931.5090775,0.021395904943346977,-0.008188202977180481,-0.272358238697052,0.2108195573091507,-0.6807515621185303,-9.966829299926758
1745658931.5117161,0.01825716719031334,-0.01365567184984684,-0.27200865745544434,0.4742031991481781,-0.7187226414680481,-9.702972412109375
1745658931.512845,0.013002639636397362,-0.016824806109070778,-0.27139872312545776,0.35522621870040894,-0.7199200987815857,-9.730062484741211
1745658931.5150425,0.013636810705065727,-0.00781499408185482,-0.2720962166786194,0.33331042528152466,-0.6901149749755859,-9.768648147583008
1745658931.547659,0.006704193539917469,-0.014585609547793865,-0.2734808623790741,0.5241816639900208,-0.7080684304237366,-9.668900489807129
1745658931.5514753,0.012327728793025017,-0.009918583557009697,-0.2752475142478943,0.2408759593963623,-0.6337173581123352,-9.726800918579102
1745658931.55393,-0.0008656071731820703,-0.01251077651977539,-0.2758616805076599,0.5889649391174316,-0.7778720259666443,-9.782886505126953
1745658931.5555744,0.006993202026933432,-0.010889069177210331,-0.273112952709198,0.31651434302330017,-0.6731563806533813,-9.809863090515137
1745658931.556531,0.0029021601658314466,-0.010073653422296047,-0.27485212683677673,0.4341605603694916,-0.7018888592720032,-9.756961822509766
1745658931.593983,0.004366535693407059,-0.011016177944839,-0.27417775988578796,0.41266360878944397,-0.6549705862998962,-9.640432357788086
1745658931.5982556,0.008462347090244293,-0.012618934735655785,-0.2737436592578888,0.4426376223564148,-0.5898692011833191,-9.787120819091797
1745658931.601304,0.008030654862523079,-0.013750617392361164,-0.272383451461792,0.32384464144706726,-0.6046609878540039,-9.803604125976562
1745658931.6045954,0.01285285223275423,-0.011322195641696453,-0.2739512324333191,0.5494683980941772,-0.7273795008659363,-9.702313423156738
1745658931.634697,0.0063276104629039764,-0.016710059717297554,-0.27268892526626587,0.26656633615493774,-0.6838842630386353,-9.777752876281738
1745658931.6359897,0.017285991460084915,-0.010076877661049366,-0.2692476809024811,0.4409273564815521,-0.6654763221740723,-9.727579116821289
1745658931.6401236,0.009132890030741692,-0.013665040023624897,-0.2708299160003662,0.4027222990989685,-0.684490978717804,-9.757495880126953
1745658931.6428173,0.010257530026137829,-0.01057291217148304,-0.2715103030204773,0.3719468116760254,-0.5557851791381836,-9.65927791595459
1745658931.678279,0.016697626560926437,-0.014441663399338722,-0.2729586064815521,0.4940335154533386,-0.7821164131164551,-9.890625
1745658931.6816633,0.009538310579955578,-0.012924687936902046,-0.27410826086997986,0.32481759786605835,-0.5893957018852234,-9.806617736816406
1745658931.6869538,0.011983871459960938,-0.013105170801281929,-0.2733878493309021,0.47302722930908203,-0.7884796857833862,-9.622946739196777
1745658931.690419,0.005449710413813591,-0.011272653006017208,-0.2756490707397461,0.2570986747741699,-0.6107248067855835,-9.696927070617676
1745658931.6917264,0.006549562327563763,-0.010148334316909313,-0.2738039493560791,0.5490163564682007,-0.7482701539993286,-9.636693000793457
1745658931.7208266,0.007816699333488941,-0.014958049170672894,-0.2744082510471344,0.40849822759628296,-0.7529913783073425,-10.023804664611816
1745658931.7234159,0.0063555301167070866,-0.012942245230078697,-0.27173149585723877,0.4257993698120117,-0.697401225566864,-9.853840827941895
1745658931.724785,0.0063971043564379215,-0.01589823327958584,-0.27404308319091797,0.38233116269111633,-0.6941103935241699,-9.665594100952148
1745658931.7274933,0.005781767889857292,-0.01135591883212328,-0.27170637249946594,0.20390650629997253,-0.6344490647315979,-9.66631031036377
1745658931.7624876,0.008431995287537575,-0.012575691565871239,-0.27347248792648315,0.49324360489845276,-0.540191650390625,-9.576658248901367
1745658931.765431,0.016025293618440628,-0.012848323211073875,-0.27392828464508057,0.35707995295524597,-0.5410845875740051,-9.873376846313477
1745658931.7665346,0.008657454513013363,-0.010455852374434471,-0.2774588465690613,0.5444366335868835,-0.630752444267273,-9.866098403930664
1745658931.769445,0.018755760043859482,-0.01867147721350193,-0.27720290422439575,0.43298205733299255,-0.7090471982955933,-9.768381118774414
1745658931.7704527,0.007953660562634468,-0.014538265764713287,-0.27404648065567017,0.34544530510902405,-0.7902389764785767,-9.757596969604492
1745658931.809677,0.012394143268465996,-0.01802876777946949,-0.2759934067726135,0.4890673756599426,-0.7892647385597229,-9.724997520446777
1745658931.817219,0.01284697838127613,-0.014551091007888317,-0.275993674993515,0.22985431551933289,-0.6147702932357788,-9.673467636108398
1745658931.8176522,0.009341404773294926,-0.013244939036667347,-0.27565133571624756,0.5063683390617371,-0.8594974279403687,-9.784107208251953
1745658931.8503551,0.01112128421664238,-0.015493428334593773,-0.2760046422481537,0.3549706041812897,-0.616632342338562,-9.862421989440918
1745658931.8542342,0.00890371110290289,-0.013051281683146954,-0.27464404702186584,0.49303755164146423,-0.7205685973167419,-9.60344409942627
1745658931.8559,0.008211922831833363,-0.016863495111465454,-0.27620774507522583,0.42941099405288696,-0.6553487181663513,-9.761388778686523
1745658931.8573725,0.00446911808103323,-0.016355693340301514,-0.2769445478916168,0.32556766271591187,-0.6895139813423157,-9.747797012329102
1745658931.859079,0.0047683194279670715,-0.013152961619198322,-0.27403968572616577,0.47807255387306213,-0.7248141169548035,-9.799878120422363
1745658931.8925548,0.002536697080358863,-0.019033169373869896,-0.27546003460884094,0.29214948415756226,-0.6163252592086792,-9.759808540344238
1745658931.8946667,0.011865457519888878,-0.01574060507118702,-0.27745288610458374,0.4356280267238617,-0.587851881980896,-9.682390213012695
1745658931.897762,0.008206036873161793,-0.018685027956962585,-0.27668827772140503,0.38266849517822266,-0.649718701839447,-9.906200408935547
1745658931.8998811,0.009133704006671906,-0.016195988282561302,-0.27688032388687134,0.42045292258262634,-0.6147927045822144,-9.674322128295898
1745658931.935734,0.02389388158917427,-0.019358869642019272,-0.2764044404029846,0.43660345673561096,-0.7070066332817078,-9.735352516174316
1745658931.9427762,0.019269360229372978,-0.023400217294692993,-0.2793786823749542,0.45014700293540955,-0.6534775495529175,-9.804716110229492
1745658931.9442427,0.007591064088046551,-0.01777360402047634,-0.28111782670021057,0.44746318459510803,-0.638940155506134,-9.846197128295898
1745658931.946361,0.022650068625807762,-0.024183891713619232,-0.2802739441394806,0.49902400374412537,-0.7634528279304504,-9.651342391967773
1745658931.979317,0.01053624041378498,-0.02533416450023651,-0.27840572595596313,0.31325823068618774,-0.7727309465408325,-9.8800687789917
1745658931.9837794,0.01704566553235054,-0.017205985262989998,-0.27640432119369507,0.5042884945869446,-0.8047803640365601,-9.78515911102295
1745658931.9867158,0.01316995732486248,-0.025220107287168503,-0.2748912274837494,0.3124620318412781,-0.7175083160400391,-9.795267105102539
1745658931.9906886,0.00969725102186203,-0.01849578134715557,-0.27527984976768494,0.3851490020751953,-0.6458775401115417,-9.574109077453613
1745658932.021311,0.006423810962587595,-0.0258866585791111,-0.27949604392051697,0.4520968496799469,-0.5901480913162231,-9.768254280090332
1745658932.0231707,0.009866646490991116,-0.021118175238370895,-0.28242573142051697,0.27683648467063904,-0.6072730422019958,-9.923789978027344
1745658932.0232117,0.012150296941399574,-0.019723137840628624,-0.28104493021965027,0.5483969449996948,-0.7402985692024231,-9.628826141357422
1745658932.0236351,0.005560760386288166,-0.025074273347854614,-0.2797887921333313,0.28197646141052246,-0.7151896953582764,-9.679807662963867
1745658932.024585,0.0023276922293007374,-0.018926607444882393,-0.2787872552871704,0.3928723633289337,-0.8420001864433289,-9.841341018676758
1745658932.0702908,0.009271113201975822,-0.020588412880897522,-0.27650994062423706,0.41555237770080566,-0.6267000436782837,-9.805575370788574
1745658932.0735178,0.010850504972040653,-0.016846004873514175,-0.27593615651130676,0.3342164158821106,-0.6189211010932922,-9.682548522949219
1745658932.0762253,0.01915460079908371,-0.01923363283276558,-0.2789821922779083,0.541451096534729,-0.5537823438644409,-9.622827529907227
1745658932.0779266,0.012108737602829933,-0.029619624838232994,-0.2784610390663147,0.2967680096626282,-0.6381617188453674,-9.93448257446289
1745658932.1067166,0.02212298847734928,-0.012633398175239563,-0.2784559726715088,0.4274696409702301,-0.7092226147651672,-9.85608196258545
1745658932.1107998,0.010620557703077793,-0.024457408115267754,-0.2782469391822815,0.32974424958229065,-0.7527003288269043,-9.635231018066406
1745658932.1140559,0.012219809927046299,-0.019800866022706032,-0.2770753800868988,0.3367465138435364,-0.7440630197525024,-9.607553482055664
1745658932.11802,0.0043867118656635284,-0.02110358141362667,-0.27735137939453125,0.5221508145332336,-0.794835090637207,-9.920446395874023
1745658932.1219418,0.0009221207583323121,-0.02253563515841961,-0.27903661131858826,0.2853749394416809,-0.6397627592086792,-9.882780075073242
1745658932.155486,0.015190954320132732,-0.017443018034100533,-0.2765159010887146,0.4526248872280121,-0.6715919971466064,-9.599427223205566
1745658932.1579094,0.020100479945540428,-0.01570887491106987,-0.2784685492515564,0.47846564650535583,-0.7607019543647766,-9.779667854309082
1745658932.1605835,0.011287219822406769,-0.020443608984351158,-0.2757716476917267,0.38410645723342896,-0.8147322535514832,-9.804574966430664
1745658932.161783,0.009080708026885986,-0.015668485313653946,-0.2758573591709137,0.37388187646865845,-0.6829899549484253,-9.580413818359375
1745658932.1963618,0.017675217241048813,-0.01926623098552227,-0.27674034237861633,0.3704848885536194,-0.6302005648612976,-9.709770202636719
1745658932.1970885,0.0049842046573758125,-0.011927998624742031,-0.27712973952293396,0.3980786204338074,-0.6213341951370239,-9.900452613830566
1745658932.1993897,0.02481791190803051,-0.0167542677372694,-0.2771148681640625,0.41224831342697144,-0.5870239734649658,-9.711034774780273
1745658932.202299,0.01764310896396637,-0.02146407961845398,-0.2773434519767761,0.30394643545150757,-0.6887174844741821,-9.892921447753906
1745658932.2378075,0.027501899749040604,-0.009721856564283371,-0.2762475609779358,0.3642790913581848,-0.6195657849311829,-9.750041961669922
1745658932.241365,0.02353152260184288,-0.022287534549832344,-0.27765095233917236,0.3644702434539795,-0.7191082239151001,-9.784276962280273
1745658932.244793,0.022695662453770638,-0.009816436097025871,-0.27374133467674255,0.435359388589859,-0.7171765565872192,-9.611745834350586
1745658932.2494154,0.0208313949406147,-0.018577497452497482,-0.27631932497024536,0.45840564370155334,-0.7439275979995728,-9.723592758178711
1745658932.2550564,0.021330121904611588,-0.015414535999298096,-0.2740854322910309,0.30149489641189575,-0.7092093229293823,-9.910067558288574
1745658932.282322,0.01849966309964657,-0.00980197824537754,-0.271928608417511,0.4407956600189209,-0.7108283042907715,-9.65353775024414
1745658932.2837358,0.01274924911558628,-0.018104638904333115,-0.27488192915916443,0.29891759157180786,-0.63518226146698,-9.670989990234375
1745658932.285491,0.014871716499328613,-0.00921858660876751,-0.2716768980026245,0.4930155873298645,-0.6929143071174622,-9.861490249633789
1745658932.2871108,0.0069832392036914825,-0.01776447519659996,-0.2721616327762604,0.4321032166481018,-0.6599869132041931,-9.819534301757812
1745658932.3275328,0.019053880125284195,-0.009746539406478405,-0.27418872714042664,0.39450979232788086,-0.7592223882675171,-9.7245454788208
1745658932.3275838,0.013346699066460133,-0.01952064409852028,-0.2722953259944916,0.45157089829444885,-0.6697827577590942,-9.735207557678223
1745658932.3287997,0.014608347788453102,-0.00927799753844738,-0.2699209153652191,0.24177756905555725,-0.7218654155731201,-9.777628898620605
1745658932.3314989,0.019655972719192505,-0.00896795280277729,-0.27209049463272095,0.41086021065711975,-0.5683478116989136,-9.596990585327148
1745658932.369485,0.011745571158826351,-0.017198767513036728,-0.2721763551235199,0.3909410238265991,-0.6909195184707642,-9.654459953308105
1745658932.3703058,0.024497197940945625,-0.002513183979317546,-0.27256983518600464,0.38256484270095825,-0.632177472114563,-9.908503532409668
1745658932.3743043,0.018630456179380417,-0.022095385938882828,-0.273653119802475,0.5299919843673706,-0.7260478138923645,-9.969049453735352
1745658932.3829424,0.01883496157824993,-0.009795675054192543,-0.2721937298774719,0.3167076110839844,-0.702150821685791,-9.716222763061523
1745658932.3830101,0.015078023076057434,-0.016216915100812912,-0.27052849531173706,0.4546326994895935,-0.8383463025093079,-9.584512710571289
1745658932.4116406,0.007738448679447174,-0.01433852780610323,-0.26990199089050293,0.3244175314903259,-0.7503975629806519,-9.722795486450195
1745658932.4123561,0.022563830018043518,-0.007358270697295666,-0.2713209092617035,0.3989458680152893,-0.656691312789917,-9.768451690673828
1745658932.4205565,0.003981137182563543,-0.016468262299895287,-0.2710095942020416,0.4661877751350403,-0.6230188608169556,-9.80450439453125
1745658932.4206128,0.019876938313245773,-0.006681772414594889,-0.27208155393600464,0.3231925666332245,-0.5371333956718445,-9.619929313659668
1745658932.454024,0.014098798856139183,-0.021343469619750977,-0.27549320459365845,0.4738121032714844,-0.6650323271751404,-9.841402053833008
1745658932.4554856,0.016239505261182785,-0.01011404488235712,-0.2724732756614685,0.3470221161842346,-0.6839041113853455,-9.936769485473633
1745658932.4593837,0.02165110409259796,-0.016048870980739594,-0.27407875657081604,0.43219369649887085,-0.7641814351081848,-9.739304542541504
1745658932.464775,0.008423548191785812,-0.020269794389605522,-0.26984843611717224,0.4349295496940613,-0.8634635210037231,-9.639045715332031
1745658932.494325,0.010666492395102978,-0.016046296805143356,-0.27033835649490356,0.3940846621990204,-0.7322474718093872,-9.718536376953125
1745658932.49568,0.005913606844842434,-0.019095003604888916,-0.26816901564598083,0.4043203294277191,-0.7551533579826355,-9.878242492675781
1745658932.4991455,0.016867071390151978,-0.009047402068972588,-0.26921001076698303,0.4231785833835602,-0.6601483225822449,-9.970576286315918
1745658932.5016468,0.015964101999998093,-0.01983543112874031,-0.26931437849998474,0.48550504446029663,-0.6342353224754333,-9.718793869018555
1745658932.5388365,0.017435194924473763,-0.01992589794099331,-0.2687525451183319,0.24131841957569122,-0.648195207118988,-9.719572067260742
1745658932.5417244,0.021502818912267685,-0.011181773617863655,-0.2705691456794739,0.3929743766784668,-0.6870487928390503,-9.726712226867676
1745658932.5427544,0.012383648194372654,-0.023344332352280617,-0.2701725363731384,0.36333680152893066,-0.7237932085990906,-9.835695266723633
1745658932.5447721,0.025408323854207993,-0.011432335712015629,-0.2699078917503357,0.3349727392196655,-0.6713896989822388,-9.714990615844727
1745658932.5456464,0.01327467244118452,-0.022048117592930794,-0.2713748514652252,0.481802374124527,-0.6471785306930542,-9.552266120910645
1745658932.5860467,0.023732822388410568,-0.011706854216754436,-0.2685200572013855,0.31035977602005005,-0.6945499181747437,-9.767788887023926
1745658932.5890982,0.02250431478023529,-0.015134664252400398,-0.2703593969345093,0.4631802439689636,-0.649115264415741,-9.794039726257324
1745658932.5936553,0.01800784096121788,-0.01696045510470867,-0.26987046003341675,0.4511476457118988,-0.7494030594825745,-9.81865406036377
1745658932.599454,0.02660958096385002,-0.012074658647179604,-0.2696588635444641,0.3013736605644226,-0.6873990893363953,-9.779166221618652
1745658932.6267374,0.017614861950278282,-0.02476978674530983,-0.2684965431690216,0.47368302941322327,-0.7992680072784424,-9.7935152053833
1745658932.6286573,0.019032025709748268,-0.012582646682858467,-0.26734459400177,0.24085402488708496,-0.6559396982192993,-9.78167724609375
1745658932.6318097,0.018014604225754738,-0.019925128668546677,-0.26849114894866943,0.46764397621154785,-0.7355026602745056,-9.642416000366211
1745658932.6356905,0.011837835423648357,-0.01569976843893528,-0.2672329843044281,0.3337627351284027,-0.6784902811050415,-9.660188674926758
1745658932.6357646,0.004492859356105328,-0.023029763251543045,-0.26888400316238403,0.5482932329177856,-0.803066074848175,-9.594670295715332
1745658932.6694875,0.000273330690106377,-0.015081058256328106,-0.2672840356826782,0.32738518714904785,-0.6920678019523621,-9.81644058227539
1745658932.6707327,0.002211148152127862,-0.019995270296931267,-0.26739370822906494,0.4801224172115326,-0.7485241889953613,-9.849987030029297
1745658932.673646,-0.002543702954426408,-0.012894566170871258,-0.2688811421394348,0.3158417344093323,-0.6499381065368652,-9.687959671020508
1745658932.678215,0.00718701770529151,-0.014570793136954308,-0.27093419432640076,0.3803110718727112,-0.5500670075416565,-9.493318557739258
1745658932.7125063,-0.003734343219548464,-0.020917093381285667,-0.27083835005760193,0.4413028359413147,-0.8010544776916504,-10.047578811645508
1745658932.7142777,0.01262103021144867,-0.01186193898320198,-0.2692238390445709,0.3208233714103699,-0.5572087168693542,-9.939769744873047
1745658932.7149189,0.006359574850648642,-0.020894205197691917,-0.2695486843585968,0.43744921684265137,-0.7797395586967468,-9.645599365234375
1745658932.7166376,0.013248774223029613,-0.009222021326422691,-0.2689460813999176,0.2650730013847351,-0.5975810289382935,-9.557344436645508
1745658932.7540069,0.007875197567045689,-0.020335182547569275,-0.26917362213134766,0.49726662039756775,-0.7257225513458252,-9.748947143554688
1745658932.7569227,0.009744061157107353,-0.013246948830783367,-0.2677140235900879,0.4388713836669922,-0.6942952275276184,-10.008840560913086
1745658932.760421,0.009082051925361156,-0.015441494062542915,-0.2688717842102051,0.46544474363327026,-0.6560928821563721,-9.669896125793457
1745658932.7648082,0.007131456397473812,-0.02138952724635601,-0.2696378231048584,0.3609665036201477,-0.724647045135498,-9.667210578918457
1745658932.76754,0.0059194257482886314,-0.009597348980605602,-0.26784005761146545,0.301933228969574,-0.7094475030899048,-9.801459312438965
1745658932.7991242,-0.0023818123154342175,-0.018601762130856514,-0.2699447274208069,0.4312533438205719,-0.667312502861023,-9.812341690063477
1745658932.8013258,0.007699519395828247,-0.01211523450911045,-0.2705972492694855,0.2756214141845703,-0.7056857347488403,-9.766944885253906
1745658932.80439,0.006227342877537012,-0.014786580577492714,-0.2720831334590912,0.4576653838157654,-0.5635254979133606,-9.523506164550781
1745658932.80666,0.011114528402686119,-0.015372252091765404,-0.2711472511291504,0.35531142354011536,-0.6960573196411133,-9.84648323059082
1745658932.8402562,0.014879286289215088,-0.008469266816973686,-0.2703530788421631,0.3582577705383301,-0.588769793510437,-9.858816146850586
1745658932.8436332,0.010144835337996483,-0.0180126391351223,-0.2710670232772827,0.480898916721344,-0.7971453070640564,-9.616336822509766
1745658932.8458343,0.007585769984871149,-0.011856562457978725,-0.26968321204185486,0.31074556708335876,-0.6800763607025146,-9.937995910644531
1745658932.8485982,0.012295246124267578,-0.01039745844900608,-0.26720207929611206,0.33444398641586304,-0.6002762913703918,-9.864068984985352
1745658932.885298,0.010968062095344067,-0.016494179144501686,-0.26985135674476624,0.5082768201828003,-0.6841338872909546,-9.601927757263184
1745658932.8875823,0.008167427964508533,-0.01047306228429079,-0.27065497636795044,0.2926757335662842,-0.6089202761650085,-9.708374977111816
1745658932.8911242,0.010225764475762844,-0.017133578658103943,-0.27217191457748413,0.49348902702331543,-0.7744662165641785,-9.850879669189453
1745658932.8943386,0.0019542109221220016,-0.007776724640280008,-0.2701953053474426,0.3595876693725586,-0.7625352740287781,-9.844557762145996
1745658932.9272218,0.00425430852919817,-0.012752396985888481,-0.2706987261772156,0.4066162109375,-0.6752708554267883,-9.50422477722168
1745658932.9301977,-0.007633808068931103,-0.013304324820637703,-0.2707096040248871,0.36061710119247437,-0.8455426096916199,-9.824162483215332
1745658932.934294,0.0033627524971961975,-0.006747073028236628,-0.2707771360874176,0.35977762937545776,-0.5063849687576294,-9.836692810058594
1745658932.9431152,0.002296036807820201,-0.013583952561020851,-0.2704259157180786,0.4721933901309967,-0.6917452812194824,-9.763402938842773
1745658932.9731448,0.008623294532299042,-0.005704822484403849,-0.27261680364608765,0.28460773825645447,-0.4965723156929016,-9.699914932250977
1745658932.9762013,0.007133015431463718,-0.019442012533545494,-0.2723410725593567,0.44425615668296814,-0.7380126118659973,-9.67932415008545
1745658932.9782681,0.009667421691119671,-0.005717345047742128,-0.2709224224090576,0.30163639783859253,-0.773337721824646,-9.930594444274902
1745658932.9793084,0.005599888972938061,-0.011681536212563515,-0.26762712001800537,0.44694215059280396,-0.7395667433738708,-9.684747695922852
1745658932.9877968,0.0011028198059648275,-0.014496584422886372,-0.27043554186820984,0.37090176343917847,-0.7417108416557312,-9.719073295593262
1745658933.013307,0.009000563994050026,-0.009906692430377007,-0.27324405312538147,0.29727715253829956,-0.6239328980445862,-9.94903564453125
1745658933.017028,0.010416370816528797,-0.01818230003118515,-0.2767747640609741,0.5082625150680542,-0.6217395067214966,-9.744974136352539
1745658933.0212831,0.006690314970910549,-0.019513143226504326,-0.27524274587631226,0.3822920620441437,-0.6844047904014587,-9.804987907409668
1745658933.0247083,0.0037800788413733244,-0.012057797983288765,-0.2769242823123932,0.4048060476779938,-0.7442715764045715,-9.785472869873047
1745658933.0546122,-0.00466354051604867,-0.023723896592855453,-0.2746288776397705,0.5156232118606567,-0.7834593057632446,-9.67921257019043
1745658933.0561993,0.007476684637367725,-0.012986729852855206,-0.2735043168067932,0.2192552536725998,-0.6333462595939636,-9.734697341918945
1745658933.060007,-0.00267434143461287,-0.015136472880840302,-0.2751981317996979,0.5548210740089417,-0.6076654195785522,-9.676559448242188
1745658933.062553,0.00951293297111988,-0.015470159240067005,-0.2755383551120758,0.33469364047050476,-0.5443405508995056,-9.794316291809082
1745658933.0984542,0.011795294471085072,-0.017730440944433212,-0.2747161388397217,0.4375903010368347,-0.510899543762207,-9.817028999328613
1745658933.10132,0.01374039240181446,-0.021080687642097473,-0.2796976566314697,0.4939582347869873,-0.6693717241287231,-9.871320724487305
1745658933.1049829,0.020205635577440262,-0.015640288591384888,-0.2758863568305969,0.19913366436958313,-0.6376087665557861,-9.837701797485352
1745658933.107652,0.01045557577162981,-0.02073044516146183,-0.27631792426109314,0.5285845398902893,-0.8410951495170593,-9.606258392333984
1745658933.1110454,0.003696226980537176,-0.018175529316067696,-0.27248579263687134,0.2790045440196991,-0.7453228235244751,-9.709558486938477
1745658933.1399066,0.006060446612536907,-0.01656634546816349,-0.27470481395721436,0.47750312089920044,-0.7372980713844299,-9.725107192993164
1745658933.1464589,-0.0030178758315742016,-0.0202189851552248,-0.2742878794670105,0.42678403854370117,-0.6832754611968994,-9.84720230102539
1745658933.1465347,0.0032393515575677156,-0.014290670864284039,-0.2763599455356598,0.3384419083595276,-0.5121052265167236,-9.66889762878418
1745658933.1465921,-0.0059394845739007,-0.02318945713341236,-0.27807071805000305,0.5270888209342957,-0.7799272537231445,-9.866101264953613
1745658933.1836774,0.005269537679851055,-0.016966335475444794,-0.2772323191165924,0.25755661725997925,-0.5443539023399353,-9.850862503051758
1745658933.1869907,0.003420468419790268,-0.020480358973145485,-0.27602505683898926,0.45994624495506287,-0.7263931035995483,-9.723306655883789
1745658933.1905963,0.004254230763763189,-0.016127746552228928,-0.27572327852249146,0.3043913245201111,-0.6365264058113098,-9.715143203735352
1745658933.1942391,0.007706241216510534,-0.024027328938245773,-0.27586010098457336,0.4632052481174469,-0.5893222093582153,-9.632368087768555
1745658933.1977417,0.00991531740874052,-0.01905844174325466,-0.27418044209480286,0.4776079058647156,-0.6874195337295532,-9.91047477722168
1745658933.2264225,0.002713618101552129,-0.02353258617222309,-0.2780340313911438,0.47982311248779297,-0.7520524859428406,-9.781717300415039
1745658933.229202,0.0036965608596801758,-0.018143359571695328,-0.27818769216537476,0.291900098323822,-0.510826587677002,-9.88813591003418
1745658933.2320626,0.007790249772369862,-0.022921103984117508,-0.2774413228034973,0.5135250091552734,-0.6909950971603394,-9.642394065856934
1745658933.2355156,0.012689149007201195,-0.017499292269349098,-0.274104505777359,0.21101999282836914,-0.6622290015220642,-9.790786743164062
1745658933.271172,0.012636400759220123,-0.022858530282974243,-0.27548056840896606,0.49005523324012756,-0.6621271371841431,-9.774788856506348
1745658933.2745395,0.008882525376975536,-0.022187571972608566,-0.2759161591529846,0.3304826617240906,-0.630720853805542,-9.854647636413574
1745658933.278109,0.012583302333950996,-0.015344169922173023,-0.27606770396232605,0.3112789988517761,-0.556204617023468,-9.649916648864746
1745658933.281091,0.009100849740207195,-0.023913998156785965,-0.2782920002937317,0.5211519002914429,-0.6155027151107788,-9.558416366577148
1745658933.3118072,0.021411608904600143,-0.017693091183900833,-0.2783743739128113,0.27301540970802307,-0.5540828108787537,-9.848906517028809
1745658933.3142943,0.010348747484385967,-0.019194889813661575,-0.2777974009513855,0.6358420252799988,-0.7024846076965332,-9.895910263061523
1745658933.317096,0.020020637661218643,-0.021109048277139664,-0.2784409821033478,0.2844897508621216,-0.6472142338752747,-9.7566499710083
1745658933.3204288,0.018935427069664,-0.016551805660128593,-0.27589139342308044,0.3613618016242981,-0.6485101580619812,-9.609356880187988
1745658933.3241856,0.02471969649195671,-0.019492294639348984,-0.2750343084335327,0.4054695963859558,-0.601382851600647,-9.777104377746582
1745658933.3586073,0.028016770258545876,-0.01642005331814289,-0.27695056796073914,0.27945947647094727,-0.5000220537185669,-9.890416145324707
1745658933.362491,0.032689016312360764,-0.009715070948004723,-0.27651363611221313,0.5909959077835083,-0.7961764335632324,-9.803840637207031
1745658933.3658216,0.023938192054629326,-0.012731609866023064,-0.2768886387348175,0.25117069482803345,-0.6847202181816101,-9.795778274536133
1745658933.369062,0.0337362177670002,-0.01086907647550106,-0.2768416404724121,0.3751911222934723,-0.6815990209579468,-9.587422370910645
1745658933.3997796,0.02472587488591671,-0.010895425453782082,-0.2774163782596588,0.41063791513442993,-0.7272886037826538,-9.794790267944336
1745658933.4009085,0.02607724443078041,-0.010431349277496338,-0.2791058421134949,0.3718491494655609,-0.576289176940918,-9.882719039916992
1745658933.4021788,0.029983583837747574,-0.014248641207814217,-0.2800430357456207,0.5114383697509766,-0.8164242506027222,-9.860895156860352
1745658933.410516,0.02664623036980629,-0.012199181132018566,-0.27669981122016907,0.2924077808856964,-0.6103636026382446,-9.685738563537598
1745658933.442225,0.030306613072752953,-0.012107389979064465,-0.2783268094062805,0.455681174993515,-0.7886899709701538,-9.566179275512695
1745658933.4457557,0.024821659550070763,-0.01018274761736393,-0.2769497036933899,0.374896764755249,-0.6687353849411011,-9.899993896484375
1745658933.450823,0.025357961654663086,-0.010750030167400837,-0.27847063541412354,0.4476153254508972,-0.6504662036895752,-9.688508987426758
1745658933.4533067,0.030805092304944992,-0.00990845263004303,-0.2770928144454956,0.4295732378959656,-0.6773478984832764,-9.778207778930664
1745658933.4550734,0.029621824622154236,-0.01513321977108717,-0.27838486433029175,0.4060019850730896,-0.6229932904243469,-9.835405349731445
1745658933.4890468,0.029638150706887245,-0.01516800932586193,-0.2783479392528534,0.46606001257896423,-0.7142433524131775,-9.865422248840332
1745658933.4913862,0.0302283875644207,-0.011707248166203499,-0.27687472105026245,0.27787476778030396,-0.7487483024597168,-9.82702350616455
1745658933.493786,0.029827222228050232,-0.012823564000427723,-0.2790362536907196,0.40170812606811523,-0.6861940622329712,-9.410374641418457
1745658933.495274,0.03594919294118881,-0.014732912182807922,-0.2774950861930847,0.31062671542167664,-0.7027531266212463,-9.719717979431152
1745658933.5282261,0.02548176608979702,-0.008051367476582527,-0.2781254053115845,0.45403942465782166,-0.6192008256912231,-9.902618408203125
1745658933.5314653,0.03848719224333763,-0.015480387024581432,-0.2782284915447235,0.5020369291305542,-0.7186198234558105,-9.795225143432617
1745658933.5378332,0.027750805020332336,-0.01088663749396801,-0.2797240614891052,0.28704726696014404,-0.6734315156936646,-9.701156616210938
1745658933.541763,0.03217870369553566,-0.01108299009501934,-0.280519962310791,0.52582186460495,-0.7646334171295166,-9.696746826171875
1745658933.5753293,0.026391591876745224,-0.01579936034977436,-0.27803391218185425,0.26899728178977966,-0.7773085832595825,-10.03076457977295
1745658933.5754437,0.02594813145697117,-0.010792233049869537,-0.2762409448623657,0.5112617611885071,-0.7754757404327393,-9.653144836425781
1745658933.5801504,0.027123134583234787,-0.017880957573652267,-0.2793799042701721,0.35287320613861084,-0.6082876324653625,-9.828848838806152
1745658933.583131,0.02910987101495266,-0.011488514021039009,-0.2782759368419647,0.40156126022338867,-0.7219055891036987,-9.840147018432617
1745658933.613618,0.030528202652931213,-0.013931234367191792,-0.2793161869049072,0.5162377953529358,-0.7417307496070862,-9.753911018371582
1745658933.6171706,0.023850854486227036,-0.0179648008197546,-0.2784651219844818,0.29314082860946655,-0.714583158493042,-9.65047836303711
1745658933.6190913,0.029415294528007507,-0.010694297961890697,-0.27701330184936523,0.5371139049530029,-0.7746104001998901,-9.681791305541992
1745658933.6228254,0.022716224193572998,-0.018260549753904343,-0.27673059701919556,0.324190616607666,-0.7276798486709595,-9.909525871276855
1745658933.6261256,0.03034142591059208,-0.010248987935483456,-0.27587348222732544,0.3665596544742584,-0.6590725779533386,-9.695919036865234
1745658933.6611166,0.022131625562906265,-0.01527571864426136,-0.2796391546726227,0.41260474920272827,-0.7308581471443176,-9.647947311401367
1745658933.6642008,0.018079202622175217,-0.013874685391783714,-0.2816237807273865,0.29522159695625305,-0.5974706411361694,-9.753602027893066
1745658933.667313,0.029584508389234543,-0.016831446439027786,-0.2796650528907776,0.5566033720970154,-0.8590847849845886,-9.943690299987793
1745658933.670683,0.01538982056081295,-0.014461731538176537,-0.27992144227027893,0.3248104751110077,-0.7263034582138062,-9.813002586364746
1745658933.7017515,0.023702014237642288,-0.012072120793163776,-0.28022220730781555,0.4601409435272217,-0.8091535568237305,-9.469064712524414
1745658933.7041998,0.01217727642506361,-0.016741998493671417,-0.2785428464412689,0.33266347646713257,-0.7089513540267944,-9.731289863586426
1745658933.7062993,0.015591010451316833,-0.013263890519738197,-0.2804906368255615,0.45310378074645996,-0.7143685817718506,-9.763640403747559
1745658933.710643,0.02206498198211193,-0.019167739897966385,-0.2784055173397064,0.30604708194732666,-0.7326951026916504,-9.740056991577148
1745658933.742581,0.021815191954374313,-0.012212094850838184,-0.27573904395103455,0.4330405294895172,-0.7933362722396851,-9.7444486618042
1745658933.7458062,0.025282422080636024,-0.014883948490023613,-0.2750839293003082,0.3994620442390442,-0.8104943037033081,-9.897056579589844
1745658933.7479203,0.015402468852698803,-0.016992749646306038,-0.274911493062973,0.38847893476486206,-0.7809081077575684,-9.766817092895508
1745658933.7516153,0.019333288073539734,-0.01872316002845764,-0.27611714601516724,0.4794861674308777,-0.73044353723526,-9.625868797302246
1745658933.7922702,0.011810241267085075,-0.020546171814203262,-0.2744986414909363,0.36655569076538086,-0.7955645322799683,-9.898106575012207
1745658933.7967036,0.00997934304177761,-0.014537650160491467,-0.27558478713035583,0.4014330804347992,-0.7449660301208496,-9.725273132324219
1745658933.7997496,0.01521040964871645,-0.021588629111647606,-0.2765069901943207,0.3275476098060608,-0.7121919393539429,-9.62257194519043
1745658933.8010185,0.003456584643572569,-0.01351927686482668,-0.27529576420783997,0.3903834819793701,-0.7390227317810059,-9.768553733825684
1745658933.8020797,0.017145346850156784,-0.019173139706254005,-0.27765512466430664,0.4773881435394287,-0.6914835572242737,-9.781229972839355
1745658933.8311496,0.008276864886283875,-0.021004145964980125,-0.2741406261920929,0.35202038288116455,-0.7678176760673523,-9.924530982971191
1745658933.8355834,0.021002590656280518,-0.01323844026774168,-0.27665919065475464,0.4913557171821594,-0.7100918889045715,-9.696318626403809
1745658933.8389604,0.012554183602333069,-0.028488392010331154,-0.2750523090362549,0.32658880949020386,-0.7485296130180359,-9.815437316894531
1745658933.8422928,0.014038753695786,-0.014891063794493675,-0.272968053817749,0.43942880630493164,-0.7729986906051636,-9.705300331115723
1745658933.8742723,0.007152874954044819,-0.024888405576348305,-0.27331486344337463,0.4005712568759918,-0.7689758539199829,-9.714950561523438
1745658933.876783,0.01282539963722229,-0.017382364720106125,-0.2739860415458679,0.2327607125043869,-0.6597336530685425,-9.683199882507324
1745658933.8808498,0.009126903489232063,-0.01503106951713562,-0.2754519581794739,0.5029200315475464,-0.7271515130996704,-9.635078430175781
1745658933.8844807,0.002722700359299779,-0.025798525661230087,-0.27803269028663635,0.3366873860359192,-0.6343162059783936,-9.914314270019531
1745658933.8885992,0.011912351474165916,-0.014525632373988628,-0.2766832411289215,0.48219189047813416,-0.8470382690429688,-9.928360939025879
1745658933.9167643,0.006202091462910175,-0.025971585884690285,-0.27571502327919006,0.414224773645401,-0.733688235282898,-9.728433609008789
1745658933.9202373,0.008207551203668118,-0.016114169731736183,-0.273337185382843,0.27984899282455444,-0.7951984405517578,-9.5628080368042
1745658933.9241745,0.010001595132052898,-0.021099459379911423,-0.271676242351532,0.4526568055152893,-0.7105040550231934,-9.577109336853027
1745658933.9597657,-0.004833395592868328,-0.02218816988170147,-0.2711666524410248,0.4454255700111389,-0.6923022270202637,-9.920007705688477
1745658933.9657776,0.01514413207769394,-0.01580919697880745,-0.27297472953796387,0.44325876235961914,-0.6335352063179016,-9.731491088867188
1745658933.966328,0.007811861578375101,-0.026868507266044617,-0.2717302143573761,0.3608274459838867,-0.6648133993148804,-9.749914169311523
1745658933.9663877,0.018173929303884506,-0.012653286568820477,-0.2713070809841156,0.3281167149543762,-0.6195844411849976,-9.725364685058594
1745658933.9690518,0.023205291479825974,-0.024348102509975433,-0.2714688181877136,0.35933437943458557,-0.6751764416694641,-9.850594520568848
1745658934.0035498,0.01990770734846592,-0.01857253536581993,-0.27181634306907654,0.3572463393211365,-0.7082260847091675,-9.75222396850586
1745658934.0059369,0.02339833974838257,-0.019231827929615974,-0.27133724093437195,0.44165611267089844,-0.7286968231201172,-9.606813430786133
1745658934.0080032,0.01892727054655552,-0.02441171370446682,-0.27196699380874634,0.31302720308303833,-0.7838813066482544,-9.792890548706055
1745658934.0088007,0.016366880387067795,-0.01168111152946949,-0.2702518105506897,0.43742018938064575,-0.7652155756950378,-9.672468185424805
1745658934.0428345,0.013711963780224323,-0.019417662173509598,-0.27302446961402893,0.3708782494068146,-0.7182034850120544,-9.697463989257812
1745658934.0470252,0.0042368462309241295,-0.01201848965138197,-0.27168160676956177,0.37843143939971924,-0.8384038805961609,-9.83293342590332
1745658934.0502203,0.013526988215744495,-0.023453105241060257,-0.27146896719932556,0.48415476083755493,-0.6878990530967712,-9.82381820678711
1745658934.0534108,0.005106261931359768,-0.01954428106546402,-0.2711191773414612,0.29946616291999817,-0.7806795239448547,-9.89165210723877
1745658934.0872872,0.004203220829367638,-0.01629364863038063,-0.2683795094490051,0.5078502297401428,-0.6353720426559448,-9.663111686706543
1745658934.0917838,0.0022014693822711706,-0.011406099423766136,-0.2679738402366638,0.3154665529727936,-0.7231608629226685,-9.790395736694336
1745658934.0967638,0.0074185458943247795,-0.012344932183623314,-0.26984459161758423,0.4412422180175781,-0.6393951177597046,-9.790376663208008
1745658934.1045148,3.8042478990973905e-05,-0.018512936308979988,-0.2677145004272461,0.31641894578933716,-0.7443773746490479,-9.703268051147461
1745658934.1045892,0.01129036583006382,-0.0039256117306649685,-0.2674124538898468,0.30347704887390137,-0.7020480036735535,-9.638012886047363
1745658934.1310422,-1.0224059678876074e-06,-0.020243030041456223,-0.26825714111328125,0.49430567026138306,-0.7800182104110718,-9.782793998718262
1745658934.1315887,0.005320513620972633,-0.009869296103715897,-0.2664479911327362,0.31631579995155334,-0.6866016387939453,-9.935768127441406
1745658934.1336634,0.0033075332175940275,-0.013704019598662853,-0.26745858788490295,0.5077161192893982,-0.7218462824821472,-9.757852554321289
1745658934.1419144,-0.005247781984508038,-0.018678227439522743,-0.2675573229789734,0.3551277816295624,-0.6983939409255981,-9.625096321105957
1745658934.175056,0.013772249221801758,-0.010004200041294098,-0.26706749200820923,0.42219290137290955,-0.7321956753730774,-9.756672859191895
