timestamp,angular_vel_x,angular_vel_y,angular_vel_z,linear_acc_x,linear_acc_y,linear_acc_z
1745661960.5305984,-0.0999564453959465,0.03370310738682747,0.07977767288684845,0.8451297879219055,-0.36623069643974304,-9.531671524047852
1745661960.5317218,-0.09223438054323196,0.026451513171195984,0.08943752944469452,1.0364590883255005,0.45488399267196655,-9.293252944946289
1745661960.5345495,-0.08381551504135132,0.03676015883684158,0.10053912550210953,0.9029362797737122,0.09653443098068237,-10.34229850769043
1745661960.5360272,-0.06568646430969238,0.03672636300325394,0.10808440297842026,0.8912490606307983,0.7284485697746277,-10.193924903869629
1745661960.537581,-0.04221644625067711,0.043069951236248016,0.11506445705890656,0.9069836735725403,0.4395561218261719,-9.309003829956055
1745661960.5750723,-0.019018739461898804,0.031448040157556534,0.11896560341119766,1.0358747243881226,0.9606954455375671,-9.298856735229492
1745661960.5766795,-0.005541212856769562,0.029599186033010483,0.12108993530273438,0.659882664680481,0.644415020942688,-10.47691535949707
1745661960.5782187,0.03045664355158806,0.04661812260746956,0.12517845630645752,0.7555254697799683,0.44391804933547974,-10.110052108764648
1745661960.5820892,0.012378117069602013,0.047067638486623764,0.1284768283367157,0.5787666440010071,0.2509756088256836,-9.103691101074219
1745661960.6180499,0.00973955076187849,0.03764698654413223,0.1365339308977127,0.8633567094802856,-0.24765877425670624,-9.38984203338623
1745661960.6206622,-0.004874170757830143,0.03918807953596115,0.14299650490283966,0.8851079940795898,-0.1850471794605255,-10.316208839416504
1745661960.624167,-0.0640939474105835,0.06297515332698822,0.3110668957233429,0.8273459672927856,0.41273003816604614,-9.628313064575195
1745661960.6274135,-0.06399412453174591,0.05915872007608414,0.31430187821388245,0.9383465647697449,0.10280977189540863,-9.83745288848877
1745661960.6650302,-0.058130957186222076,0.05449538305401802,0.3192409873008728,0.9516696929931641,0.49000972509384155,-9.813385009765625
1745661960.665115,-0.06299089640378952,0.06117216497659683,0.3233606219291687,0.88032466173172,0.1658148467540741,-9.820026397705078
1745661960.6651847,-0.0591326467692852,0.048571936786174774,0.3266392946243286,0.8658611178398132,0.3111366629600525,-9.625576972961426
1745661960.6652348,-0.06302119046449661,0.048760369420051575,0.3306848406791687,0.8243206143379211,0.0971713662147522,-9.699037551879883
1745661960.6677992,-0.06870435923337936,0.04537167400121689,0.3371815085411072,1.0841619968414307,0.07110430300235748,-9.830650329589844
1745661960.7069309,-0.07315937429666519,0.04369007796049118,0.3427918255329132,0.8158652186393738,0.2643192708492279,-9.903362274169922
1745661960.708011,-0.08145974576473236,0.039200715720653534,0.3456708788871765,0.9468628764152527,-0.07510798424482346,-9.701715469360352
1745661960.7094371,-0.0795082226395607,0.037022076547145844,0.35187578201293945,0.8684643507003784,0.381230890750885,-9.503386497497559
1745661960.7122557,-0.098533995449543,0.03942378610372543,0.3540169596672058,0.9277065396308899,0.15395887196063995,-9.792057991027832
1745661960.7454267,-0.08742237091064453,0.025205839425325394,0.35395532846450806,1.0004640817642212,0.367318332195282,-9.857939720153809
1745661960.7471387,-0.09039892256259918,0.03849934786558151,0.3598788380622864,0.8182571530342102,0.46357306838035583,-9.75329875946045
1745661960.748192,-0.09170101583003998,0.027843663468956947,0.3631744980812073,0.9169498682022095,0.31024181842803955,-9.570724487304688
1745661960.750887,-0.07892705500125885,0.02349960245192051,0.36557823419570923,0.8035069704055786,0.4841397702693939,-9.636184692382812
1745661960.7900095,-0.07878486812114716,0.0292352382093668,0.37179845571517944,1.0566587448120117,0.3325280547142029,-9.818490982055664
1745661960.7942433,-0.06304025650024414,0.022792300209403038,0.37493592500686646,0.8901688456535339,0.6324077248573303,-9.803018569946289
1745661960.8012931,-0.058956582099199295,0.02307816408574581,0.3775181770324707,0.868115246295929,0.4740528464317322,-9.708037376403809
1745661960.8030972,-0.043237678706645966,0.010172253474593163,0.38091906905174255,0.9907331466674805,0.44803324341773987,-9.663705825805664
1745661960.8069003,-0.04630810767412186,0.019189292564988136,0.38224905729293823,0.8474197387695312,0.4650457799434662,-9.868496894836426
1745661960.8320234,-0.05820489674806595,0.007170816417783499,0.38575878739356995,0.9618234634399414,0.06574512273073196,-9.878520965576172
1745661960.8343542,-0.08680219203233719,-0.015957564115524292,0.4108664095401764,1.017451524734497,0.31853216886520386,-9.745851516723633
1745661960.8393257,-0.06090381741523743,-0.016823608428239822,0.41334620118141174,0.7759906053543091,0.6142099499702454,-9.808934211730957
1745661960.874851,-0.07523135095834732,-0.01798405312001705,0.4166976511478424,0.8426287770271301,0.4144011437892914,-9.748217582702637
1745661960.877886,-0.05394621565937996,-0.02723265253007412,0.41964274644851685,0.8752521276473999,0.49586647748947144,-9.660102844238281
1745661960.880589,-0.06034255027770996,-0.017883362248539925,0.4186626076698303,0.8994227647781372,0.5273491740226746,-9.721034049987793
1745661960.8871846,-0.06796851754188538,-0.029783332720398903,0.4221442639827728,0.9368451833724976,0.2202806919813156,-9.893938064575195
1745661960.8875206,-0.04951947554945946,-0.028943616896867752,0.4247668385505676,0.8865969777107239,0.4686439633369446,-9.727323532104492
1745661960.920677,-0.07823289930820465,-0.02695390023291111,0.4263207018375397,0.984904408454895,0.18924181163311005,-9.668954849243164
1745661960.9217823,-0.05724596977233887,-0.03323715180158615,0.4332347512245178,0.7344604730606079,0.3948948383331299,-9.738853454589844
1745661960.9251845,-0.07226862013339996,-0.033841755241155624,0.43457192182540894,0.9575468301773071,0.3365214467048645,-9.740129470825195
1745661960.9268363,-0.07077060639858246,-0.036878034472465515,0.4387912154197693,0.8311872482299805,0.4086504876613617,-9.875596046447754
1745661960.9608972,-0.060184575617313385,-0.035383883863687515,0.4385545253753662,0.7833864092826843,0.49922364950180054,-9.761866569519043
1745661960.9640667,-0.0794840157032013,-0.04873991012573242,0.44050273299217224,0.8769318461418152,0.3100866377353668,-9.73576831817627
1745661960.9656732,-0.05318126827478409,-0.04294266551733017,0.4435310363769531,0.7828437089920044,0.44887369871139526,-9.787755012512207
1745661960.9693074,-0.08653988689184189,-0.07376070320606232,0.48830389976501465,0.5069917440414429,0.481097549200058,-9.849174499511719
1745661961.0052223,-0.0787767544388771,-0.06541948020458221,0.4889259338378906,0.7731720209121704,0.49931707978248596,-9.558290481567383
1745661961.0071552,-0.10529778897762299,-0.07081332057714462,0.48781710863113403,0.6892026662826538,0.4991230070590973,-9.73463249206543
1745661961.0079331,-0.08663459122180939,-0.0673113614320755,0.4911573827266693,0.634231686592102,0.3373980224132538,-9.991479873657227
1745661961.0121906,-0.10268690437078476,-0.06879749149084091,0.49170732498168945,0.8229020237922668,0.5732742547988892,-9.75723648071289
1745661961.0122406,-0.10452272742986679,-0.06370528787374496,0.4912954866886139,0.5160595774650574,0.4151665270328522,-9.739031791687012
1745661961.048733,-0.10607979446649551,-0.0693960040807724,0.49358686804771423,0.7655907869338989,0.4720683693885803,-9.671429634094238
1745661961.0521512,-0.11149109899997711,-0.06923726201057434,0.4948667585849762,0.6371767520904541,0.5928490161895752,-9.854677200317383
1745661961.053308,-0.1053573489189148,-0.05923199653625488,0.4955504536628723,0.7118504047393799,0.5296312570571899,-9.913776397705078
1745661961.0550046,-0.11616716533899307,-0.06793718039989471,0.49578848481178284,0.6059250831604004,0.7291332483291626,-9.770008087158203
1745661961.0901556,-0.09427943080663681,-0.06412811577320099,0.4967922270298004,0.5982946157455444,0.5166316628456116,-9.702895164489746
1745661961.0961266,-0.10531866550445557,-0.06496575474739075,0.49658408761024475,0.7797179222106934,0.7650715708732605,-9.692408561706543
1745661961.1038373,-0.10808084160089493,-0.06154869124293327,0.49682021141052246,0.5329539179801941,0.5211402773857117,-10.003021240234375
1745661961.1044402,-0.08926261216402054,-0.06680674850940704,0.4972326159477234,0.8305902481079102,0.646260678768158,-9.719487190246582
1745661961.1073709,-0.1091497391462326,-0.05932052060961723,0.4983547329902649,0.5727688670158386,0.7629508972167969,-9.704460144042969
1745661961.1356213,-0.09718455374240875,-0.06242772191762924,0.49745625257492065,0.6946912407875061,0.39674925804138184,-9.829633712768555
1745661961.1356921,-0.09796617180109024,-0.06584048271179199,0.49960485100746155,0.7037580013275146,0.7564989924430847,-9.737497329711914
1745661961.1360612,-0.10305307060480118,-0.05130581930279732,0.5000181198120117,0.5771176218986511,0.5051786303520203,-9.825910568237305
1745661961.1392365,-0.09760747104883194,-0.05700303241610527,0.5004225969314575,0.6815365552902222,0.6272866725921631,-9.659475326538086
1745661961.176563,-0.10369361937046051,-0.057714641094207764,0.499713659286499,0.5353900194168091,0.6860651969909668,-9.728665351867676
1745661961.181607,-0.08892107754945755,-0.05518222972750664,0.4999849796295166,0.8118249773979187,0.5489733815193176,-9.805753707885742
1745661961.1822536,-0.10981082916259766,-0.05069798231124878,0.4972633421421051,0.48417729139328003,0.7875295281410217,-9.913335800170898
1745661961.1842802,-0.11155085265636444,-0.05063372105360031,0.5003896951675415,0.5621237754821777,0.9226001501083374,-9.888983726501465
1745661961.2189507,-0.10199060291051865,-0.040250249207019806,0.500224232673645,0.6855015158653259,0.5596129894256592,-9.964361190795898
1745661961.2195098,-0.09835870563983917,-0.044143982231616974,0.4993894696235657,0.6330276727676392,0.9472638964653015,-9.594063758850098
1745661961.2217605,-0.10983163118362427,-0.04031401500105858,0.5000338554382324,0.46537214517593384,0.5332496762275696,-9.756082534790039
1745661961.2311294,-0.0926411896944046,-0.04682702571153641,0.5000053644180298,0.7857291102409363,0.7172537446022034,-9.740842819213867
1745661961.2312665,-0.1120903491973877,-0.0353313609957695,0.4998716413974762,0.5243129730224609,0.7649637460708618,-9.85895824432373
1745661961.2649128,-0.10445921123027802,-0.03840905427932739,0.4997794032096863,0.7094693183898926,0.46408072113990784,-9.738387107849121
1745661961.2650115,-0.10465284436941147,-0.041491203010082245,0.49995821714401245,0.6318100690841675,0.9287195205688477,-9.599627494812012
1745661961.2677183,-0.11289521306753159,-0.0319589264690876,0.5003191232681274,0.6120802164077759,0.5064679384231567,-9.891301155090332
1745661961.2688081,-0.10604292154312134,-0.03613833338022232,0.5009793043136597,0.5706377029418945,0.8200429677963257,-9.7966890335083
1745661961.306892,-0.108237624168396,-0.029924839735031128,0.500619649887085,0.5108740329742432,0.675651490688324,-9.622220993041992
1745661961.30969,-0.10881215333938599,-0.03286350890994072,0.4998193681240082,0.6840088367462158,0.7579561471939087,-9.600190162658691
1745661961.3111696,-0.10535387694835663,-0.026136398315429688,0.49998125433921814,0.5057134032249451,0.9325869679450989,-9.88497257232666
1745661961.315051,-0.10394550859928131,-0.033054642379283905,0.5000860095024109,0.6757146120071411,0.6139469146728516,-9.894619941711426
1745661961.351024,-0.07717417180538177,-0.012619410641491413,0.4967239499092102,0.6524375677108765,1.038025140762329,-9.649409294128418
1745661961.353733,-0.09294158220291138,-0.02549431286752224,0.4966338276863098,0.5258430242538452,0.9394011497497559,-9.71473503112793
1745661961.3560386,-0.055506251752376556,-0.020731830969452858,0.496126651763916,0.5963884592056274,0.9217656254768372,-9.71497917175293
1745661961.3592403,-0.0849129930138588,-0.018674125894904137,0.4955368638038635,0.6892162561416626,1.0286861658096313,-9.664118766784668
1745661961.3625214,-0.07131783664226532,-0.017884809523820877,0.4933241903781891,0.4315781593322754,0.7616025805473328,-9.802780151367188
1745661961.397185,-0.06363257020711899,-0.020986247807741165,0.4940520226955414,0.7393186688423157,0.9628904461860657,-9.497346878051758
1745661961.400532,-0.08454743027687073,-0.023388992995023727,0.4941645562648773,0.5772145986557007,0.8750028610229492,-9.76569938659668
1745661961.4071853,-0.06275562196969986,-0.016938911750912666,0.49435558915138245,0.6434299349784851,0.8592117428779602,-9.88699722290039
1745661961.4128077,-0.07504402101039886,-0.02509274147450924,0.49137648940086365,0.6201748251914978,0.9856319427490234,-9.657845497131348
1745661961.4374115,-0.06844238936901093,-0.018690021708607674,0.4948878884315491,0.578301727771759,0.8195473551750183,-9.606985092163086
1745661961.4392443,-0.06996641308069229,-0.024205807596445084,0.49229535460472107,0.6831144094467163,0.9685611724853516,-9.668905258178711
1745661961.4443083,-0.06929630786180496,-0.024732371792197227,0.492194265127182,0.4300859868526459,0.8996256589889526,-9.91280460357666
1745661961.4443755,-0.058355819433927536,-0.02063021808862686,0.4921645224094391,0.7074917554855347,0.8784016370773315,-9.674135208129883
1745661961.4817767,-0.07970863580703735,-0.021008368581533432,0.4908369183540344,0.49211248755455017,1.00797438621521,-9.588356018066406
1745661961.4905396,-0.060782790184020996,-0.029800113290548325,0.4916438162326813,0.6776150465011597,0.7742657661437988,-9.684762954711914
1745661961.490615,-0.07118086516857147,-0.02862517535686493,0.4885782301425934,0.679279088973999,1.0518423318862915,-9.810930252075195
1745661961.4906707,-0.07049770653247833,-0.019957682117819786,0.48897576332092285,0.5021795630455017,0.8814061284065247,-9.872920036315918
1745661961.4907217,-0.06624499708414078,-0.03061642311513424,0.48812952637672424,0.6707807779312134,0.8623630404472351,-9.524654388427734
1745661961.5218022,-0.06721825897693634,-0.02819683589041233,0.48908573389053345,0.5108693838119507,1.0290228128433228,-9.537504196166992
1745661961.5242097,-0.06858408451080322,-0.02476031519472599,0.48936599493026733,0.676193356513977,0.8079100847244263,-9.854823112487793
1745661961.5268342,-0.06418287009000778,-0.02883138135075569,0.4872555732727051,0.5139226317405701,1.1823744773864746,-9.815206527709961
1745661961.5309956,-0.05290665477514267,-0.026287013664841652,0.4817386269569397,0.6772826313972473,0.8437809944152832,-9.746912002563477
1745661961.5665445,-0.05788520723581314,-0.033943481743335724,0.48250332474708557,0.5772801637649536,0.9856420755386353,-9.697395324707031
1745661961.5801475,-0.050592899322509766,-0.03358956426382065,0.4802696108818054,0.5486833453178406,1.0145092010498047,-9.694572448730469
1745661961.580211,-0.05284504219889641,-0.036025844514369965,0.48146969079971313,0.6724329590797424,0.9185149073600769,-9.755735397338867
1745661961.5802453,-0.04743444174528122,-0.02879529632627964,0.47822365164756775,0.4419001638889313,1.1242178678512573,-9.778800964355469
1745661961.6062438,-0.053184874355793,-0.03808686137199402,0.47959429025650024,0.6611275672912598,0.7713386416435242,-9.648208618164062
1745661961.6080918,-0.04159272089600563,-0.03840457648038864,0.4783143997192383,0.5515218377113342,1.1247299909591675,-9.590784072875977
1745661961.6107867,-0.05258448049426079,-0.03203541040420532,0.478304922580719,0.6206791996955872,0.9439150094985962,-9.881126403808594
1745661961.6139677,-0.04329677298665047,-0.04059353843331337,0.4767635464668274,0.5711220502853394,0.9728948473930359,-9.855047225952148
1745661961.6546068,-0.03659289702773094,-0.03102787397801876,0.4760315418243408,0.5848240852355957,1.1020190715789795,-9.543020248413086
1745661961.6547406,-0.04623570293188095,-0.03830000013113022,0.47635024785995483,0.6012719869613647,0.8502612113952637,-9.614480972290039
1745661961.6548035,-0.033226378262043,-0.035443298518657684,0.47518640756607056,0.4928475022315979,1.0566520690917969,-9.806756019592285
1745661961.6576347,-0.04145951196551323,-0.03860798850655556,0.4741430878639221,0.6908520460128784,0.8807715177536011,-9.745697975158691
1745661961.6601331,-0.028885509818792343,-0.03446084260940552,0.4769580364227295,0.5011225938796997,1.1886017322540283,-9.65505313873291
1745661961.6954465,-0.03511007875204086,-0.03717941418290138,0.47129711508750916,0.5861849784851074,0.9526405334472656,-9.760316848754883
1745661961.6998198,-0.011608237400650978,-0.041912369430065155,0.45056384801864624,0.6042639017105103,0.9143989682197571,-9.719945907592773
1745661961.6998968,-0.019086867570877075,-0.04549849033355713,0.4493931829929352,0.4136661887168884,1.1196599006652832,-9.898377418518066
1745661961.7050517,0.002843651454895735,-0.0351824127137661,0.4464665353298187,0.5620602369308472,0.9253538846969604,-9.740949630737305
1745661961.7555935,-0.01264558918774128,-0.03648465871810913,0.44940251111984253,0.5005214810371399,1.1350152492523193,-9.506314277648926
1745661961.755675,-0.007578046526759863,-0.039216287434101105,0.4452434182167053,0.42268943786621094,0.9199634790420532,-9.750720977783203
1745661961.7557302,0.0018345055868849158,-0.0454413965344429,0.4459068775177002,0.7115163803100586,0.942031741142273,-9.822124481201172
1745661961.7557874,-0.011788690462708473,-0.029660264030098915,0.44573670625686646,0.399887353181839,1.149933099746704,-9.860422134399414
1745661961.7792206,-0.005335646215826273,-0.041717059910297394,0.4442095160484314,0.6159745454788208,0.7668741941452026,-9.662485122680664
1745661961.7828338,-0.003965755924582481,-0.040831275284290314,0.4437827467918396,0.4761738181114197,1.1090879440307617,-9.569684028625488
1745661961.7889278,-0.006931492127478123,-0.030406588688492775,0.44406914710998535,0.5402147173881531,0.8901956677436829,-9.845518112182617
1745661961.789032,-0.011767895892262459,-0.03874660283327103,0.4443219304084778,0.45774149894714355,0.911232590675354,-9.81894302368164
1745661961.7900934,-0.00032793317222967744,-0.03493639454245567,0.44282016158103943,0.5329662561416626,1.0755716562271118,-9.523107528686523
1745661961.8244538,-0.007138009183108807,-0.039349187165498734,0.4421146512031555,0.6046746969223022,0.9880912899971008,-9.722830772399902
1745661961.8258805,-0.0022495128214359283,-0.034084219485521317,0.44059786200523376,0.3723730742931366,1.1312742233276367,-10.034704208374023
1745661961.8301747,-0.0022741088178008795,-0.03867536783218384,0.43850818276405334,0.6489471197128296,0.7810481190681458,-9.730266571044922
1745661961.8333514,-0.0010119571816176176,-0.03488467261195183,0.43886762857437134,0.4734640121459961,1.1122558116912842,-9.428564071655273
1745661961.8672278,-0.013719344511628151,-0.03610409051179886,0.4374349117279053,0.501463770866394,0.7726925611495972,-9.7872953414917
1745661961.869636,-0.010673369280993938,-0.04135313630104065,0.43830546736717224,0.5152958035469055,0.9534056782722473,-9.94128704071045
1745661961.8702013,-0.004624319262802601,-0.02794678881764412,0.4375048279762268,0.5505615472793579,1.066942811012268,-9.638920783996582
1745661961.8738909,-0.01582525297999382,-0.03480909392237663,0.4393032491207123,0.5151720643043518,0.878400444984436,-9.584903717041016
1745661961.9101522,-0.0040419092401862144,-0.03171252831816673,0.4340713620185852,0.3468683362007141,1.0122809410095215,-9.851524353027344
1745661961.9119298,0.0011664446210488677,-0.030829429626464844,0.4345349371433258,0.6415194272994995,0.923253059387207,-9.5823335647583
1745661961.9140067,-0.012183669954538345,-0.03266756981611252,0.4344545304775238,0.4735623300075531,0.9894450902938843,-9.740755081176758
1745661961.9144154,0.009582442231476307,-0.0280219167470932,0.4344657063484192,0.5194217562675476,1.0877031087875366,-9.837408065795898
1745661961.9543343,-0.0063595278188586235,-0.03704310953617096,0.4330158829689026,0.4876798689365387,0.9310911893844604,-9.7979736328125
1745661961.9583645,0.015597982332110405,-0.027486776933073997,0.4339107573032379,0.44536900520324707,1.0938745737075806,-9.663007736206055
1745661961.9609237,-0.008053903467953205,-0.02982911840081215,0.4312695562839508,0.6260873079299927,0.8726851344108582,-9.688953399658203
1745661961.9655993,0.003554211463779211,-0.036186832934617996,0.4324377477169037,0.4337831437587738,0.9454148411750793,-9.773731231689453
1745661961.967759,0.005942402873188257,-0.0298306904733181,0.43050312995910645,0.6809363961219788,0.9558693766593933,-9.715423583984375
1745661961.996089,-0.01173054613173008,-0.02913125418126583,0.4286816120147705,0.3845541179180145,0.9577590227127075,-9.821321487426758
1745661961.9988275,0.01303822547197342,-0.030286461114883423,0.43098968267440796,0.5201473236083984,0.9892736673355103,-9.67447280883789
1745661961.9998763,-0.003122584894299507,-0.03476348891854286,0.42940768599510193,0.5390849709510803,0.9958118200302124,-9.667470932006836
1745661962.0022774,0.012028885073959827,-0.023489803075790405,0.4320395886898041,0.3972946107387543,1.0183459520339966,-9.841618537902832
1745661962.0378168,0.005812200717628002,-0.033501360565423965,0.4316127300262451,0.5540594458580017,0.9795557260513306,-9.736732482910156
1745661962.0411584,0.012194918468594551,-0.03024396300315857,0.4287685453891754,0.4024212956428528,1.0096582174301147,-9.726441383361816
1745661962.0450542,0.02488595061004162,-0.03301137685775757,0.41603460907936096,0.3696421682834625,1.089821219444275,-9.642723083496094
1745661962.0469534,0.02128150314092636,-0.035222407430410385,0.4169241786003113,0.5042675733566284,0.8203277587890625,-9.710573196411133
1745661962.079385,0.018957167863845825,-0.040646445006132126,0.41796308755874634,0.5136291980743408,0.7965686917304993,-9.804865837097168
1745661962.0814931,0.024820273742079735,-0.02593192085623741,0.4174369275569916,0.49581560492515564,0.977557361125946,-9.704154968261719
1745661962.085468,0.004583135712891817,-0.0382053516805172,0.41645151376724243,0.4698033928871155,0.6824843287467957,-9.724264144897461
1745661962.0870433,0.026647156104445457,-0.036136046051979065,0.4158169627189636,0.46198922395706177,0.9864250421524048,-9.643570899963379
1745661962.089851,0.006641010753810406,-0.030134979635477066,0.4161624014377594,0.6166728138923645,0.8297993540763855,-9.780824661254883
1745661962.124924,0.013368385843932629,-0.03280509263277054,0.4141928255558014,0.305992066860199,0.9452866315841675,-9.831733703613281
1745661962.1283066,0.018996162340044975,-0.03665062040090561,0.41568464040756226,0.6074369549751282,0.8375540971755981,-9.554728507995605
1745661962.1304173,0.00513432314619422,-0.03301062807440758,0.41381096839904785,0.45420265197753906,0.9015766382217407,-9.729974746704102
1745661962.1338346,0.020040739327669144,-0.030056903138756752,0.4139103889465332,0.4602643847465515,0.9636672139167786,-9.867216110229492
1745661962.1667707,0.008162964135408401,-0.03879557177424431,0.41330283880233765,0.49353933334350586,0.8319839239120483,-9.782859802246094
1745661962.1686044,0.028444916009902954,-0.030047256499528885,0.4136495590209961,0.43517380952835083,1.0210974216461182,-9.610586166381836
1745661962.1696002,0.006784728728234768,-0.03396742790937424,0.41143903136253357,0.5610746741294861,0.8085927963256836,-9.750707626342773
1745661962.170802,0.017120547592639923,-0.03841021656990051,0.41190725564956665,0.36342963576316833,0.8699887990951538,-9.854057312011719
1745661962.2182627,0.023301655426621437,-0.029325705021619797,0.4123442769050598,0.6381081938743591,0.8494760394096375,-9.61912727355957
1745661962.2184267,-0.001670392812229693,-0.0334165133535862,0.41001611948013306,0.3496890068054199,0.7888608574867249,-9.696039199829102
1745661962.2185218,0.025563513860106468,-0.035099007189273834,0.412393718957901,0.4775789678096771,0.8494403958320618,-9.73182201385498
1745661962.218599,-0.00016792379028629512,-0.0376710444688797,0.4121362566947937,0.577932596206665,0.8164262771606445,-9.786517143249512
1745661962.2202516,0.01182094868272543,-0.026274213567376137,0.4119888246059418,0.35358119010925293,0.8829003572463989,-9.787038803100586
1745661962.255142,0.007144811563193798,-0.03629470616579056,0.4110521376132965,0.5679377317428589,0.8736095428466797,-9.596689224243164
1745661962.2586777,0.002194521250203252,-0.03855786472558975,0.40842142701148987,0.3791927993297577,0.9003884196281433,-9.760017395019531
1745661962.2692,0.004162124823778868,-0.028014862909913063,0.4054180681705475,0.40053731203079224,0.9382923245429993,-9.552080154418945
1745661962.2693498,0.010818839073181152,-0.032013196498155594,0.4088674485683441,0.5408998131752014,0.7326369881629944,-9.682374954223633
1745661962.295927,0.0005268119275569916,-0.03669549152255058,0.4075626730918884,0.40384969115257263,0.9420492053031921,-9.882113456726074
1745661962.3011863,0.01661635935306549,-0.02902463637292385,0.4066513180732727,0.5116664171218872,0.8243086934089661,-9.783209800720215
1745661962.3059573,0.0025209137238562107,-0.031193241477012634,0.4056224822998047,0.4560496211051941,0.9201289415359497,-9.623990058898926
1745661962.3095005,0.004437633790075779,-0.0321638397872448,0.4048326909542084,0.35597866773605347,0.8281262516975403,-9.707145690917969
1745661962.3136601,0.009249751456081867,-0.03659622743725777,0.40465131402015686,0.6145013570785522,0.7417001128196716,-9.763166427612305
1745661962.338382,-0.0036675874143838882,-0.02772931382060051,0.4047158658504486,0.3397775888442993,0.9332336187362671,-9.870329856872559
1745661962.3403206,0.0032481804955750704,-0.03198062628507614,0.40425413846969604,0.5383886098861694,0.6088722348213196,-9.759625434875488
1745661962.3498378,-0.003751615062355995,-0.033669363707304,0.4062812328338623,0.42077088356018066,0.9429165124893188,-9.546121597290039
1745661962.3499572,-0.0031070737168192863,-0.02851179800927639,0.40516239404678345,0.4957810342311859,0.7370368242263794,-9.7664155960083
1745661962.3829381,-0.005753749515861273,-0.03462829440832138,0.4082658886909485,0.47086721658706665,0.8591812252998352,-9.869596481323242
1745661962.3873026,0.0016336794942617416,-0.028339629992842674,0.40548238158226013,0.4200126528739929,1.0018012523651123,-9.713667869567871
1745661962.3908541,0.0011041052639484406,-0.035097476094961166,0.40655985474586487,0.5344424843788147,0.8318864703178406,-9.641831398010254
1745661962.396217,0.004199310205876827,-0.025949392467737198,0.4046696722507477,0.3589697778224945,0.8671333193778992,-9.77851676940918
1745661962.4269435,0.003529931651428342,-0.029850367456674576,0.40354210138320923,0.5330908894538879,0.8361913561820984,-9.788406372070312
1745661962.429825,-0.0036522909067571163,-0.0288547333329916,0.4020548462867737,0.25895947217941284,0.9006671905517578,-9.839689254760742
1745661962.4312513,0.01601114310324192,-0.02354986034333706,0.40236029028892517,0.5567000508308411,0.7757654786109924,-9.627326011657715
1745661962.4324076,-0.011046869680285454,-0.025950724259018898,0.40159159898757935,0.38722485303878784,0.9116223454475403,-9.725751876831055
1745661962.4685144,0.007027565035969019,-0.02889375388622284,0.4011518359184265,0.44862812757492065,0.6872261166572571,-9.866327285766602
1745661962.470264,-0.00034193089231848717,-0.027285391464829445,0.4008007049560547,0.5322226285934448,0.8384849429130554,-9.701194763183594
1745661962.4721384,-0.0054139429703354836,-0.018620671704411507,0.40102046728134155,0.28191858530044556,0.8401373624801636,-9.700043678283691
1745661962.4738321,-0.0005740890046581626,-0.03143278509378433,0.402209609746933,0.5402287244796753,0.6829732060432434,-9.688699722290039
1745661962.477201,-0.0009670344879850745,-0.02556012198328972,0.40229326486587524,0.4033340513706207,0.9763678312301636,-9.760414123535156
1745661962.5147743,0.0002064670843537897,-0.017796317115426064,0.40283456444740295,0.4785436689853668,0.7273911237716675,-9.848718643188477
1745661962.5148604,-0.003826844971626997,-0.027515863999724388,0.4027039110660553,0.3601885735988617,0.9472918510437012,-9.707643508911133
1745661962.5167005,0.011715861968696117,-0.02351028099656105,0.401386559009552,0.45782265067100525,0.808417797088623,-9.692773818969727
1745661962.5192156,-0.0007672112551517785,-0.02473529800772667,0.4002065062522888,0.4767061173915863,0.8142105937004089,-9.784692764282227
1745661962.5536668,-0.0006165932863950729,-0.01933235302567482,0.39828768372535706,0.3192439675331116,0.8550019264221191,-9.829816818237305
1745661962.5574136,0.004270025063306093,-0.03087008371949196,0.4013356566429138,0.60216224193573,0.6813047528266907,-9.610320091247559
1745661962.560126,-0.005688948556780815,-0.017934579402208328,0.39988940954208374,0.3826708197593689,0.9168422818183899,-9.754621505737305
1745661962.5601778,-0.004837139509618282,-0.020313773304224014,0.40068379044532776,0.46339327096939087,0.5890901684761047,-9.883661270141602
1745661962.5624099,-0.0055360132828354836,-0.02793697640299797,0.39938655495643616,0.42875367403030396,0.8919578790664673,-9.676135063171387
1745661962.5986247,-0.003431919263675809,-0.018276482820510864,0.40174809098243713,0.49377498030662537,0.7573157548904419,-9.653826713562012
1745661962.598737,-0.008878207765519619,-0.024536725133657455,0.4021594524383545,0.43020686507225037,0.8120526075363159,-9.857220649719238
1745661962.6086032,-0.010539330542087555,-0.01778494194149971,0.3996213972568512,0.4935401976108551,0.63042151927948,-9.749116897583008
1745661962.608684,0.0008153885719366372,-0.018721969798207283,0.39976227283477783,0.31239908933639526,0.8557151556015015,-9.730157852172852
1745661962.6406817,-0.0053923474624753,-0.02321726642549038,0.4004768431186676,0.5870808362960815,0.6957458257675171,-9.664169311523438
1745661962.6439826,-0.0017359976191073656,-0.022170308977365494,0.39936479926109314,0.38462263345718384,0.9643504023551941,-9.833410263061523
1745661962.6471915,-0.003283834783360362,-0.01375453919172287,0.39748066663742065,0.42774516344070435,0.805986225605011,-9.897333145141602
1745661962.6502268,-0.007510259747505188,-0.025793636217713356,0.3959265351295471,0.44131678342819214,0.7276890277862549,-9.666932106018066
1745661962.686659,0.004132767207920551,-0.01869175396859646,0.3963771462440491,0.4667603075504303,0.875868022441864,-9.517099380493164
1745661962.6959143,-0.02020609937608242,-0.021937023848295212,0.39721399545669556,0.46848759055137634,0.6365554928779602,-9.886842727661133
1745661962.6961002,-0.0009237736230716109,-0.02122172713279724,0.3977936804294586,0.3914489448070526,0.9114972352981567,-9.906400680541992
1745661962.6975322,-0.007500736974179745,-0.019142339006066322,0.3981194794178009,0.5887354016304016,0.7842885851860046,-9.626606941223145
1745661962.7249205,-0.005112363491207361,-0.021763134747743607,0.3985968232154846,0.3263707756996155,0.9374788403511047,-9.667263984680176
1745661962.7279584,0.005373954772949219,-0.021978169679641724,0.3986891508102417,0.4820437431335449,0.8459001779556274,-9.813423156738281
1745661962.7302527,-0.0023596337996423244,-0.024254966527223587,0.3961106240749359,0.44172200560569763,0.8134581446647644,-9.79025650024414
1745661962.7308853,0.014771217480301857,-0.014146040193736553,0.3963107764720917,0.381143718957901,0.9135602712631226,-9.63487434387207
1745661962.7738204,-0.006832141429185867,-0.029165741056203842,0.3865213990211487,0.3848908543586731,0.7869561314582825,-9.853644371032715
1745661962.7739396,-0.0010687164030969143,-0.02302512899041176,0.3844013810157776,0.36342349648475647,0.8337141275405884,-9.70959758758545
1745661962.7739918,0.0006780544063076377,-0.03173453360795975,0.38517147302627563,0.49137312173843384,0.7236789464950562,-9.644180297851562
1745661962.7743282,0.00024260133795905858,-0.02114781178534031,0.38387665152549744,0.29698529839515686,0.9511016607284546,-9.847326278686523
1745661962.8122232,-0.011148760095238686,-0.02806583046913147,0.3841002285480499,0.4623579978942871,0.48920518159866333,-9.857320785522461
1745661962.8151019,0.0026376978494226933,-0.0287143737077713,0.3834531009197235,0.3848339915275574,0.9684263467788696,-9.516534805297852
1745661962.8197205,-0.017489388585090637,-0.02208518609404564,0.38439711928367615,0.4096303880214691,0.6423043012619019,-9.762762069702148
1745661962.8226922,-0.00978791806846857,-0.03310207277536392,0.3803303837776184,0.38636791706085205,0.7771509885787964,-9.912294387817383
1745661962.8250098,-0.003957113716751337,-0.021124016493558884,0.38202226161956787,0.45797404646873474,0.9019706845283508,-9.706403732299805
1745661962.8563178,-0.016400178894400597,-0.026429861783981323,0.382127046585083,0.37898769974708557,0.7001676559448242,-9.657272338867188
1745661962.8589108,-0.0036675259470939636,-0.02626962587237358,0.3811179995536804,0.31820815801620483,0.9128783345222473,-9.647029876708984
1745661962.8616586,-0.010889269411563873,-0.02731718122959137,0.3826274871826172,0.5346862077713013,0.6545499563217163,-9.824056625366211
1745661962.861727,-0.002034104662016034,-0.021750558167696,0.38041946291923523,0.3325626254081726,1.0652347803115845,-9.797416687011719
1745661962.8989644,-0.009632055647671223,-0.026320774108171463,0.37985193729400635,0.3912859261035919,0.6967424750328064,-9.811198234558105
1745661962.9027996,0.009643396362662315,-0.029494423419237137,0.3799982964992523,0.40458545088768005,0.8995429873466492,-9.621957778930664
1745661962.9060683,-0.005799844395369291,-0.020318467170000076,0.3786083161830902,0.43334561586380005,0.8947075605392456,-9.714570999145508
1745661962.908184,-0.006978848483413458,-0.03388890251517296,0.3784126937389374,0.3694974482059479,0.5565932989120483,-9.923675537109375
1745661962.910505,0.010203870013356209,-0.02249852940440178,0.3780212700366974,0.40097707509994507,0.9520394206047058,-9.673202514648438
1745661962.942562,-0.021011587232351303,-0.026921238750219345,0.37777504324913025,0.43670129776000977,0.6376519203186035,-9.699251174926758
1745661962.944607,0.004717758856713772,-0.032750435173511505,0.37364262342453003,0.2142876833677292,0.9331918954849243,-9.830984115600586
1745661962.9466162,-0.008039451204240322,-0.029394829645752907,0.370156466960907,0.42750176787376404,0.7574687004089355,-9.750323295593262
1745661962.9841413,-0.025098314508795738,-0.0320701040327549,0.35563069581985474,0.45629340410232544,0.7916297912597656,-9.618148803710938
1745661962.9880354,-0.036294031888246536,-0.04046960920095444,0.3566299378871918,0.3793300986289978,0.7928323149681091,-9.72016716003418
1745661962.9909441,-0.019964588806033134,-0.032008975744247437,0.3535457253456116,0.27228665351867676,1.022426724433899,-9.83948040008545
1745661962.9932427,-0.017735835164785385,-0.03908597305417061,0.35316193103790283,0.3404584228992462,0.7912379503250122,-9.802199363708496
1745661962.9954166,-0.005880587734282017,-0.036350317299366,0.35276418924331665,0.3410516381263733,1.1441198587417603,-9.576835632324219
1745661963.0286257,0.008987223729491234,-0.03884487599134445,0.35157838463783264,0.514189600944519,0.8469702005386353,-9.795831680297852
1745661963.0304048,0.011096745729446411,-0.04107115417718887,0.3488765358924866,0.1312810480594635,1.0975606441497803,-10.04649543762207
1745661963.0320683,0.026180967688560486,-0.036314986646175385,0.3489694893360138,0.3760693073272705,0.5947475433349609,-9.762537002563477
1745661963.0349228,0.016386529430747032,-0.038657236844301224,0.3483631908893585,0.3064120411872864,0.9082576632499695,-9.399598121643066
1745661963.0823777,0.012513597495853901,-0.04040997847914696,0.3454297184944153,0.2858472764492035,0.5389314889907837,-9.803728103637695
1745661963.082475,0.004440179094672203,-0.044537805020809174,0.34532296657562256,0.39094632863998413,0.6651589870452881,-9.991739273071289
1745661963.0825477,-0.006290699355304241,-0.03105994686484337,0.34456294775009155,0.2671431005001068,0.6752809882164001,-9.76350212097168
1745661963.0826123,-0.0165795236825943,-0.043407101184129715,0.34189534187316895,0.4214998781681061,0.5116073489189148,-9.479096412658691
1745661963.0826592,-0.024149175733327866,-0.04800105839967728,0.3437182903289795,0.2954050898551941,0.7036365866661072,-9.789392471313477
1745661963.1145365,-0.018593722954392433,-0.03458087891340256,0.34386271238327026,0.4133608341217041,0.6105664968490601,-10.019678115844727
1745661963.1170108,-0.02807958982884884,-0.031022021546959877,0.3043389916419983,0.14594528079032898,0.8361484408378601,-10.325139045715332
1745661963.1190963,0.005147374235093594,-0.03849082067608833,0.30438336730003357,0.10613085329532623,0.8091005086898804,-9.353635787963867
1745661963.120853,0.015060573816299438,-0.037792306393384933,0.3034452497959137,0.4898355007171631,0.9992100596427917,-9.086492538452148
1745661963.155735,-0.008547927252948284,-0.04266127198934555,0.30202919244766235,0.09938851743936539,0.8381345868110657,-10.37476634979248
1745661963.1574204,0.039818864315748215,-0.03625740855932236,0.29881805181503296,0.24501152336597443,0.8101679086685181,-10.304067611694336
1745661963.159289,0.021039385348558426,-0.03197693079710007,0.3006680905818939,0.23262453079223633,0.9039750099182129,-9.260908126831055
1745661963.1605158,0.029764752835035324,-0.035241566598415375,0.2978385090827942,0.09021832048892975,0.7637702226638794,-9.338598251342773
1745661963.1620138,0.027993928641080856,-0.0459042489528656,0.29723507165908813,0.3457140028476715,0.5381247997283936,-10.111635208129883
1745661963.1991694,0.029430817812681198,-0.027679646387696266,0.2946605384349823,0.15062686800956726,0.8638331294059753,-10.117413520812988
1745661963.2043397,0.012162324972450733,-0.029094019904732704,0.29286399483680725,0.251645028591156,0.5245753526687622,-9.539048194885254
1745661963.20627,0.017384102568030357,-0.03885018453001976,0.2907310724258423,0.2105565071105957,0.6564790606498718,-9.308505058288574
1745661963.2087624,0.015486580319702625,-0.030363494530320168,0.29030507802963257,0.33719485998153687,0.5864201784133911,-9.999509811401367
1745661963.2421045,-0.0059512583538889885,-0.02923748828470707,0.2918432354927063,0.16306348145008087,0.630115807056427,-10.21537971496582
1745661963.2441325,0.024824723601341248,-0.02927669882774353,0.29009246826171875,0.2755104899406433,0.6584764122962952,-9.526098251342773
1745661963.2457235,0.014044240117073059,-0.02869139239192009,0.2917860150337219,0.25870054960250854,0.8904063105583191,-9.381402969360352
1745661963.248372,0.0041783950291574,-0.027634937316179276,0.28798073530197144,-0.030343761667609215,0.8154584765434265,-10.04423713684082
1745661963.2849176,0.042004071176052094,-0.031950533390045166,0.2876555919647217,0.36711257696151733,0.6749762296676636,-9.90382194519043
1745661963.2879329,0.023179149255156517,-0.018928539007902145,0.28198742866516113,0.14788424968719482,1.0821893215179443,-9.598797798156738
1745661963.2926354,0.026117544621229172,-0.02842208370566368,0.28255990147590637,0.21959856152534485,0.4855734705924988,-9.771276473999023
1745661963.2982247,0.03729742020368576,-0.03218981251120567,0.281329482793808,0.2745014727115631,0.8130331039428711,-9.731271743774414
1745661963.303222,0.02844412624835968,-0.0146107766777277,0.281067818403244,0.27397722005844116,0.6548784971237183,-9.862055778503418
1745661963.3276892,0.04351115599274635,-0.021736526861786842,0.2574833333492279,0.12356887757778168,0.8817318677902222,-9.416879653930664
1745661963.3289807,0.06607673317193985,-0.0343504324555397,0.2543044984340668,0.3396565914154053,0.4618867337703705,-9.778594017028809
1745661963.3293781,0.07147188484668732,-0.014252166263759136,0.2490740269422531,-0.12603053450584412,1.1055948734283447,-10.10759449005127
1745661963.3387477,0.061938632279634476,-0.010507263243198395,0.24450001120567322,-0.020546015352010727,0.11855442821979523,-9.819269180297852
1745661963.3740003,0.0783190056681633,-0.021321061998605728,0.24355295300483704,0.1735692322254181,0.6693471670150757,-9.021851539611816
1745661963.3776007,0.04572639986872673,-0.018346698954701424,0.24085262417793274,0.2832888960838318,0.24877981841564178,-9.884714126586914
1745661963.379857,0.05097999423742294,-0.022720202803611755,0.2340230941772461,0.15970353782176971,0.4734579026699066,-10.530863761901855
1745661963.383193,0.037936411798000336,-0.00523682264611125,0.22939638793468475,0.1432567834854126,0.43722763657569885,-9.7296724319458
1745661963.419706,0.024335164576768875,-0.017107903957366943,0.22756914794445038,0.35099881887435913,0.30997759103775024,-9.021089553833008
1745661963.4234161,-0.0004936680197715759,-0.028389837592840195,0.2207656353712082,0.1587281972169876,0.651667594909668,-9.820313453674316
1745661963.4324217,0.016575541347265244,-0.02133968099951744,0.216272234916687,0.3243054747581482,0.4471885561943054,-10.539142608642578
1745661963.432479,0.013781088404357433,-0.007636713329702616,0.21325135231018066,0.01980002224445343,1.0788160562515259,-9.698899269104004
1745661963.4339383,0.01956311985850334,-0.021222485229372978,0.2100401222705841,0.26868313550949097,0.688416063785553,-9.158281326293945
1745661963.4587195,0.054344773292541504,-0.0376054123044014,0.2073466032743454,0.3060678243637085,1.0468372106552124,-9.75947380065918
1745661963.462631,0.04881737753748894,-0.01348753273487091,0.20187222957611084,0.06760786473751068,0.9777989387512207,-10.620862007141113
1745661963.466002,0.08470664173364639,-0.006060740444809198,0.14807412028312683,0.10346188396215439,0.5049057006835938,-9.888043403625488
1745661963.4697008,0.07274992763996124,-0.004271056968718767,0.14820513129234314,0.4436291754245758,0.35570022463798523,-9.60114860534668
1745661963.5050735,0.06553658097982407,-0.016999101266264915,0.14867499470710754,0.5126289129257202,0.5194195508956909,-9.679878234863281
1745661963.5051265,0.07195848971605301,-0.006821478717029095,0.14259962737560272,0.2542819678783417,0.7114352583885193,-10.071375846862793
1745661963.5079436,0.07247573137283325,-0.009916850365698338,0.14859731495380402,0.2412703037261963,0.54776531457901,-9.851724624633789
1745661963.5099123,0.09055166691541672,-0.0058980113826692104,0.1487647294998169,0.15096846222877502,0.7412930727005005,-9.391398429870605
1745661963.5127094,0.10054197162389755,-0.012117749080061913,0.15044011175632477,0.34905463457107544,0.7632014751434326,-9.674585342407227
1745661963.5463026,0.11218734830617905,-0.015338021330535412,0.15105797350406647,0.07742077112197876,0.7010548710823059,-10.282781600952148
1745661963.5464685,0.15201935172080994,0.0011929500615224242,0.15186366438865662,0.17867755889892578,0.7074075937271118,-9.695180892944336
1745661963.5479462,0.13085398077964783,-0.006116155069321394,0.15147238969802856,0.15718723833560944,0.4595974385738373,-9.2439603805542
1745661963.5495212,0.14734111726284027,-0.014221025630831718,0.15171554684638977,0.18924486637115479,0.16600356996059418,-9.779809951782227
1745661963.5895886,0.1230652928352356,-0.004524255637079477,0.15403644740581512,0.26458922028541565,0.09516589343547821,-10.24803352355957
1745661963.5977275,0.10887094587087631,0.004665802698582411,0.15388032793998718,-0.0024204179644584656,0.05206336826086044,-9.776388168334961
1745661963.599821,0.0844498872756958,-0.002963477745652199,0.156157985329628,0.33485907316207886,-0.1763007640838623,-9.152958869934082
1745661963.6028442,0.057279039174318314,-0.009036025032401085,0.15402570366859436,0.21599134802818298,0.1516677439212799,-9.731964111328125
1745661963.607673,0.04732368886470795,0.0006586991949006915,0.1509498655796051,0.28990766406059265,0.1758505403995514,-10.372686386108398
1745661963.6318917,0.03805074840784073,0.0010616870131343603,0.15191930532455444,0.17189164459705353,0.28863459825515747,-9.850836753845215
1745661963.6341922,0.052524466067552567,0.009237213991582394,0.15322397649288177,0.13842540979385376,0.5655904412269592,-9.150331497192383
1745661963.6383073,0.036943234503269196,-0.011491814628243446,0.15405364334583282,0.27431637048721313,0.4013942778110504,-9.712656021118164
1745661963.6425636,0.0755799263715744,0.004152705427259207,0.15589503943920135,0.053030647337436676,0.7168996930122375,-10.314960479736328
1745661963.6744561,0.08826632052659988,0.012344708666205406,0.15466521680355072,0.2295321524143219,0.6701388359069824,-9.781190872192383
1745661963.676998,0.04173979535698891,-0.0015916302800178528,0.14948619902133942,0.067591592669487,0.2559890151023865,-9.857263565063477
1745661963.679566,0.060141392052173615,0.010600419715046883,0.14971518516540527,0.06772331148386002,0.35858067870140076,-10.033979415893555
1745661963.6819856,0.049991246312856674,0.007193459663540125,0.1511627584695816,0.27330079674720764,0.26009756326675415,-9.605886459350586
1745661963.7156026,0.06277133524417877,0.006821834482252598,0.15043719112873077,0.1261504888534546,0.5399556159973145,-9.514071464538574
1745661963.717297,0.06887632608413696,0.002403770573437214,0.14857321977615356,0.3279810845851898,0.34991198778152466,-9.900132179260254
1745661963.7215872,0.07570381462574005,0.010193785652518272,0.14821729063987732,0.22483277320861816,0.562046229839325,-10.003984451293945
1745661963.7231221,0.08138652890920639,0.014992371201515198,0.14787662029266357,0.3510429263114929,0.22449561953544617,-9.651956558227539
1745661963.7627509,0.06674595922231674,-0.0015595711302012205,0.1442914456129074,0.2656886875629425,0.4083247184753418,-9.518851280212402
1745661963.7628052,0.07779879868030548,0.007982240058481693,0.14629928767681122,0.2674494683742523,0.146038219332695,-9.992944717407227
1745661963.762848,0.0644141286611557,0.008607211522758007,0.1408078372478485,0.2219235599040985,0.3967556953430176,-10.009653091430664
1745661963.762902,0.06428112089633942,0.01004096120595932,0.13851475715637207,0.5084908604621887,0.2593010663986206,-9.62173843383789
1745661963.7640073,0.07609451562166214,-0.018135687336325645,0.13556388020515442,0.6603749990463257,0.514174222946167,-9.671201705932617
1745661963.8047092,0.10991811752319336,0.02459767833352089,0.12677490711212158,-0.3499818742275238,1.060302495956421,-10.30424690246582
1745661963.806815,0.13456980884075165,0.009991193190217018,0.11576779186725616,0.28573355078697205,0.2985321283340454,-9.22704029083252
1745661963.811184,0.1030547246336937,-0.015389946289360523,0.1150733232498169,0.43658098578453064,-0.28155988454818726,-9.440226554870605
1745661963.8149374,0.14429804682731628,0.04687242582440376,-0.051125235855579376,0.29622533917427063,0.019196853041648865,-7.709837913513184
1745661963.8467107,0.14727634191513062,0.01817273162305355,-0.05512075498700142,0.2223351001739502,0.3906148076057434,-8.790548324584961
1745661963.8487294,0.15421730279922485,0.04585536569356918,-0.06241445988416672,0.4249231219291687,0.0922556146979332,-11.489295959472656
1745661963.8503513,0.15323074162006378,0.06091330200433731,-0.0704561099410057,0.6010077595710754,0.1413678675889969,-10.593000411987305
1745661963.8504095,0.16916948556900024,0.043842051178216934,-0.07185930758714676,0.6653834581375122,0.07276603579521179,-8.339906692504883
1745661963.8873873,0.14895473420619965,0.020274166017770767,-0.07218092679977417,0.7636362314224243,-0.006458309479057789,-9.24679946899414
1745661963.8906941,0.15659740567207336,0.03828877583146095,-0.075534388422966,0.5235775113105774,-0.19502371549606323,-11.215222358703613
1745661963.8936892,0.16740719974040985,0.051250845193862915,-0.07619644701480865,0.6326552629470825,-0.20836052298545837,-10.188567161560059
1745661963.8972652,0.13935036957263947,0.03461446613073349,-0.07900361716747284,0.32016855478286743,-0.009702330455183983,-8.473987579345703
1745661963.8998911,0.1589430868625641,0.03134655952453613,-0.08096584677696228,0.3843120038509369,0.014583045616745949,-9.351339340209961
1745661963.9340992,0.14697688817977905,0.032728053629398346,-0.0876467153429985,0.4215470254421234,0.17401927709579468,-10.690980911254883
1745661963.9374065,0.15760813653469086,0.051135458052158356,-0.0973941832780838,0.4585619568824768,0.12197822332382202,-10.215786933898926
1745661963.9386933,0.14651727676391602,0.03084433637559414,-0.10258197784423828,0.6083524823188782,-0.022989770397543907,-9.02515983581543
1745661963.942491,0.15996497869491577,0.028180573135614395,-0.1049036830663681,0.44491714239120483,-0.02423165738582611,-9.472480773925781
1745661963.9760292,0.14167264103889465,0.03560394048690796,-0.10529662668704987,0.7092471718788147,-0.33198052644729614,-10.24771785736084
1745661963.977501,0.14659717679023743,0.0390324667096138,-0.10393722355365753,0.5307527780532837,-0.3619839549064636,-9.981578826904297
1745661963.9784234,0.16055747866630554,0.03609978407621384,-0.10293485224246979,0.6230156421661377,0.003368550445884466,-9.294458389282227
1745661963.9837334,0.1325448900461197,0.02742561139166355,-0.10744251310825348,0.47498077154159546,0.13655760884284973,-9.655317306518555
1745661963.9851553,0.18446891009807587,0.03654584661126137,-0.11421193182468414,0.4044645428657532,0.24404704570770264,-10.004026412963867
1745661964.0199707,0.15577860176563263,0.031394265592098236,-0.12244205176830292,0.5247257947921753,0.12079916149377823,-9.84869384765625
1745661964.0227773,0.18252268433570862,0.030140182003378868,-0.12902617454528809,0.3919529318809509,-0.022622650489211082,-9.660612106323242
1745661964.0257456,0.1464446634054184,0.02331060916185379,-0.14693370461463928,0.586297869682312,-0.038210127502679825,-9.24009895324707
1745661964.0275204,0.12989039719104767,0.00920824147760868,-0.15102078020572662,0.6445291042327881,-0.2939862310886383,-9.8198823928833
1745661964.0606964,0.1579798460006714,0.019377363845705986,-0.1513589322566986,0.6639584302902222,-0.19058266282081604,-10.330827713012695
1745661964.0639372,0.14552590250968933,0.015196964144706726,-0.15399622917175293,0.6037147641181946,-0.35575634241104126,-9.83096694946289
1745661964.0681832,0.15829317271709442,0.014450150541961193,-0.1538075953722,0.46452078223228455,-0.2775091528892517,-9.204183578491211
1745661964.071347,0.12393291294574738,0.005389553960412741,-0.15440413355827332,0.6173489689826965,-0.5078250169754028,-9.574408531188965
1745661964.0751626,0.14853212237358093,0.011483084410429,-0.15909335017204285,0.3695562481880188,-0.1434486210346222,-10.131753921508789
1745661964.105372,0.1269739717245102,0.02144424244761467,-0.16007888317108154,0.5166130065917969,-0.21135158836841583,-9.753911972045898
1745661964.106813,0.13418428599834442,0.0054518356919288635,-0.16661672294139862,0.4856932759284973,-0.3425799012184143,-9.429094314575195
1745661964.1084137,0.1450832337141037,0.0037343651056289673,-0.16972126066684723,0.55657958984375,-0.1295250654220581,-9.725889205932617
1745661964.1101363,0.13040132820606232,0.0012416841927915812,-0.1645536869764328,0.5808073878288269,-0.6119357347488403,-10.185766220092773
1745661964.1474402,0.15812405943870544,0.013376032933592796,-0.1608237773180008,0.2217217981815338,-0.4308064579963684,-9.803544044494629
1745661964.149786,0.12669183313846588,0.004739669151604176,-0.15196537971496582,0.22917623817920685,-0.7732763886451721,-9.163202285766602
1745661964.1501167,0.11186724901199341,-0.025196736678481102,-0.14563658833503723,0.11311421543359756,-0.7205268740653992,-9.705923080444336
1745661964.1513872,0.09625166654586792,0.0005540886195376515,-0.14026018977165222,-0.3003251254558563,-0.5748342275619507,-10.503557205200195
1745661964.1924787,-0.004309185314923525,-0.06501775234937668,-0.08427080512046814,0.044688183814287186,-0.2967633903026581,-10.054174423217773
1745661964.195097,-0.014938277192413807,-0.058623671531677246,-0.08544997870922089,0.14154347777366638,-0.30197179317474365,-10.499025344848633
1745661964.1971645,0.015424266457557678,-0.04880758002400398,-0.08685439079999924,0.2920801043510437,-0.08725573867559433,-9.41935920715332
1745661964.1997132,0.000729002058506012,-0.06109544634819031,-0.0847993940114975,0.4888014793395996,-0.17217621207237244,-9.336873054504395
1745661964.2314599,0.017227720469236374,-0.07301265746355057,-0.0829283744096756,0.2524356245994568,-0.43101054430007935,-10.500509262084961
1745661964.2342563,0.013158416375517845,-0.047491490840911865,-0.07624417543411255,0.42875075340270996,-0.5459059476852417,-10.150423049926758
1745661964.2361038,-0.0056687830947339535,-0.04762694239616394,-0.06522218883037567,0.430633008480072,-0.7625693082809448,-9.274618148803711
1745661964.2406933,0.007802353240549564,-0.062130898237228394,-0.062438271939754486,0.3437636196613312,-0.2495379000902176,-9.337742805480957
1745661964.2447217,-0.028220701962709427,-0.05943114310503006,-0.05937148258090019,0.48310747742652893,-0.33901670575141907,-10.412779808044434
1745661964.2758381,0.0027131191454827785,-0.04432583600282669,-0.06563947349786758,0.17144009470939636,-0.0059789144434034824,-10.338726043701172
1745661964.2784986,-0.008712383918464184,-0.044259022921323776,-0.07317052036523819,0.6136690974235535,-0.12760400772094727,-9.135976791381836
1745661964.279488,-0.009638015180826187,-0.06957022845745087,-0.07807324826717377,0.599289059638977,0.04944282025098801,-9.618326187133789
1745661964.2807388,0.024073775857686996,-0.02760484255850315,-0.08502086997032166,0.2181742638349533,0.10026909410953522,-10.700475692749023
1745661964.319223,0.03503275662660599,-0.039419256150722504,-0.09339483082294464,0.9513231515884399,-0.0763978362083435,-9.446954727172852
1745661964.321347,0.08807646483182907,-0.03294374793767929,-0.0921352356672287,0.8326460123062134,-0.1360044628381729,-9.283915519714355
1745661964.323922,0.0474834144115448,-0.050886232405900955,-0.09208735823631287,0.7016587257385254,-0.8914110064506531,-10.350456237792969
1745661964.3270044,0.11487221717834473,-0.016429368406534195,-0.08881796896457672,0.19694259762763977,-0.2781098484992981,-10.16405963897705
1745661964.3642263,0.043210823088884354,-0.004790637642145157,-0.09202556312084198,0.42273253202438354,-1.0467259883880615,-9.284936904907227
1745661964.3660579,0.04404144734144211,-0.0338195376098156,-0.10074593871831894,0.5019556283950806,-0.7562533617019653,-9.333745002746582
1745661964.3675373,0.028388742357492447,-0.015655651688575745,-0.11271009594202042,0.5118468999862671,-0.2790146470069885,-10.444999694824219
1745661964.3699296,0.1193472370505333,0.0012433084193617105,-0.16288039088249207,0.5597746968269348,-0.5345180630683899,-9.289472579956055
1745661964.403567,0.07074684649705887,0.00616747559979558,-0.16319546103477478,0.7803823351860046,-0.9266136288642883,-10.628305435180664
1745661964.40763,0.065499447286129,0.03194122016429901,-0.1639680564403534,0.4823184013366699,-0.88214111328125,-10.277826309204102
1745661964.4133942,0.027484159916639328,0.021980226039886475,-0.16609033942222595,0.7127766609191895,-0.9634611010551453,-8.826343536376953
1745661964.4141874,0.00852055475115776,0.004383014515042305,-0.16839911043643951,0.5672979950904846,-0.43893760442733765,-9.334935188293457
1745661964.4156542,0.005786926485598087,0.024429455399513245,-0.17382974922657013,0.37556779384613037,-0.691297173500061,-10.850587844848633
1745661964.4477706,0.01922745257616043,0.029427403584122658,-0.17943648993968964,0.23165002465248108,-0.13616541028022766,-10.146356582641602
1745661964.4492693,0.02387017384171486,0.03001388907432556,-0.1820608675479889,0.09374026954174042,-0.29403358697891235,-8.8575439453125
1745661964.4508173,0.03518424928188324,0.02459808625280857,-0.18044114112854004,0.3775091767311096,-0.3139421343803406,-9.248122215270996
1745661964.4547222,0.04497702792286873,0.03104691579937935,-0.1838148534297943,0.3777675926685333,-0.11368570476770401,-10.435504913330078
1745661964.4940338,0.06448569148778915,0.044390905648469925,-0.1845591962337494,0.7755925059318542,-0.42568880319595337,-10.233257293701172
1745661964.4957056,0.05003970116376877,0.029906952753663063,-0.18604731559753418,0.6324841380119324,-0.2880116403102875,-9.390752792358398
1745661964.4995904,0.07355684041976929,0.024797348305583,-0.18752479553222656,0.7441828846931458,-0.5869629979133606,-9.688920021057129
1745661964.5017037,0.035261888056993484,0.02629672922194004,-0.19203314185142517,0.6004047393798828,-0.24959400296211243,-10.234591484069824
1745661964.5031288,0.06184133142232895,0.03788924589753151,-0.19401021301746368,0.41883963346481323,-0.6480751633644104,-9.942105293273926
1745661964.5331056,0.043987520039081573,0.03066454455256462,-0.19507823884487152,0.609611988067627,-0.1159447655081749,-9.063960075378418
1745661964.53607,0.015950674191117287,0.01382878702133894,-0.21138879656791687,0.47250431776046753,-0.49100351333618164,-9.780817031860352
1745661964.5388603,0.037815988063812256,0.009020965546369553,-0.21200355887413025,0.24129417538642883,-0.26093149185180664,-9.407186508178711
1745661964.5409098,0.03420201689004898,0.004442287143319845,-0.20997247099876404,0.33825162053108215,-0.3689084053039551,-9.54217529296875
1745661964.5792103,0.049173980951309204,0.0038579278625547886,-0.21154126524925232,0.42435985803604126,-0.2733919024467468,-9.929689407348633
1745661964.5819578,0.06868759542703629,0.013189355842769146,-0.2123328149318695,0.3699858784675598,-0.34454235434532166,-9.862207412719727
1745661964.5846505,0.05944414064288139,0.002451797481626272,-0.2137976586818695,0.6265116930007935,-0.528091311454773,-9.448477745056152
1745661964.5885556,0.05206035450100899,-0.004114220850169659,-0.21455290913581848,0.5804668068885803,-0.46084532141685486,-9.59153938293457
1745661964.6233277,0.03814048320055008,-0.0022428284864872694,-0.21458816528320312,0.6998076438903809,-0.8846895098686218,-10.028497695922852
1745661964.6248531,0.04382649436593056,-0.0010798380244523287,-0.21320626139640808,0.46669140458106995,-0.6025936603546143,-9.865478515625
1745661964.626931,0.029586706310510635,-0.004602228756994009,-0.21077685058116913,0.48392048478126526,-0.7672788500785828,-9.448410987854004
1745661964.6287684,0.02271033078432083,-0.01278309803456068,-0.2104146033525467,0.4936276078224182,-0.35184210538864136,-9.551335334777832
1745661964.633226,0.03229790925979614,-0.001673450693488121,-0.21289567649364471,0.344254732131958,-0.4495846629142761,-9.994598388671875
1745661964.665049,0.03449176251888275,-0.012868057005107403,-0.21369513869285583,0.4249034523963928,-0.432995080947876,-9.78943157196045
1745661964.6668787,0.05507640913128853,-0.009530648589134216,-0.21835069358348846,0.3508230745792389,-0.3886464536190033,-9.453130722045898
1745661964.6680472,0.04027237743139267,-0.011730199679732323,-0.21426144242286682,0.5362114906311035,-0.7039357423782349,-9.704462051391602
1745661964.6712723,0.04448278620839119,-0.017843209207057953,-0.21220269799232483,0.388369619846344,-0.6064777970314026,-9.921303749084473
1745661964.7058032,0.030140280723571777,-0.010739302262663841,-0.2093123495578766,0.6454966068267822,-0.9631096720695496,-9.741602897644043
1745661964.7165828,0.025645598769187927,-0.021277736872434616,-0.2080426663160324,0.506985068321228,-0.6812753081321716,-9.581052780151367
1745661964.7167246,0.024050284177064896,-0.015910938382148743,-0.2077406942844391,0.43997326493263245,-0.5413888692855835,-9.73167610168457
1745661964.7168088,0.00616296986117959,-0.022939492017030716,-0.21023134887218475,0.5907713174819946,-0.4887443482875824,-9.717851638793945
1745661964.7482202,-0.021989833563566208,-0.04962419345974922,-0.14705470204353333,0.17969849705696106,-0.38753917813301086,-10.64476490020752
1745661964.7510557,0.03247007727622986,-0.03272555023431778,-0.14562258124351501,0.2624204158782959,-0.181932732462883,-9.702808380126953
1745661964.753675,-0.0076711056753993034,-0.04724797233939171,-0.14809639751911163,0.24323098361492157,-0.25500208139419556,-8.99897289276123
1745661964.7547529,0.021607454866170883,-0.0618087537586689,-0.14624062180519104,0.21708723902702332,-0.7939090728759766,-9.980154037475586
1745661964.7584016,-0.010225720703601837,-0.048523325473070145,-0.1384173333644867,0.22171589732170105,-0.7830489873886108,-10.436073303222656
1745661964.795071,-0.009973322972655296,-0.031126976013183594,-0.1322144865989685,0.09327797591686249,-1.0203137397766113,-9.662424087524414
1745661964.797602,-0.03179701417684555,-0.051421649754047394,-0.12298913300037384,0.35335367918014526,-0.8657194375991821,-8.872549057006836
1745661964.8008049,-0.04713299870491028,-0.05733145400881767,-0.11807726323604584,0.3914407193660736,-0.5815728902816772,-9.859918594360352
1745661964.8029907,-0.045460205525159836,-0.04392968490719795,-0.11942397058010101,0.31645214557647705,-0.4782885015010834,-10.632028579711914
1745661964.8358932,-0.044087864458560944,-0.04303687810897827,-0.12192163616418839,0.17688649892807007,-0.35798054933547974,-9.734903335571289
1745661964.838376,-0.045876599848270416,-0.04483697563409805,-0.11781972646713257,0.12792930006980896,-0.414175420999527,-9.064592361450195
1745661964.841057,-0.052098024636507034,-0.06139601394534111,-0.11372043937444687,0.31125688552856445,-0.6193181872367859,-9.82713794708252
1745661964.8425395,-0.028165262192487717,-0.04431619122624397,-0.1092434749007225,0.04194140434265137,-0.3717062473297119,-10.465272903442383
1745661964.881772,-0.053128134459257126,-0.036902230232954025,-0.10306280851364136,0.25865232944488525,-0.6045674085617065,-9.569775581359863
1745661964.8818474,-0.02557842805981636,-0.04961565136909485,-0.10162540525197983,0.2321740686893463,-0.26644378900527954,-9.087347030639648
1745661964.8848336,-0.041739314794540405,0.004112216178327799,-0.13798992335796356,0.47172778844833374,-0.5664398670196533,-8.626148223876953
1745661964.8885126,-0.11770589649677277,-0.020380815491080284,-0.1374422013759613,0.7844341993331909,-1.1432021856307983,-9.823463439941406
1745661964.9246502,-0.08479852229356766,-0.011812984012067318,-0.13692842423915863,0.5055413842201233,-0.3795565366744995,-10.96540355682373
1745661964.9247365,-0.08328189700841904,0.02982582524418831,-0.13817982375621796,0.3371536135673523,-0.01756742037832737,-9.986479759216309
1745661964.92686,-0.06083236262202263,0.00025310483761131763,-0.1417553722858429,0.5332417488098145,0.0810338705778122,-8.710897445678711
1745661964.9281912,-0.021403281018137932,-0.013273855671286583,-0.1504940688610077,0.48654142022132874,0.5427945852279663,-9.665665626525879
1745661964.9635253,0.0013912133872509003,0.005281741265207529,-0.15683771669864655,0.262123167514801,0.05403344705700874,-11.088074684143066
1745661964.968304,0.060962237417697906,0.027712002396583557,-0.16454510390758514,0.03073076903820038,0.3585348129272461,-9.765458106994629
1745661964.9683614,0.027780169621109962,0.014023497700691223,-0.16494032740592957,0.5029246211051941,-0.49329882860183716,-8.574907302856445
1745661964.9702291,0.06460321694612503,0.00460369186475873,-0.1649974286556244,0.5350605249404907,-0.22130556404590607,-9.628593444824219
1745661964.9727185,0.03359658271074295,0.017533395439386368,-0.16873055696487427,0.6159420609474182,-0.8685789108276367,-11.094991683959961
1745661965.0119054,0.03879214823246002,0.030143912881612778,-0.17204618453979492,0.47115087509155273,-0.6292567253112793,-9.943695068359375
1745661965.013496,0.007058136165142059,0.026446029543876648,-0.17169995605945587,0.56390380859375,-0.754348874092102,-8.610520362854004
1745661965.018052,-0.020002206787467003,0.004123416729271412,-0.1742759346961975,0.641433835029602,-0.7608513236045837,-9.622275352478027
1745661965.0214121,-0.014026535674929619,0.026538994163274765,-0.17730525135993958,0.2836047410964966,-0.5070195198059082,-10.909330368041992
1745661965.0516524,-0.026526400819420815,0.03780188038945198,-0.1783914566040039,0.27867478132247925,-0.642111599445343,-9.894781112670898
1745661965.054841,-0.018169429153203964,0.02837546542286873,-0.1803424060344696,0.16956637799739838,-0.12683363258838654,-8.629548072814941
1745661965.0596755,-0.017231011763215065,0.024303514510393143,-0.1835135668516159,0.40944892168045044,-0.26694098114967346,-9.59254264831543
1745661965.0613387,0.010318489745259285,0.030186140909790993,-0.18709072470664978,0.39210018515586853,-0.07882044464349747,-10.715826034545898
1745661965.0644424,0.02689487859606743,0.049629151821136475,-0.1885659545660019,0.528455376625061,-0.06502006947994232,-9.91950798034668
1745661965.0957203,0.030387217178940773,0.04216129332780838,-0.20227113366127014,0.5633615255355835,-0.6267138123512268,-9.815491676330566
1745661965.0988214,0.04132847860455513,0.03720036894083023,-0.2063089907169342,0.4243025779724121,-0.16770866513252258,-9.388434410095215
1745661965.1024752,0.024088013917207718,0.037608660757541656,-0.20884659886360168,0.5127416849136353,-0.42152589559555054,-9.708349227905273
1745661965.10529,0.029050063341856003,0.033890657126903534,-0.21368494629859924,0.562569797039032,-0.48615574836730957,-10.033251762390137
1745661965.1375353,0.025984928011894226,0.04008932039141655,-0.21322715282440186,0.462826669216156,-0.4646034240722656,-9.828668594360352
1745661965.1417933,0.014389303512871265,0.033805184066295624,-0.21242749691009521,0.5943422913551331,-0.5578542947769165,-9.525182723999023
1745661965.1449773,0.019288891926407814,0.03675144910812378,-0.21469709277153015,0.4150365889072418,-0.2269095927476883,-9.591096878051758
1745661965.1477757,0.030011748895049095,0.036011308431625366,-0.21293285489082336,0.6926412582397461,-0.3975702226161957,-9.833256721496582
1745661965.1793246,0.0429212860763073,0.031433701515197754,-0.21454894542694092,0.4888990819454193,0.024631181731820107,-9.820591926574707
1745661965.1815453,0.0523710623383522,0.036484185606241226,-0.21724970638751984,0.530709981918335,-0.4565272927284241,-9.850830078125
1745661965.1849198,0.07213384658098221,0.031583406031131744,-0.2166467159986496,0.3516072928905487,-0.16680851578712463,-9.643590927124023
1745661965.195415,0.06988764554262161,0.031202632933855057,-0.2185378074645996,0.38937658071517944,-0.5076327323913574,-9.680855751037598
1745661965.199774,0.07066968828439713,0.028827300295233727,-0.21852092444896698,0.6874774694442749,-0.5276193022727966,-9.736150741577148
1745661965.2239783,0.0635528415441513,0.027729788795113564,-0.22037287056446075,0.4376491904258728,-0.5269201397895813,-9.854602813720703
1745661965.2273183,0.04843217879533768,0.02898261323571205,-0.22029833495616913,0.703633189201355,-0.7582715153694153,-9.698020935058594
1745661965.2292726,0.03268846869468689,0.023313455283641815,-0.2242058962583542,0.5400273203849792,-0.6176912188529968,-9.649511337280273
1745661965.2321405,0.040825147181749344,-0.006339378654956818,-0.24155426025390625,0.45200783014297485,-0.5586925148963928,-9.406765937805176
1745661965.265787,0.030463945120573044,-0.014796487987041473,-0.24402625858783722,0.5800473690032959,-0.36289218068122864,-9.573603630065918
1745661965.2685802,0.0371173694729805,-0.008719963021576405,-0.2422187775373459,0.5564252734184265,-0.5103155374526978,-10.073074340820312
1745661965.2721896,0.0492321141064167,-0.008204991929233074,-0.24552400410175323,0.5768181085586548,-0.44840532541275024,-9.845827102661133
1745661965.2742279,0.052527524530887604,-0.013017544522881508,-0.24169230461120605,0.3923523724079132,-0.42600831389427185,-9.550491333007812
1745661965.3095958,0.060810018330812454,-0.013784932903945446,-0.24236354231834412,0.5922384262084961,-0.5817848443984985,-9.563497543334961
1745661965.3148563,0.05549067258834839,-0.01892007142305374,-0.24172024428844452,0.48796433210372925,-0.392941951751709,-9.926948547363281
1745661965.3149698,0.061105988919734955,-0.012206397019326687,-0.2449180632829666,0.5719192028045654,-0.63344806432724,-9.858321189880371
1745661965.3159893,0.04585427790880203,-0.020745132118463516,-0.2458306849002838,0.5411288142204285,-0.5473592281341553,-9.574929237365723
1745661965.3186207,0.05401020497083664,-0.019320456311106682,-0.24715766310691833,0.46719497442245483,-0.7095653414726257,-9.716242790222168
1745661965.3525784,0.031159233301877975,-0.0215959120541811,-0.2478000670671463,0.6993056535720825,-0.5865784287452698,-9.8260498046875
1745661965.3538182,0.02872203290462494,-0.021586347371339798,-0.24898648262023926,0.3988901674747467,-0.6715120077133179,-9.916067123413086
1745661965.3666425,0.03651804476976395,-0.019653156399726868,-0.24874165654182434,0.5835966467857361,-0.6385087966918945,-9.602612495422363
1745661965.3667715,0.017680699005723,-0.02548745647072792,-0.24963633716106415,0.443028062582016,-0.3588710129261017,-9.541056632995605
1745661965.394343,0.038552381098270416,-0.01972397044301033,-0.24997422099113464,0.5476994514465332,-0.6079708933830261,-9.802902221679688
1745661965.3977542,0.03422471135854721,-0.023996766656637192,-0.25069281458854675,0.47546833753585815,-0.21588146686553955,-9.83692455291748
1745661965.4029377,0.05145188048481941,-0.018816987052559853,-0.25368696451187134,0.43021613359451294,-0.5531647801399231,-9.809683799743652
1745661965.4055758,0.05212867259979248,-0.02352517656981945,-0.25231778621673584,0.5724054574966431,-0.4208544194698334,-9.571688652038574
1745661965.4082327,0.055334292352199554,-0.026597540825605392,-0.2513520121574402,0.3919173777103424,-0.5552482008934021,-9.82078742980957
1745661965.439151,0.045258086174726486,-0.024461451917886734,-0.25188180804252625,0.5897548198699951,-0.6492868661880493,-9.875906944274902
1745661965.4415321,0.039416272193193436,-0.027466237545013428,-0.25988298654556274,0.4139949679374695,-0.5722998976707458,-9.889190673828125
1745661965.4439466,0.0367073118686676,-0.028696158900856972,-0.25986284017562866,0.5362616777420044,-0.6045703291893005,-9.59758472442627
1745661965.445751,0.027270030230283737,-0.03043939173221588,-0.2630201280117035,0.47064799070358276,-0.483837366104126,-9.68348503112793
1745661965.4817946,0.04076821357011795,-0.02347956970334053,-0.2621442675590515,0.5513291954994202,-0.7088114023208618,-9.861007690429688
1745661965.4864047,0.028987398371100426,-0.028780173510313034,-0.2613290250301361,0.44732236862182617,-0.4582527279853821,-9.832318305969238
1745661965.486541,0.04591844603419304,-0.024507299065589905,-0.2594907283782959,0.4469130039215088,-0.7106045484542847,-9.770846366882324
1745661965.4879572,0.03156374767422676,-0.029029065743088722,-0.25894421339035034,0.500307559967041,-0.5100910067558289,-9.73390007019043
1745661965.5240862,0.0466291680932045,-0.02672959864139557,-0.2604733407497406,0.3638365864753723,-0.5933768153190613,-9.824472427368164
1745661965.527931,0.027784109115600586,-0.027552658692002296,-0.26157712936401367,0.5790820121765137,-0.6779584884643555,-9.742409706115723
1745661965.528053,0.03586006909608841,-0.02604946866631508,-0.2597731649875641,0.3701055943965912,-0.6366174221038818,-9.759005546569824
1745661965.529907,0.03247733414173126,-0.024441860616207123,-0.2633519470691681,0.5504955053329468,-0.6848034262657166,-9.720622062683105
1745661965.530064,0.016200266778469086,-0.029654627665877342,-0.2607508897781372,0.4640900194644928,-0.5607209205627441,-9.856106758117676
1745661965.5689433,0.030165988951921463,-0.021068047732114792,-0.2643031179904938,0.46380895376205444,-0.7384258508682251,-9.889894485473633
1745661965.571299,0.020660262554883957,-0.03159895911812782,-0.26202261447906494,0.5102976560592651,-0.4501541256904602,-9.66283893585205
1745661965.5753052,0.025918927043676376,-0.02704082988202572,-0.2622174024581909,0.39858561754226685,-0.589602530002594,-9.750737190246582
1745661965.5780482,0.028160080313682556,-0.02294769510626793,-0.2648099362850189,0.5261539220809937,-0.4596928656101227,-9.827592849731445
1745661965.613427,0.04458468779921532,-0.01942174695432186,-0.27031412720680237,0.4004083275794983,-0.6274579763412476,-9.713266372680664
1745661965.613506,0.03442486748099327,-0.015067259781062603,-0.27063047885894775,0.45215344429016113,-0.7619674205780029,-9.761800765991211
1745661965.6167693,0.024241551756858826,-0.017056409269571304,-0.2702726125717163,0.4137904644012451,-0.6298035383224487,-9.763330459594727
1745661965.621829,0.03974113613367081,-0.01025007851421833,-0.2717558741569519,0.38836124539375305,-0.6260361671447754,-9.709430694580078
1745661965.654001,0.018906190991401672,-0.016949335113167763,-0.273444801568985,0.5204030275344849,-0.573340892791748,-9.671663284301758
1745661965.6560936,0.029480591416358948,-0.011921881698071957,-0.27526208758354187,0.4160207211971283,-0.6619035005569458,-9.891359329223633
1745661965.6591034,0.027835393324494362,-0.013680395670235157,-0.2756616473197937,0.4865444302558899,-0.6363657712936401,-9.846940994262695
1745661965.662776,0.023623650893568993,-0.01597571186721325,-0.27352628111839294,0.3461230397224426,-0.6478949785232544,-9.767744064331055
1745661965.663418,0.03287807106971741,-0.008755969814956188,-0.2742548882961273,0.49088162183761597,-0.6917538642883301,-9.630940437316895
1745661965.696909,0.01873483695089817,-0.017770668491721153,-0.2713630795478821,0.4644249975681305,-0.5635601878166199,-9.710126876831055
1745661965.7067642,0.03501833230257034,-0.014040684327483177,-0.27308228611946106,0.451640784740448,-0.584892749786377,-9.898073196411133
1745661965.70683,0.02591479942202568,-0.011986126191914082,-0.27365395426750183,0.4814082086086273,-0.5570006966590881,-9.772130012512207
1745661965.7068908,0.044780183583498,-0.010703237727284431,-0.27572208642959595,0.29500240087509155,-0.5070459246635437,-9.706871032714844
1745661965.7431831,0.02433713898062706,-0.013673471286892891,-0.27747589349746704,0.5272277593612671,-0.6419740319252014,-9.698497772216797
1745661965.743751,0.03518649935722351,-0.014405690133571625,-0.2774144113063812,0.3430721163749695,-0.6130039095878601,-9.866079330444336
1745661965.74798,0.03881988301873207,-0.009750952944159508,-0.27670371532440186,0.4813977777957916,-0.7361920475959778,-9.780218124389648
1745661965.7507014,0.019317619502544403,-0.016115544363856316,-0.2781972289085388,0.4830903112888336,-0.5951552987098694,-9.673952102661133
1745661965.782246,0.03639788180589676,-0.007403905037790537,-0.2761862874031067,0.43044814467430115,-0.7626214027404785,-9.739069938659668
1745661965.784474,0.017891431227326393,-0.01352250762283802,-0.27659350633621216,0.4869353175163269,-0.5692814588546753,-9.742795944213867
1745661965.7877712,0.023021753877401352,-0.012752127833664417,-0.2804414629936218,0.45017868280410767,-0.6160281896591187,-9.78427791595459
1745661965.7893975,0.034852318465709686,-0.00877873133867979,-0.2791460156440735,0.3612056374549866,-0.669442892074585,-9.702470779418945
1745661965.825552,0.012959977611899376,-0.015645239502191544,-0.27840062975883484,0.5864123106002808,-0.76039719581604,-9.69013500213623
1745661965.826538,0.030028294771909714,-0.012288952246308327,-0.2777785658836365,0.37197011709213257,-0.6432009935379028,-9.859330177307129
1745661965.8287888,0.01838843710720539,-0.008544929325580597,-0.2793869972229004,0.46313342452049255,-0.6770275831222534,-9.701881408691406
1745661965.8320549,0.016125889495015144,-0.01307761948555708,-0.279833048582077,0.45319294929504395,-0.5401952266693115,-9.600351333618164
1745661965.8720393,0.02829751931130886,-0.007304898463189602,-0.28033605217933655,0.4532271921634674,-0.6651867032051086,-9.74593448638916
1745661965.8722074,0.013257628306746483,-0.01625719666481018,-0.28202977776527405,0.43947187066078186,-0.5622595548629761,-9.953741073608398
1745661965.8751845,0.03449595719575882,-0.007281849626451731,-0.2811727523803711,0.3860887289047241,-0.70725417137146,-9.812211990356445
1745661965.8799095,0.010755726136267185,-0.011672968976199627,-0.2806934416294098,0.46898069977760315,-0.7047992944717407,-9.555429458618164
1745661965.8826897,0.025127485394477844,-0.01403123140335083,-0.279909610748291,0.38093069195747375,-0.6439763903617859,-9.678518295288086
1745661965.911506,0.010492430999875069,-0.01187357772141695,-0.2815609574317932,0.5607004165649414,-0.7383394837379456,-9.882416725158691
1745661965.9137874,0.02269696816802025,-0.010892038233578205,-0.28172793984413147,0.3868221342563629,-0.560409665107727,-9.86489486694336
1745661965.917909,0.016914064064621925,-0.008573311381042004,-0.2818867862224579,0.5655120611190796,-0.6659770011901855,-9.594289779663086
1745661965.9194605,0.005293489433825016,-0.02006801776587963,-0.2807927131652832,0.4408818185329437,-0.635814905166626,-9.75837516784668
1745661965.9530861,0.026390856131911278,-0.009868329390883446,-0.2846022844314575,0.39872127771377563,-0.7102402448654175,-10.016654968261719
1745661965.956579,0.028383463621139526,-0.018079129979014397,-0.2859540581703186,0.5016862154006958,-0.6864181756973267,-9.773138046264648
1745661965.9577506,0.03388643264770508,-0.022933293133974075,-0.28745487332344055,0.3536955416202545,-0.5861455202102661,-9.821205139160156
1745661965.9585133,0.025085950270295143,-0.01621420308947563,-0.2871762812137604,0.4100099503993988,-0.7746241688728333,-9.716592788696289
1745661965.9979427,0.022176750004291534,-0.0214700847864151,-0.28657737374305725,0.45039018988609314,-0.6590746641159058,-9.597288131713867
1745661966.0000913,0.03375273570418358,-0.0155648123472929,-0.2879270315170288,0.4512726366519928,-0.6890259385108948,-9.722038269042969
1745661966.004541,0.015666788443922997,-0.023039186373353004,-0.28734201192855835,0.529015064239502,-0.6791354417800903,-9.839898109436035
1745661966.0085402,0.030401181429624557,-0.01648305542767048,-0.2846231758594513,0.3434583842754364,-0.71136474609375,-9.859386444091797
1745661966.013045,0.027068573981523514,-0.01606147550046444,-0.28780823945999146,0.46086087822914124,-0.6577047109603882,-9.638072967529297
1745661966.0410748,0.02945799194276333,-0.025348851457238197,-0.28575894236564636,0.3619580864906311,-0.6106432676315308,-9.675748825073242
1745661966.043259,0.03549177572131157,-0.013805669732391834,-0.2873867452144623,0.47662973403930664,-0.6654661297798157,-9.886667251586914
1745661966.0474215,0.025617171078920364,-0.024060547351837158,-0.2867678105831146,0.4174891412258148,-0.645938515663147,-9.788537979125977
1745661966.0499005,0.03642818331718445,-0.016655409708619118,-0.2871226668357849,0.3873688578605652,-0.7156093716621399,-9.676831245422363
1745661966.0837655,0.016638975590467453,-0.023798195645213127,-0.28790852427482605,0.5345291495323181,-0.7886817455291748,-9.706182479858398
1745661966.0880861,0.030077483505010605,-0.021559683606028557,-0.2869729697704315,0.3728936016559601,-0.6325810551643372,-9.927727699279785
1745661966.091024,0.009018423035740852,-0.020927857607603073,-0.2861914336681366,0.5430032014846802,-0.7717825174331665,-9.835237503051758
1745661966.0949733,0.020933974534273148,-0.023495210334658623,-0.2863996624946594,0.3429177701473236,-0.6292681097984314,-9.652048110961914
1745661966.1256113,0.024007003754377365,-0.018668312579393387,-0.28524646162986755,0.4152297079563141,-0.6971291303634644,-9.59691333770752
1745661966.1288126,0.01159555185586214,-0.025880906730890274,-0.28700393438339233,0.45400944352149963,-0.543913722038269,-9.801080703735352
1745661966.1289852,0.03667977824807167,-0.01311559695750475,-0.2877306342124939,0.3759121298789978,-0.6113747358322144,-9.839495658874512
1745661966.1309688,0.018477914854884148,-0.02349782921373844,-0.28742316365242004,0.4889816641807556,-0.5559707283973694,-9.657057762145996
1745661966.1700573,0.024995971471071243,-0.01560297328978777,-0.2854391932487488,0.45943498611450195,-0.6333079934120178,-9.750504493713379
1745661966.1748397,0.019195739179849625,-0.022901955991983414,-0.2837624251842499,0.4186602532863617,-0.6516191363334656,-9.697815895080566
1745661966.1794467,0.030935067683458328,-0.01788708195090294,-0.28664630651474,0.44261273741722107,-0.670620322227478,-9.741856575012207
1745661966.1795368,0.017271917313337326,-0.022466469556093216,-0.2844550609588623,0.4767792820930481,-0.6315406560897827,-9.859965324401855
1745661966.182062,0.027118658646941185,-0.016638386994600296,-0.2878127694129944,0.33612290024757385,-0.6935638189315796,-9.894668579101562
1745661966.215913,0.01123863272368908,-0.021751418709754944,-0.2865659296512604,0.5068960189819336,-0.7606584429740906,-9.619176864624023
1745661966.2194762,0.0217879805713892,-0.0217585489153862,-0.2868705987930298,0.31906911730766296,-0.6671288013458252,-9.607597351074219
1745661966.2238321,0.015077349729835987,-0.01710408180952072,-0.28574544191360474,0.4709480404853821,-0.7574154138565063,-9.742138862609863
1745661966.2263923,0.008362995460629463,-0.01930958963930607,-0.2869069278240204,0.4147966504096985,-0.6027909517288208,-9.834517478942871
1745661966.2582576,0.028304871171712875,-0.013617506250739098,-0.2875363528728485,0.39534521102905273,-0.6467320919036865,-9.772435188293457
1745661966.2603595,0.015901092439889908,-0.022247564047574997,-0.28482094407081604,0.42192286252975464,-0.5405949950218201,-9.694940567016602
1745661966.261785,0.04034822806715965,-0.011222481727600098,-0.288341760635376,0.3282250761985779,-0.5901628732681274,-9.785442352294922
1745661966.262663,0.026889359578490257,-0.017370454967021942,-0.28614869713783264,0.45110535621643066,-0.6974952816963196,-9.771594047546387
1745661966.29959,0.039204664528369904,-0.015269765630364418,-0.28690093755722046,0.3272314667701721,-0.6678678393363953,-9.698240280151367
1745661966.3033812,0.023273298516869545,-0.014295915141701698,-0.2871707081794739,0.47718924283981323,-0.859233021736145,-9.708985328674316
1745661966.3050566,0.031648509204387665,-0.01608520746231079,-0.28548359870910645,0.34596484899520874,-0.6636163592338562,-9.828460693359375
1745661966.3061926,0.00841427594423294,-0.009358881041407585,-0.28329941630363464,0.48224082589149475,-0.8096240758895874,-9.822005271911621
1745661966.3082726,0.01625167205929756,-0.013854136690497398,-0.2817520797252655,0.36368823051452637,-0.7331622838973999,-9.768606185913086
1745661966.343664,0.016284985467791557,-0.010541743598878384,-0.279236763715744,0.4782470762729645,-0.7101787328720093,-9.718168258666992
1745661966.3454318,0.01906360127031803,-0.017602985724806786,-0.28206688165664673,0.40470749139785767,-0.5340257883071899,-9.829599380493164
1745661966.3484092,0.021926406770944595,-0.011184116825461388,-0.2813793122768402,0.33372578024864197,-0.6820073127746582,-9.857175827026367
1745661966.3498144,0.02155449241399765,-0.01310153491795063,-0.2816395163536072,0.42459455132484436,-0.6986573338508606,-9.607203483581543
1745661966.3846967,0.030766282230615616,-0.01091386191546917,-0.2825758159160614,0.3212329149246216,-0.692747950553894,-9.613264083862305
1745661966.3890307,0.01679687574505806,-0.012011473998427391,-0.2805144190788269,0.5040754079818726,-0.7619411945343018,-9.795376777648926
1745661966.3932292,0.02061636373400688,-0.008638584986329079,-0.279257595539093,0.35654789209365845,-0.7094672918319702,-9.92265796661377
1745661966.3952603,0.024815339595079422,-0.00942158605903387,-0.2833210229873657,0.47390690445899963,-0.7248872518539429,-9.725418090820312
1745661966.3977244,0.014153736643493176,-0.0161936953663826,-0.28047943115234375,0.43640756607055664,-0.6960007548332214,-9.674627304077148
1745661966.4297252,0.025821292772889137,-0.00848883856087923,-0.2801778018474579,0.38805079460144043,-0.7302413582801819,-9.860331535339355
1745661966.432269,0.008214926347136497,-0.015387214720249176,-0.2795546054840088,0.46351560950279236,-0.8274272084236145,-9.797223091125488
1745661966.4349456,0.022035930305719376,-0.007145339157432318,-0.277690052986145,0.29579639434814453,-0.6958461403846741,-9.655542373657227
1745661966.4395115,0.007961939089000225,-0.013483482412993908,-0.27882471680641174,0.5253294110298157,-0.8421546220779419,-9.680615425109863
1745661966.4714904,0.018881555646657944,-0.016305621713399887,-0.2761375308036804,0.30836039781570435,-0.5650423169136047,-9.901453018188477
1745661966.4737098,0.008676756173372269,-0.009388956241309643,-0.2785058617591858,0.49465179443359375,-0.7712095975875854,-9.877580642700195
1745661966.475761,0.018918629735708237,-0.016706746071577072,-0.27823448181152344,0.38674792647361755,-0.6580138802528381,-9.688486099243164
1745661966.4774506,0.027792993932962418,-0.010215912014245987,-0.2775172293186188,0.3389134109020233,-0.7276964783668518,-9.632495880126953
1745661966.4786394,0.0031436376739293337,-0.016729256138205528,-0.2785143554210663,0.566088855266571,-0.7124743461608887,-9.767711639404297
1745661966.5159516,0.029276495799422264,-0.00769670819863677,-0.277817964553833,0.3318706452846527,-0.6930739283561707,-9.843423843383789
1745661966.5195093,0.024476181715726852,-0.012513848952949047,-0.274589478969574,0.34961122274398804,-0.6751565337181091,-9.828907012939453
1745661966.52339,0.014331787824630737,-0.012030879966914654,-0.2756665349006653,0.42439135909080505,-0.73651522397995,-9.732029914855957
1745661966.5267332,0.018011167645454407,-0.01719481125473976,-0.27497169375419617,0.3971920609474182,-0.6669813990592957,-9.65623664855957
1745661966.5563762,0.021118707954883575,-0.006802705582231283,-0.2764224410057068,0.40840214490890503,-0.6857830882072449,-9.752333641052246
1745661966.5584638,0.005667303688824177,-0.017186757177114487,-0.27730053663253784,0.5404912233352661,-0.8279617428779602,-9.757393836975098
1745661966.5674434,0.018096739426255226,-0.01251145452260971,-0.27348777651786804,0.3925204277038574,-0.7216116786003113,-9.82795238494873
1745661966.5676267,0.002855992643162608,-0.014837736263871193,-0.2719572186470032,0.5162153840065002,-0.8796457052230835,-9.82155990600586
1745661966.6016238,0.018775425851345062,-0.016164714470505714,-0.2718666195869446,0.28380775451660156,-0.5452910661697388,-9.710233688354492
1745661966.605173,0.00289008766412735,-0.013866884633898735,-0.27239570021629333,0.4952140748500824,-0.7426382303237915,-9.692956924438477
1745661966.6094685,0.023654228076338768,-0.01934056542813778,-0.2732541263103485,0.3695450723171234,-0.532483696937561,-9.704541206359863
1745661966.6143816,0.024791579693555832,-0.011521321721374989,-0.27531471848487854,0.3608003854751587,-0.6005444526672363,-9.716653823852539
1745661966.6147485,0.015393571928143501,-0.015495026484131813,-0.2742839753627777,0.4882230758666992,-0.6938155293464661,-9.728010177612305
1745661966.64473,0.038584187626838684,-0.009507879614830017,-0.27294379472732544,0.2818394601345062,-0.6336496472358704,-9.751093864440918
1745661966.6470044,0.01566268317401409,-0.017115717753767967,-0.27355489134788513,0.5249137878417969,-0.7702977657318115,-9.790060997009277
1745661966.650533,0.037344641983509064,-0.01481823343783617,-0.2737499177455902,0.3795328140258789,-0.6421805620193481,-9.830451011657715
1745661966.6526532,0.012619981542229652,-0.01832975447177887,-0.2678012251853943,0.33802857995033264,-0.6605733633041382,-9.577400207519531
1745661966.6881533,0.005357411224395037,-0.012240516021847725,-0.2678263783454895,0.4047650694847107,-0.6888628005981445,-9.87543773651123
1745661966.6913023,0.010375495068728924,-0.018770700320601463,-0.26856523752212524,0.4450400471687317,-0.6255585551261902,-9.878711700439453
1745661966.695103,0.019963720813393593,-0.010471582412719727,-0.26879429817199707,0.2992458939552307,-0.6376030445098877,-9.738302230834961
1745661966.6978192,0.011024655774235725,-0.02180025354027748,-0.2687183916568756,0.4441881775856018,-0.7257811427116394,-9.634137153625488
1745661966.7330751,0.012455159798264503,-0.01599479839205742,-0.26838749647140503,0.2704487144947052,-0.6868332624435425,-9.801471710205078
1745661966.7332032,0.006337513215839863,-0.013177642598748207,-0.2697724401950836,0.5291760563850403,-0.916599452495575,-9.774627685546875
1745661966.7357626,0.010402877815067768,-0.017169665545225143,-0.2679694592952728,0.3995065689086914,-0.6235315799713135,-9.614323616027832
1745661966.735898,-0.0003178739862050861,-0.013533100485801697,-0.26913028955459595,0.44749554991722107,-0.8124515414237976,-9.734708786010742
1745661966.7722135,0.0023360587656497955,-0.016524305567145348,-0.26786500215530396,0.4540281891822815,-0.7037802934646606,-9.836185455322266
1745661966.7742808,0.011234542354941368,-0.013510053046047688,-0.2694350481033325,0.3057689666748047,-0.6175340414047241,-9.806614875793457
1745661966.7764075,-0.0015462411101907492,-0.019138256087899208,-0.26938778162002563,0.4501180648803711,-0.7397117614746094,-9.676126480102539
1745661966.778331,0.022124717012047768,-0.012038157321512699,-0.26879188418388367,0.23631858825683594,-0.4663165211677551,-9.694501876831055
1745661966.7797768,0.005611480213701725,-0.01617172360420227,-0.2700318694114685,0.4702434539794922,-0.796591579914093,-9.707540512084961
1745661966.8165185,0.019446026533842087,-0.015403440222144127,-0.27052152156829834,0.381856769323349,-0.5751373171806335,-9.71251392364502
1745661966.8266869,0.014226600527763367,-0.011839322745800018,-0.2687910497188568,0.4635774493217468,-0.9060465693473816,-9.845903396606445
1745661966.8268573,0.014233836904168129,-0.01912458799779415,-0.26713597774505615,0.38920313119888306,-0.6874595284461975,-9.806047439575195
1745661966.8269815,0.00854207668453455,-0.011536723002791405,-0.26824527978897095,0.3772098422050476,-0.7716535329818726,-9.736862182617188
1745661966.8587801,0.005967642646282911,-0.01910587213933468,-0.2679441571235657,0.5086804032325745,-0.776545524597168,-9.679512977600098
1745661966.861411,0.022250564768910408,-0.013640724122524261,-0.2675212323665619,0.26393020153045654,-0.5488051176071167,-9.693437576293945
1745661966.8662982,-0.0029651541262865067,-0.013990280218422413,-0.27007120847702026,0.5367437601089478,-0.7791742086410522,-9.762378692626953
1745661966.8764668,0.009780707769095898,-0.012285835109651089,-0.26726025342941284,0.49431556463241577,-0.8264269828796387,-9.78055191040039
1745661966.9029408,0.013624747283756733,-0.013294327072799206,-0.269033282995224,0.3200000822544098,-0.5172401070594788,-9.7031831741333
1745661966.906992,0.0025613936595618725,-0.011738711968064308,-0.270760715007782,0.4325750470161438,-0.8081651926040649,-9.769948959350586
1745661966.9102108,0.01308277528733015,-0.016670983284711838,-0.27032986283302307,0.39163511991500854,-0.5901578664779663,-9.811259269714355
1745661966.9123604,0.014336593449115753,-0.011963846161961555,-0.27371060848236084,0.28920769691467285,-0.6633337736129761,-9.794411659240723
1745661966.9430664,0.005214915610849857,-0.01632479764521122,-0.27224722504615784,0.47809141874313354,-0.7874491810798645,-9.640501976013184
1745661966.9452837,0.017591049894690514,-0.01120787300169468,-0.27365607023239136,0.3379259705543518,-0.5819863080978394,-9.70324993133545
1745661966.9484076,0.001573679270222783,-0.017275739461183548,-0.2706916928291321,0.6010310053825378,-0.9281448125839233,-9.856257438659668
1745661966.9484568,0.014506193809211254,-0.01566271297633648,-0.2706456184387207,0.3502226173877716,-0.6567859053611755,-9.845932006835938
1745661966.9514558,0.004229577258229256,-0.01381529588252306,-0.26822665333747864,0.47244247794151306,-0.9041476249694824,-9.755538940429688
1745661966.9965744,0.006809432990849018,-0.019796960055828094,-0.26612743735313416,0.33917751908302307,-0.5632111430168152,-9.674886703491211
1745661967.0013688,0.002115522976964712,-0.013811424374580383,-0.2687598764896393,0.36674028635025024,-0.7018764615058899,-9.839292526245117
1745661967.0055282,0.007382689509540796,-0.01711215078830719,-0.2704998850822449,0.43450698256492615,-0.600594162940979,-9.763132095336914
1745661967.0084872,0.017655566334724426,-0.012812433764338493,-0.27082276344299316,0.29761260747909546,-0.5557400584220886,-9.66899299621582
1745661967.0316002,0.0016603212570771575,-0.018067877739667892,-0.26798176765441895,0.34193938970565796,-0.4942627549171448,-9.688238143920898
1745661967.0327454,-0.013137412257492542,-0.01388576440513134,-0.270934522151947,0.46273595094680786,-0.6721146702766418,-9.820508003234863
1745661967.0349464,0.0001612418272998184,-0.017201703041791916,-0.267807275056839,0.42888742685317993,-0.5920602083206177,-9.707175254821777
1745661967.0361648,0.0013877770397812128,-0.012495880015194416,-0.2702757716178894,0.31467488408088684,-0.6096614003181458,-9.737238883972168
1745661967.075853,5.8355370128992945e-05,-0.0199335478246212,-0.27155444025993347,0.5015504360198975,-0.7125585675239563,-9.796740531921387
1745661967.077986,0.011507153511047363,-0.01325155794620514,-0.2686885595321655,0.2971678674221039,-0.5275293588638306,-9.859086990356445
1745661967.0809333,0.0032268501818180084,-0.01850622333586216,-0.2707121968269348,0.5298012495040894,-0.7900049090385437,-9.738929748535156
1745661967.0858936,0.005331312771886587,-0.017973121255636215,-0.26953810453414917,0.36154013872146606,-0.5816019773483276,-9.702054977416992
1745661967.1172416,0.003518716897815466,-0.015126900747418404,-0.2712858319282532,0.44335007667541504,-0.8360201120376587,-9.791860580444336
1745661967.1254687,0.004618360660970211,-0.01756526529788971,-0.2704838514328003,0.4257237911224365,-0.579831600189209,-9.684270858764648
1745661967.1256475,-0.001237918040715158,-0.01217753067612648,-0.27159810066223145,0.331063449382782,-0.7164781093597412,-9.756820678710938
1745661967.1257436,-0.004785207565873861,-0.0165057722479105,-0.271368145942688,0.4822755455970764,-0.7819955945014954,-9.755619049072266
1745661967.1258206,0.005695507861673832,-0.014055481180548668,-0.27209627628326416,0.2738156318664551,-0.5065878629684448,-9.820499420166016
1745661967.1629639,-0.0043448759242892265,-0.014927948825061321,-0.2721605896949768,0.48896971344947815,-0.7878319025039673,-9.735382080078125
1745661967.1650126,0.013071577064692974,-0.013316931203007698,-0.27459490299224854,0.34294456243515015,-0.4492337703704834,-9.662450790405273
1745661967.1676462,0.0011867508292198181,-0.01613215170800686,-0.272784560918808,0.48853784799575806,-0.8923119306564331,-9.78589916229248
1745661967.1686115,0.007260128855705261,-0.018260683864355087,-0.2697224020957947,0.45096468925476074,-0.5911120772361755,-9.777145385742188
1745661967.2054935,0.002646887907758355,-0.012244822457432747,-0.27092090249061584,0.3696255385875702,-0.8502499461174011,-9.857443809509277
1745661967.206582,0.0005323132500052452,-0.017357112839818,-0.27051687240600586,0.4354873299598694,-0.6341575980186462,-9.685918807983398
1745661967.2098534,-0.000527167518157512,-0.016778647899627686,-0.2717035710811615,0.31622615456581116,-0.5750893354415894,-9.706870079040527
1745661967.2114906,-0.002314335200935602,-0.017946045845746994,-0.2753302752971649,0.5045937895774841,-0.6895667314529419,-9.832646369934082
1745661967.2145534,0.01472373865544796,-0.01684611104428768,-0.2738206386566162,0.298766553401947,-0.4666162431240082,-9.763463973999023
1745661967.2475123,0.015056036412715912,-0.016857746988534927,-0.273152232170105,0.5190190076828003,-0.7083035707473755,-9.694215774536133
1745661967.249922,0.015982212498784065,-0.015951506793498993,-0.27393442392349243,0.2623499929904938,-0.6044718027114868,-9.735669136047363
1745661967.2538273,0.015286751091480255,-0.010658456943929195,-0.2756713032722473,0.4733382761478424,-0.825306236743927,-9.732440948486328
1745661967.2578526,0.011266516521573067,-0.016980629414319992,-0.2732747495174408,0.4047064185142517,-0.5550819635391235,-9.630934715270996
1745661967.295647,0.005913668777793646,-0.012180463410913944,-0.27426543831825256,0.4310784339904785,-0.8131893277168274,-9.861709594726562
1745661967.2992437,0.0075936345383524895,-0.01574059948325157,-0.2735627293586731,0.4543635845184326,-0.6871277093887329,-9.8618745803833
1745661967.3025482,0.012818786315619946,-0.013749864883720875,-0.27504459023475647,0.2990141212940216,-0.5619564652442932,-9.70800495147705
1745661967.306213,0.00586624164134264,-0.015447856858372688,-0.2750442624092102,0.5305485725402832,-0.7404870986938477,-9.629201889038086
1745661967.332189,0.022285889834165573,-0.015209916047751904,-0.27607813477516174,0.33110204339027405,-0.4375461935997009,-9.803330421447754
1745661967.3346581,0.00998158659785986,-0.014687316492199898,-0.2756069600582123,0.4992756247520447,-0.8650591969490051,-9.897393226623535
1745661967.335512,0.021853774785995483,-0.016323452815413475,-0.2755586504936218,0.3860364556312561,-0.5333710312843323,-9.667157173156738
1745661967.3364582,0.016898851841688156,-0.016378814354538918,-0.2756890058517456,0.43750864267349243,-0.8570306897163391,-9.724145889282227
1745661967.3787804,0.014951566234230995,-0.02177516743540764,-0.2724241614341736,0.4389943480491638,-0.6189196705818176,-9.792648315429688
1745661967.3790407,0.014965337701141834,-0.014643492177128792,-0.27455073595046997,0.36919113993644714,-0.6858488917350769,-9.872274398803711
1745661967.3791153,0.01718495599925518,-0.017807018011808395,-0.2776094377040863,0.4896085858345032,-0.7647101283073425,-9.788931846618652
1745661967.3791678,0.018023476004600525,-0.020833361893892288,-0.27740782499313354,0.3269755244255066,-0.5729726552963257,-9.687765121459961
1745661967.3829396,0.009990240447223186,-0.017195504158735275,-0.2782275378704071,0.4504169523715973,-0.8512226343154907,-9.805290222167969
1745661967.418472,0.023211045190691948,-0.018926391378045082,-0.2781209945678711,0.3809569478034973,-0.5643924474716187,-9.791853904724121
1745661967.4213972,0.01323556900024414,-0.017638593912124634,-0.2800635099411011,0.4116519093513489,-0.6679681539535522,-9.753480911254883
1745661967.4234598,0.01684235967695713,-0.02099962905049324,-0.2772686779499054,0.4891349673271179,-0.6876171827316284,-9.708555221557617
1745661967.4257941,0.02178657241165638,-0.016331443563103676,-0.28089141845703125,0.2989780306816101,-0.6089571118354797,-9.74486255645752
1745661967.4624631,0.01137500163167715,-0.021439537405967712,-0.28037089109420776,0.5560864210128784,-0.8037975430488586,-9.791414260864258
1745661967.4638247,0.019348759204149246,-0.017801202833652496,-0.27861931920051575,0.3201410174369812,-0.6294972896575928,-9.840121269226074
1745661967.465014,0.01324539352208376,-0.018869910389184952,-0.2753867208957672,0.4932865500450134,-0.8843451738357544,-9.828095436096191
1745661967.4717069,0.009895753115415573,-0.02374911867082119,-0.2773844599723816,0.3228961229324341,-0.5822516083717346,-9.720437049865723
1745661967.471784,0.013958463445305824,-0.015325221233069897,-0.27763456106185913,0.39773160219192505,-0.8151910901069641,-9.729923248291016
1745661967.5043626,0.013307610526680946,-0.021917175501585007,-0.276004821062088,0.4368179738521576,-0.5577372908592224,-9.639067649841309
1745661967.506009,0.013194653205573559,-0.015526262111961842,-0.28072160482406616,0.3089725375175476,-0.6292920112609863,-9.783588409423828
1745661967.507825,0.004631575662642717,-0.020188817754387856,-0.2795136868953705,0.5291867256164551,-0.766208291053772,-9.819009780883789
1745661967.510296,0.02266085334122181,-0.015673397108912468,-0.28182703256607056,0.23990663886070251,-0.516808807849884,-9.777010917663574
1745661967.5458314,0.008014013059437275,-0.019242189824581146,-0.2811032235622406,0.5174793004989624,-0.8250104784965515,-9.75810432434082
1745661967.5488067,0.02143963798880577,-0.020866569131612778,-0.2800549268722534,0.37893161177635193,-0.5431073904037476,-9.740900993347168
1745661967.5523334,0.011703531257808208,-0.016329895704984665,-0.2782812714576721,0.4269188940525055,-0.8505976796150208,-9.823412895202637
1745661967.5539489,0.015168909914791584,-0.020329445600509644,-0.2784666419029236,0.44878464937210083,-0.5551521182060242,-9.686503410339355
1745661967.555989,0.015560880303382874,-0.016222994774580002,-0.2805323004722595,0.3236180245876312,-0.7595490217208862,-9.730637550354004
1745661967.5907526,0.014322543516755104,-0.02176254615187645,-0.2781883776187897,0.44985684752464294,-0.6341989636421204,-9.793079376220703
1745661967.593606,0.015238823369145393,-0.013633808121085167,-0.28193044662475586,0.3628043234348297,-0.6589141488075256,-9.780621528625488
1745661967.5956426,0.011500474065542221,-0.019290879368782043,-0.280392587184906,0.5368653535842896,-0.764404296875,-9.806610107421875
1745661967.5969236,0.02380596287548542,-0.017886370420455933,-0.28103774785995483,0.2550418972969055,-0.5727540254592896,-9.829309463500977
1745661967.6381333,0.012129424139857292,-0.016860611736774445,-0.28026920557022095,0.49468809366226196,-0.7781014442443848,-9.776495933532715
1745661967.6382234,0.016081953421235085,-0.020468730479478836,-0.2807513177394867,0.30567705631256104,-0.5706347227096558,-9.728429794311523
1745661967.6384208,0.015671538189053535,-0.013554167933762074,-0.28016629815101624,0.41053181886672974,-0.8119288682937622,-9.73173999786377
1745661967.6399121,0.02066648006439209,-0.0162025336176157,-0.28264883160591125,0.41594257950782776,-0.47943171858787537,-9.659708023071289
1745661967.6764143,0.014601188711822033,-0.012937450781464577,-0.2822047173976898,0.4041970670223236,-0.7011265754699707,-9.774477005004883
1745661967.6784885,0.015463732182979584,-0.01594407856464386,-0.27973106503486633,0.5074291229248047,-0.7926709055900574,-9.843729972839355
1745661967.6799028,0.0253013726323843,-0.01746145449578762,-0.28137511014938354,0.2592470645904541,-0.5483685731887817,-9.851556777954102
1745661967.6816676,0.013558072037994862,-0.01605253480374813,-0.28111714124679565,0.47740301489830017,-0.8379122614860535,-9.7191801071167
1745661967.7187681,0.027748608961701393,-0.014278165996074677,-0.2812914252281189,0.29975154995918274,-0.4410759508609772,-9.663095474243164
1745661967.7206006,0.017919044941663742,-0.013984340243041515,-0.28026142716407776,0.46353721618652344,-0.8194851875305176,-9.782672882080078
1745661967.7224796,0.02429954707622528,-0.016348708420991898,-0.2815643846988678,0.40347927808761597,-0.5536091923713684,-9.778960227966309
1745661967.7257655,0.024531850591301918,-0.01765355095267296,-0.28218168020248413,0.42498159408569336,-0.638094425201416,-9.596711158752441
1745661967.7289112,0.021090570837259293,-0.01220017857849598,-0.28262990713119507,0.30421775579452515,-0.7677041292190552,-9.794922828674316
1745661967.7654586,0.016743844375014305,-0.01499594934284687,-0.2802228629589081,0.5752099752426147,-0.7815154194831848,-9.82868766784668
1745661967.7676883,0.016392746940255165,-0.013931858353316784,-0.2808176279067993,0.33124151825904846,-0.7596117854118347,-9.756800651550293
1745661967.7696126,0.010350087657570839,-0.012115230783820152,-0.28142619132995605,0.5058949589729309,-0.8931037187576294,-9.700299263000488
1745661967.7718022,0.009882459416985512,-0.018744388595223427,-0.28023260831832886,0.3629187345504761,-0.5424516201019287,-9.6899995803833
1745661967.807373,0.007310260087251663,-0.011148031800985336,-0.28197231888771057,0.3901884853839874,-0.7923216819763184,-9.862020492553711
1745661967.8154829,0.017093777656555176,-0.014757171273231506,-0.28011244535446167,0.43011870980262756,-0.5767501592636108,-9.755032539367676
1745661967.8155491,0.02065705694258213,-0.013082200661301613,-0.2837098240852356,0.28043419122695923,-0.5698155164718628,-9.631806373596191
1745661967.8155909,0.018799658864736557,-0.017293598502874374,-0.2821958363056183,0.4798247218132019,-0.6984874606132507,-9.656514167785645
1745661967.8476489,0.029574865475296974,-0.010362178087234497,-0.285673052072525,0.2573772072792053,-0.5140698552131653,-9.799479484558105
1745661967.849277,0.02228051982820034,-0.013824048452079296,-0.2830432057380676,0.5858303308486938,-0.9225023984909058,-9.788399696350098
1745661967.8523066,0.02467484213411808,-0.01681586168706417,-0.28278210759162903,0.3986715078353882,-0.6382809281349182,-9.7490234375
1745661967.8556283,0.019911494106054306,-0.011136994697153568,-0.2794777452945709,0.44826143980026245,-0.9369711875915527,-9.846536636352539
1745661967.8595831,0.015366798266768456,-0.0184968002140522,-0.28289902210235596,0.38096457719802856,-0.6309847831726074,-9.714500427246094
1745661967.896207,0.014546895399689674,-0.012040848843753338,-0.2811679244041443,0.3391033709049225,-0.7752665877342224,-9.670679092407227
1745661967.9033737,0.012796876020729542,-0.01967310532927513,-0.2835160195827484,0.48515334725379944,-0.7172917127609253,-9.651392936706543
1745661967.907339,0.021009404212236404,-0.014666929841041565,-0.28317520022392273,0.25813743472099304,-0.5422505736351013,-9.824117660522461
1745661967.909791,0.006247496698051691,-0.011301537044346333,-0.284902423620224,0.4984517991542816,-0.8383636474609375,-9.79345417022705
1745661967.9341688,0.02533651888370514,-0.012631583027541637,-0.2852885127067566,0.2758905291557312,-0.5653318166732788,-9.658354759216309
1745661967.9383857,0.014234605245292187,-0.015306184999644756,-0.2825983464717865,0.4957786500453949,-0.8640363812446594,-9.758952140808105
1745661967.9384673,0.022520780563354492,-0.0173698291182518,-0.28384536504745483,0.44416919350624084,-0.6457799673080444,-9.861503601074219
1745661967.9408407,0.015997527167201042,-0.021010588854551315,-0.28394851088523865,0.4445924162864685,-0.6485167145729065,-9.758774757385254
1745661967.9435487,0.008855785243213177,-0.017239775508642197,-0.2856445610523224,0.368840754032135,-0.7141977548599243,-9.958569526672363
1745661967.9818614,0.014974678866565228,-0.01304573006927967,-0.28357255458831787,0.5178139209747314,-0.8222254514694214,-9.717606544494629
1745661967.9819853,0.015064219012856483,-0.01587393507361412,-0.283202588558197,0.29194045066833496,-0.6111944913864136,-9.54960823059082
1745661967.9843001,0.010890320874750614,-0.017903480678796768,-0.2834424376487732,0.5823856592178345,-0.8740009069442749,-9.793566703796387
1745661967.986807,0.015242507681250572,-0.01823541894555092,-0.2814193069934845,0.3265966773033142,-0.5630144476890564,-9.971031188964844
1745661968.0232294,0.011905272491276264,-0.015406496822834015,-0.28472790122032166,0.4215942919254303,-0.9112507700920105,-9.807890892028809
1745661968.023354,0.0026489596348255873,-0.022609800100326538,-0.2820194363594055,0.3598438501358032,-0.6544116735458374,-9.574636459350586
1745661968.02602,0.003204918932169676,-0.01948564127087593,-0.28410595655441284,0.3629220128059387,-0.8254824876785278,-9.766244888305664
1745661968.027573,0.0008925753645598888,-0.02221037819981575,-0.28461384773254395,0.5195809006690979,-0.6886046528816223,-9.79241943359375
1745661968.0318527,0.0029692561365664005,-0.014984969981014729,-0.2872111201286316,0.3029361069202423,-0.6025723814964294,-9.751869201660156
1745661968.0676363,-0.005929707083851099,-0.019642498344182968,-0.2835299074649811,0.5836529731750488,-0.8690916299819946,-9.682455062866211
1745661968.0685022,0.011194804683327675,-0.02142350748181343,-0.2843196988105774,0.2856362462043762,-0.4972664713859558,-9.748800277709961
1745661968.0685747,0.0030802818946540356,-0.018334146589040756,-0.284563809633255,0.4304293096065521,-0.836403489112854,-9.888036727905273
1745661968.1111083,-0.00012225276441313326,-0.017890077084302902,-0.2853394150733948,0.4535368084907532,-0.733262836933136,-9.80959415435791
1745661968.1112156,0.017625104635953903,-0.019709918648004532,-0.2848587930202484,0.4149617552757263,-0.5294661521911621,-9.839917182922363
1745661968.111831,0.015925660729408264,-0.016828255727887154,-0.28527531027793884,0.32479095458984375,-0.6013742685317993,-9.761617660522461
1745661968.116026,0.018919136375188828,-0.01957566663622856,-0.2863949239253998,0.5175793766975403,-0.763588547706604,-9.677231788635254
1745661968.1160793,0.019893353804945946,-0.019539451226592064,-0.28334707021713257,0.2759498655796051,-0.6306727528572083,-9.83557415008545
1745661968.1495235,0.01808905601501465,-0.01858203485608101,-0.28346189856529236,0.49055200815200806,-0.9061053395271301,-9.797207832336426
1745661968.1536064,0.008320478722453117,-0.021108919754624367,-0.2822915017604828,0.36495891213417053,-0.6979414224624634,-9.68371868133545
1745661968.154388,0.014063971117138863,-0.014191237278282642,-0.2830742299556732,0.39030805230140686,-0.8463035821914673,-9.756532669067383
1745661968.154439,0.006259570829570293,-0.022770559415221214,-0.2856632173061371,0.4080117642879486,-0.5331013202667236,-9.676981925964355
1745661968.1934328,0.005899299867451191,-0.013342633843421936,-0.28632816672325134,0.30678892135620117,-0.6828041076660156,-9.845510482788086
1745661968.1967576,0.013858208432793617,-0.019132813438773155,-0.28540462255477905,0.515550971031189,-0.7519015073776245,-9.832586288452148
1745661968.2017791,0.01410935539752245,-0.020793922245502472,-0.2881813645362854,0.22863900661468506,-0.5618463754653931,-9.732059478759766
1745661968.2051919,0.01025722362101078,-0.01781325414776802,-0.28308579325675964,0.4781704545021057,-0.9597121477127075,-9.736407279968262
1745661968.205303,0.017365168780088425,-0.017164232209324837,-0.2839938998222351,0.3067381978034973,-0.5198972821235657,-9.694281578063965
1745661968.2359328,0.01197031419724226,-0.013904576189815998,-0.28230276703834534,0.45370689034461975,-0.8651544451713562,-9.764513969421387
1745661968.2382066,0.015282136388123035,-0.021071424707770348,-0.281286358833313,0.46541714668273926,-0.5643282532691956,-9.737422943115234
1745661968.240755,0.017322294414043427,-0.0156799778342247,-0.2855484187602997,0.33151501417160034,-0.7326469421386719,-9.891908645629883
1745661968.2434106,0.008835230953991413,-0.020232191309332848,-0.2844591736793518,0.45042791962623596,-0.6718899607658386,-9.769681930541992
1745661968.2786403,0.010279962792992592,-0.01861749216914177,-0.2851487696170807,0.2691585123538971,-0.6483532786369324,-9.701362609863281
1745661968.2823956,0.011401263996958733,-0.016800273209810257,-0.28537407517433167,0.44206005334854126,-0.8573123216629028,-9.649377822875977
1745661968.2841642,0.013893318362534046,-0.019682228565216064,-0.28657394647598267,0.30766186118125916,-0.5011594891548157,-9.69958782196045
1745661968.2903626,0.020696338266134262,-0.010304461233317852,-0.2866031527519226,0.3876064419746399,-0.8379876017570496,-9.818136215209961
1745661968.3237736,0.010637427680194378,-0.015163542702794075,-0.28861096501350403,0.42564111948013306,-0.5459439754486084,-9.658182144165039
1745661968.325896,0.012571997940540314,-0.012140379287302494,-0.2870487570762634,0.3219870924949646,-0.7710203528404236,-9.809093475341797
1745661968.3299692,0.016125794500112534,-0.015091890469193459,-0.28989532589912415,0.4926072955131531,-0.6802681684494019,-9.825133323669434
1745661968.3321748,0.016460800543427467,-0.014358671382069588,-0.28866809606552124,0.2605910003185272,-0.5723592042922974,-9.76544189453125
1745661968.363439,0.017552241683006287,-0.01120903342962265,-0.2902824282646179,0.4877334237098694,-0.8754609227180481,-9.675359725952148
1745661968.3658233,0.019851237535476685,-0.012346206232905388,-0.2888633608818054,0.26334190368652344,-0.46778494119644165,-9.638788223266602
1745661968.3678076,0.01989986002445221,-0.010511530563235283,-0.29065629839897156,0.5153369307518005,-0.8087373971939087,-9.819479942321777
1745661968.3692255,0.021058309823274612,-0.014828654937446117,-0.2898407578468323,0.4341270923614502,-0.580720067024231,-9.839720726013184
1745661968.3692818,0.02833295427262783,-0.012244381941854954,-0.2880820333957672,0.3389837443828583,-0.8066241145133972,-9.851487159729004
1745661968.4109273,0.018257176503539085,-0.01675299182534218,-0.28624725341796875,0.41863909363746643,-0.7044302225112915,-9.6635103225708
1745661968.4124753,0.021181225776672363,-0.011127781122922897,-0.28787368535995483,0.25948458909988403,-0.6941062211990356,-9.70874309539795
1745661968.4135568,0.021232184022665024,-0.0110915657132864,-0.28912776708602905,0.4751873016357422,-0.7413226366043091,-9.670954704284668
1745661968.4159014,0.02066013216972351,-0.014134434051811695,-0.2928996682167053,0.34314844012260437,-0.48744669556617737,-9.69432258605957
1745661968.4509995,0.024914417415857315,-0.014828123152256012,-0.2910902798175812,0.49358654022216797,-0.860983669757843,-9.835864067077637
1745661968.4533253,0.015912385657429695,-0.01660688780248165,-0.2887778878211975,0.39519405364990234,-0.6512673497200012,-9.741125106811523
1745661968.4556363,0.02540728822350502,-0.013094881549477577,-0.2899564802646637,0.40674465894699097,-0.8882905840873718,-9.739389419555664
1745661968.457138,0.02511817216873169,-0.017145980149507523,-0.28867167234420776,0.3924987316131592,-0.5703722238540649,-9.641080856323242
1745661968.4954677,0.020885523408651352,-0.014471596106886864,-0.2906250059604645,0.36194223165512085,-0.6867637634277344,-9.749405860900879
1745661968.5000403,0.02661092020571232,-0.015633046627044678,-0.2914772927761078,0.523038923740387,-0.6896972060203552,-9.738385200500488
1745661968.503418,0.025145668536424637,-0.016948657110333443,-0.2907857596874237,0.2836243510246277,-0.6048356294631958,-9.846553802490234
1745661968.5091827,0.024213287979364395,-0.013969997875392437,-0.29284125566482544,0.5277385115623474,-0.9320532083511353,-9.811769485473633
1745661968.5121253,0.021677041426301003,-0.01874888315796852,-0.2889907956123352,0.3707136809825897,-0.7200865149497986,-9.76365852355957
1745661968.538368,0.020541155710816383,-0.018314439803361893,-0.2899642884731293,0.47075843811035156,-1.0076442956924438,-9.776071548461914
1745661968.550335,0.009753930382430553,-0.021102339029312134,-0.28503647446632385,0.4138984680175781,-0.7103772759437561,-9.706661224365234
1745661968.5504699,0.016749341040849686,-0.014703162014484406,-0.2882416248321533,0.3434274196624756,-0.8074015378952026,-9.749673843383789
1745661968.5505493,0.012974950484931469,-0.019550975412130356,-0.28726881742477417,0.5247446298599243,-0.6598339080810547,-9.63563346862793
1745661968.5800378,0.011633713729679585,-0.018327463418245316,-0.28958192467689514,0.2979111075401306,-0.6022575497627258,-9.83668327331543
1745661968.5861824,0.014822651632130146,-0.014793096110224724,-0.2905116677284241,0.464749276638031,-0.8549839854240417,-9.92444133758545
1745661968.6006212,0.02294185385107994,-0.021824348717927933,-0.28849390149116516,0.27235665917396545,-0.5289290547370911,-9.712175369262695
1745661968.6007593,0.017422355711460114,-0.016983026638627052,-0.2878448963165283,0.4569380283355713,-0.9507030248641968,-9.615428924560547
1745661968.6238406,0.021684449166059494,-0.02134118042886257,-0.2877357006072998,0.46593934297561646,-0.5807758569717407,-9.71241569519043
1745661968.6286159,0.020930234342813492,-0.016026487573981285,-0.28784269094467163,0.42156991362571716,-0.8558233380317688,-9.910818099975586
1745661968.6303234,0.017430130392313004,-0.018403638154268265,-0.28346675634384155,0.5032918453216553,-0.7181747555732727,-9.687744140625
1745661968.6344512,0.020090240985155106,-0.019480112940073013,-0.28552940487861633,0.33850887417793274,-0.7674843668937683,-9.686610221862793
1745661968.6644914,0.015467390418052673,-0.02256038226187229,-0.2801094353199005,0.3155755400657654,-0.5817853808403015,-9.930074691772461
1745661968.666584,0.019127674400806427,-0.016515256837010384,-0.28564006090164185,0.472973495721817,-0.7478197813034058,-9.962386131286621
1745661968.6690717,0.012912745587527752,-0.021845314651727676,-0.28458112478256226,0.3441275954246521,-0.6252856254577637,-9.58130931854248
1745661968.671563,0.019949762150645256,-0.016071181744337082,-0.2853015065193176,0.3787155747413635,-0.839038074016571,-9.550271987915039
1745661968.6757874,0.010482828132808208,-0.024871723726391792,-0.2840561866760254,0.4761664867401123,-0.6550090312957764,-9.798888206481934
1745661968.710148,0.013969043269753456,-0.016867995262145996,-0.28430426120758057,0.32790616154670715,-0.7578595280647278,-10.069170951843262
1745661968.7151017,0.018566401675343513,-0.014461196959018707,-0.28213733434677124,0.5244622230529785,-0.8352149128913879,-9.704785346984863
1745661968.7151742,0.02004077658057213,-0.024774771183729172,-0.283458411693573,0.29841551184654236,-0.5407155156135559,-9.464055061340332
1745661968.7152195,0.017767563462257385,-0.017179060727357864,-0.28218895196914673,0.4844077527523041,-0.8798855543136597,-9.77763843536377
1745661968.753657,0.02595161274075508,-0.017968330532312393,-0.28339487314224243,0.34969738125801086,-0.4803178310394287,-9.873380661010742
1745661968.7564907,0.02597375586628914,-0.016891751438379288,-0.28253403306007385,0.44899049401283264,-0.8917759656906128,-9.761853218078613
1745661968.759562,0.019652364775538445,-0.02139386534690857,-0.2826242446899414,0.4321843683719635,-0.7137051820755005,-9.59990406036377
1745661968.7694416,0.025876343250274658,-0.019245589151978493,-0.2838722765445709,0.3050047755241394,-0.8429664373397827,-9.826799392700195
1745661968.7695012,0.01110562589019537,-0.0192494448274374,-0.2802044749259949,0.47705063223838806,-0.7659077048301697,-9.83537483215332
1745661968.7958405,0.015488505363464355,-0.01755691133439541,-0.2809048295021057,0.34099966287612915,-0.7158395648002625,-9.701383590698242
1745661968.804497,0.01894439198076725,-0.018299896270036697,-0.2729748487472534,0.2926660180091858,-0.7263485193252563,-9.759968757629395
1745661968.8051085,0.018309691920876503,-0.018668796867132187,-0.2727706730365753,0.49885958433151245,-0.679058849811554,-9.766316413879395
1745661968.8051467,0.020110631361603737,-0.016877107322216034,-0.2767353355884552,0.3013407588005066,-0.6563939452171326,-9.738847732543945
1745661968.8437085,0.020215708762407303,-0.015546426177024841,-0.2763906419277191,0.4322811961174011,-0.8035637140274048,-9.712400436401367
1745661968.8476305,0.007506488356739283,-0.02044462040066719,-0.2764325737953186,0.393241822719574,-0.6475427150726318,-9.782919883728027
1745661968.8477256,0.012355788610875607,-0.014833432622253895,-0.27610158920288086,0.38694995641708374,-0.9544489979743958,-9.874105453491211
1745661968.847776,0.010901415720582008,-0.019482627511024475,-0.27541691064834595,0.4100882411003113,-0.7383800148963928,-9.677356719970703
1745661968.881178,0.0040369657799601555,-0.015645626932382584,-0.27522075176239014,0.39340418577194214,-0.7015061378479004,-9.645544052124023
1745661968.8843675,0.006984149105846882,-0.016769016161561012,-0.27620238065719604,0.5324503183364868,-0.7546342015266418,-9.736015319824219
1745661968.885941,0.013032707385718822,-0.01670549437403679,-0.27530190348625183,0.2828327417373657,-0.48876819014549255,-9.840631484985352
1745661968.8885384,0.01574004255235195,-0.014247724786400795,-0.2768124043941498,0.4934801459312439,-0.818428635597229,-9.81654167175293
1745661968.9233232,0.019467420876026154,-0.01974444091320038,-0.27569395303726196,0.294868528842926,-0.5869320631027222,-9.69705867767334
1745661968.925388,0.020389271900057793,-0.016410289332270622,-0.27577415108680725,0.3854910731315613,-0.887663722038269,-9.778387069702148
1745661968.934773,0.010998602956533432,-0.018965840339660645,-0.2737460732460022,0.37424975633621216,-0.7297376394271851,-9.75571346282959
1745661968.934852,0.017194103449583054,-0.01510368101298809,-0.2750062346458435,0.34961414337158203,-0.8161103129386902,-9.734430313110352
1745661968.934921,0.008598962798714638,-0.01797126792371273,-0.2745853066444397,0.5460731983184814,-0.746795654296875,-9.623583793640137
1745661968.967713,0.005888455547392368,-0.018135730177164078,-0.27653688192367554,0.33318382501602173,-0.6474463939666748,-9.824627876281738
1745661968.969652,0.0036336190532892942,-0.014617572538554668,-0.27584463357925415,0.5044740438461304,-0.9182279706001282,-9.910163879394531
1745661968.9728243,0.008491616696119308,-0.018960896879434586,-0.2765273451805115,0.29153212904930115,-0.5685867667198181,-9.72891616821289
1745661968.9737737,0.0028954842127859592,-0.015854649245738983,-0.27633345127105713,0.3916218876838684,-0.9074141383171082,-9.684155464172363
1745661969.0104985,0.0059157018549740314,-0.018993237987160683,-0.27744871377944946,0.3845672011375427,-0.5846257209777832,-9.711610794067383
1745661969.0127409,0.011101117357611656,-0.013356873765587807,-0.27837952971458435,0.4961497187614441,-0.7283018231391907,-9.70923137664795
1745661969.014538,0.008317632600665092,-0.013032602146267891,-0.27969080209732056,0.3189242482185364,-0.6321427226066589,-9.758145332336426
1745661969.0165083,0.009707845747470856,-0.01460710447281599,-0.2779666781425476,0.5356608629226685,-0.8131208419799805,-9.803143501281738
1745661969.0196662,0.015772217884659767,-0.0156995989382267,-0.27850550413131714,0.2905765175819397,-0.5842479467391968,-9.867938995361328
1745661969.0532386,0.019609082490205765,-0.012708949856460094,-0.27588897943496704,0.4015030860900879,-0.8457077145576477,-9.73324966430664
1745661969.055761,0.011285106651484966,-0.016679678112268448,-0.27540913224220276,0.34599485993385315,-0.6370344758033752,-9.644037246704102
1745661969.058441,0.019796375185251236,-0.01372736506164074,-0.27529171109199524,0.3310816287994385,-0.8276382684707642,-9.801294326782227
1745661969.0622666,0.015395100228488445,-0.013569734990596771,-0.2768632769584656,0.4627217650413513,-0.6316766738891602,-9.755887985229492
1745661969.0998526,0.013811275362968445,-0.00970812700688839,-0.276450514793396,0.31785276532173157,-0.6663270592689514,-9.810303688049316
1745661969.0999856,0.01591430976986885,-0.011674796231091022,-0.27822214365005493,0.5711879134178162,-0.8906833529472351,-9.736796379089355
