timestamp,angular_vel_x,angular_vel_y,angular_vel_z,linear_acc_x,linear_acc_y,linear_acc_z
1745651877.3811502,0.02536412514746189,0.0065096705220639706,0.028888797387480736,0.5128483772277832,-0.292186975479126,-10.17153549194336
1745651877.385139,0.05401783436536789,0.024027550593018532,0.03330538794398308,0.6081806421279907,0.11903822422027588,-10.31092643737793
1745651877.3956678,0.016305213794112206,0.02111647091805935,0.03623601794242859,0.19133494794368744,-0.4271618723869324,-9.734657287597656
1745651877.408059,0.04833753779530525,0.022260088473558426,0.0423554889857769,0.40315717458724976,-0.31786224246025085,-8.974626541137695
1745651877.4244268,-0.03141617029905319,0.01130171399563551,0.04365404695272446,0.557144284248352,-0.10843943059444427,-10.5756254196167
1745651877.4246092,-0.014697546139359474,0.03550729900598526,0.04924125224351883,0.5022751092910767,0.0793609470129013,-9.769067764282227
1745651877.4296842,-0.02154671773314476,0.014874163083732128,0.05180484056472778,0.5422474145889282,0.13899895548820496,-9.02806568145752
1745651877.4376667,0.010749039240181446,0.01940051279962063,0.05454396456480026,0.4967898428440094,0.31096452474594116,-9.767278671264648
1745651877.4662006,0.017513051629066467,0.022809091955423355,0.05418711155653,0.6186468601226807,0.34134218096733093,-10.39277172088623
1745651877.4695332,0.04461563751101494,0.02713705226778984,0.05013008043169975,0.2922363877296448,0.2760317027568817,-9.82723331451416
1745651877.4715478,0.03009178675711155,0.028952181339263916,0.05497295409440994,0.44063693284988403,-0.0626136064529419,-9.066606521606445
1745651877.4737284,0.03563752770423889,0.01611623540520668,0.053551752120256424,0.5250119566917419,-0.16513924300670624,-9.597047805786133
1745651877.4755404,0.02350603975355625,0.03393332287669182,0.05641518160700798,0.5634094476699829,-0.21218547224998474,-10.390508651733398
1745651877.503308,0.0013088065898045897,0.024272849783301353,0.05681794136762619,0.5509178638458252,-0.4467009902000427,-9.949179649353027
1745651877.5077636,0.010695802047848701,0.03245532885193825,0.060817014425992966,0.5218812227249146,-0.2187984436750412,-9.147791862487793
1745651877.5129728,-0.03305818513035774,0.023447271436452866,0.062127113342285156,0.6337868571281433,-0.33661383390426636,-9.613308906555176
1745651877.514743,-0.014676839113235474,0.02411327324807644,0.06434443593025208,0.471635103225708,-0.18490466475486755,-10.349178314208984
1745651877.546155,-0.029074236750602722,0.03268532082438469,0.06708095967769623,0.5433103442192078,-0.16698625683784485,-9.867673873901367
1745651877.5502238,-0.02062348835170269,0.015863021835684776,0.10504714399576187,0.6376545429229736,-0.09150241315364838,-9.801770210266113
1745651877.5535088,-0.02993299998342991,0.004463528748601675,0.10517344623804092,0.5269718170166016,-0.06856165826320648,-9.718378067016602
1745651877.5555696,-0.025854777544736862,0.013667354360222816,0.10796161741018295,0.5749470591545105,-0.08665837347507477,-9.760236740112305
1745651877.5895083,-0.045445285737514496,0.005169218871742487,0.10672260820865631,0.6092448234558105,-0.09164166450500488,-9.861783027648926
1745651877.5977929,-0.03217075765132904,0.006224846467375755,0.1085284948348999,0.4679197371006012,-0.08846086263656616,-9.824783325195312
1745651877.5993226,-0.04335600882768631,0.008688961155712605,0.11215366423130035,0.6483489274978638,-0.021498430520296097,-9.614744186401367
1745651877.6003914,-0.03382853418588638,0.0066604455932974815,0.11264638602733612,0.4016278386116028,0.11795072257518768,-9.766371726989746
1745651877.602693,-0.037180107086896896,0.0021807209122925997,0.11603222787380219,0.6161367893218994,-0.04692412540316582,-9.831390380859375
1745651877.6331394,-0.022027304396033287,0.004920382983982563,0.11544542014598846,0.5105500817298889,0.25554364919662476,-9.741199493408203
1745651877.6364408,-0.030573543161153793,0.008333460427820683,0.11543451249599457,0.47375160455703735,0.00025275349617004395,-9.816731452941895
1745651877.6419263,-0.01673007383942604,-0.002104144776239991,0.11646531522274017,0.6203668713569641,0.12082359939813614,-9.718389511108398
1745651877.6419694,-0.02177060768008232,0.006282594054937363,0.11593560129404068,0.49461841583251953,0.03466876596212387,-9.817362785339355
1745651877.67509,-0.028990697115659714,-0.0027074229437857866,0.11793889850378036,0.6089662909507751,-0.12773458659648895,-9.83955192565918
1745651877.6786635,-0.021185507997870445,0.001117059146054089,0.11828793585300446,0.5258890390396118,0.0827857181429863,-9.724916458129883
1745651877.6807725,-0.033706001937389374,-0.002238728804513812,0.120040163397789,0.7130972743034363,-0.1412055939435959,-9.77491283416748
1745651877.6832242,-0.02894744835793972,-0.009020404890179634,0.12217552959918976,0.4741937518119812,0.09803085029125214,-9.955288887023926
1745651877.716441,-0.027324426919221878,-3.0910967325326055e-05,0.12170054763555527,0.60981684923172,-0.07142582535743713,-9.766397476196289
1745651877.7192414,-0.033454690128564835,-0.00828020740300417,0.1253150999546051,0.5216554403305054,0.07346872240304947,-9.673744201660156
1745651877.721801,-0.029982686042785645,-0.007952956482768059,0.12537935376167297,0.43876510858535767,-0.02301667630672455,-9.814872741699219
1745651877.7240481,-0.02796747349202633,-0.008916353806853294,0.12798574566841125,0.646263837814331,0.034902650862932205,-9.848970413208008
1745651877.7264695,-0.02534928359091282,-0.004791409708559513,0.12853394448757172,0.4173443913459778,0.13913606107234955,-9.863858222961426
1745651877.7622728,-0.02848939225077629,-0.014799107797443867,0.1302308738231659,0.6268596053123474,-0.10272449254989624,-9.740591049194336
1745651877.7649333,-0.02529933489859104,-0.01464275736361742,0.13563330471515656,0.650151252746582,0.14999176561832428,-9.772013664245605
1745651877.7661974,-0.028535302728414536,-0.017311135306954384,0.1358029544353485,0.39071527123451233,0.10210444778203964,-9.79832649230957
1745651877.7696338,-0.01731908693909645,-0.014717498794198036,0.13791008293628693,0.5036357045173645,-0.014121456071734428,-9.716459274291992
1745651877.8023355,-0.02904660627245903,-0.020223530009388924,0.14018262922763824,0.5416104197502136,0.12107805162668228,-9.745391845703125
1745651877.8046567,-0.011431803926825523,-0.01561170257627964,0.13850215077400208,0.5261222124099731,-0.02551385760307312,-9.935928344726562
1745651877.807116,-0.029244307428598404,-0.02593652345240116,0.14479967951774597,0.5884958505630493,0.028230508789420128,-9.823847770690918
1745651877.8111582,-0.014000793918967247,-0.016160979866981506,0.14125749468803406,0.4730687141418457,-0.015473246574401855,-9.756895065307617
1745651877.8124695,-0.032891981303691864,-0.023098189383745193,0.14456281065940857,0.5851162075996399,0.01829463243484497,-9.735075950622559
1745651877.8480332,-0.02695545181632042,-0.028258472681045532,0.1447584331035614,0.47833824157714844,-0.04307747259736061,-9.888516426086426
1745651877.850169,-0.023356502875685692,-0.015364575199782848,0.14657670259475708,0.6114165186882019,0.04851358383893967,-9.8297758102417
1745651877.8512383,-0.04346826300024986,-0.03261036425828934,0.1458669900894165,0.4304731488227844,0.05949651077389717,-9.81395149230957
1745651877.852567,-0.01701292023062706,-0.024762004613876343,0.14788052439689636,0.49728432297706604,0.022670943289995193,-9.715044021606445
1745651877.889803,-0.04264993593096733,-0.023885909467935562,0.14975494146347046,0.5288731455802917,0.17004573345184326,-9.8005952835083
1745651877.892857,-0.0152919115498662,-0.0270749032497406,0.15030069649219513,0.41257399320602417,0.05165952444076538,-9.918974876403809
1745651877.8949714,-0.021246517077088356,-0.022070206701755524,0.17237257957458496,0.38915929198265076,0.07266981899738312,-9.734841346740723
1745651877.8980293,-0.028934333473443985,-0.015964463353157043,0.1725398600101471,0.5272075533866882,0.0261992160230875,-9.761712074279785
1745651877.932427,-0.024585137143731117,-0.023269642144441605,0.1740628033876419,0.3422856628894806,0.18717217445373535,-9.885297775268555
1745651877.9353247,-0.030386030673980713,-0.022183310240507126,0.17501899600028992,0.509617030620575,0.013340124860405922,-9.796625137329102
1745651877.9381616,-0.018803449347615242,-0.0214662067592144,0.17402467131614685,0.41204267740249634,0.24271133542060852,-9.675230979919434
1745651877.940329,-0.0261908657848835,-0.010980403982102871,0.17509116232395172,0.31246402859687805,0.05597790330648422,-9.814841270446777
1745651877.9415472,-0.02292238175868988,-0.02693917788565159,0.17694653570652008,0.5190526247024536,0.11037460714578629,-9.78400993347168
1745651877.9767003,-0.012478718534111977,-0.012433095835149288,0.17577888071537018,0.3629007041454315,0.13357742130756378,-9.795223236083984
1745651877.9788141,-0.023940490558743477,-0.015323670580983162,0.1801840364933014,0.4613555073738098,0.014614535495638847,-9.729057312011719
1745651877.9811316,-0.01803230680525303,-0.019570205360651016,0.17776863276958466,0.3271097242832184,0.1600075662136078,-9.755053520202637
1745651877.9823294,-0.021732673048973083,-0.011243162676692009,0.1794990748167038,0.5225569009780884,-0.0015826970338821411,-9.736084938049316
1745651878.019949,-0.027756577357649803,-0.01472499966621399,0.1797623336315155,0.35918158292770386,0.14045044779777527,-9.819330215454102
1745651878.0211167,-0.019864970818161964,-0.011144125834107399,0.17949070036411285,0.39667972922325134,0.012772140093147755,-9.804391860961914
1745651878.0282977,-0.029142320156097412,-0.014735844917595387,0.18148748576641083,0.46312054991722107,0.12625154852867126,-9.609735488891602
1745651878.0284367,-0.026156311854720116,-0.004400001838803291,0.18060682713985443,0.3188433051109314,0.04147756099700928,-9.782426834106445
1745651878.0605319,-0.03450522571802139,-0.013385874219238758,0.18138717114925385,0.5747596025466919,0.13193099200725555,-9.830322265625
1745651878.0629015,-0.018732625991106033,-0.012579955160617828,0.1832379847764969,0.33080214262008667,0.16526740789413452,-9.860258102416992
1745651878.0653048,-0.029782092198729515,0.0014089129399508238,0.18269601464271545,0.44370874762535095,0.11348460614681244,-9.711902618408203
1745651878.0672677,-0.02743229828774929,-0.018587272614240646,0.18359671533107758,0.42008495330810547,0.15287518501281738,-9.680459976196289
1745651878.0722797,-0.016915861517190933,-0.0022986778058111668,0.1852523535490036,0.4397408068180084,0.06927762925624847,-9.812764167785645
1745651878.1070306,-0.02626441791653633,-0.007884586229920387,0.1848456710577011,0.4208320677280426,0.26310768723487854,-9.883685111999512
1745651878.110461,-0.017635833472013474,-0.010966124944388866,0.18520215153694153,0.38937661051750183,0.06775545328855515,-9.761765480041504
1745651878.1139922,-0.01733396388590336,0.0013671258930116892,0.18677306175231934,0.3593463599681854,0.09179572761058807,-9.803396224975586
1745651878.1223378,-0.032237324863672256,-0.0028030984103679657,0.18715296685695648,0.5072489976882935,0.10972175747156143,-9.667298316955566
1745651878.14695,-0.018689775839447975,-0.002590453252196312,0.18776313960552216,0.2954341769218445,0.15758433938026428,-9.765972137451172
1745651878.1494687,-0.02729901671409607,0.002040417166426778,0.18820950388908386,0.47481822967529297,0.10305865108966827,-9.747281074523926
1745651878.1529632,-0.020284725353121758,0.0013293304946273565,0.1878950595855713,0.3236725330352783,0.13336990773677826,-9.756490707397461
1745651878.158409,-0.025330400094389915,0.005924656055867672,0.18927176296710968,0.47586145997047424,0.16628703474998474,-9.69310474395752
1745651878.162889,-0.02361125685274601,-0.006559199187904596,0.18846866488456726,0.47002658247947693,0.1326739490032196,-9.783101081848145
1745651878.1915743,-0.01471149642020464,0.011671888642013073,0.1901325285434723,0.2863841652870178,0.20682784914970398,-9.928268432617188
1745651878.195218,-0.028886184096336365,-0.0032106414437294006,0.18888726830482483,0.5096920728683472,0.09006241708993912,-9.637179374694824
1745651878.19673,-0.013180400244891644,0.0019360374426469207,0.189629465341568,0.3905898332595825,0.13390502333641052,-9.637292861938477
1745651878.1982706,-0.025428514927625656,0.007106688804924488,0.19344261288642883,0.48895367980003357,0.13959403336048126,-9.929646492004395
1745651878.2329507,-0.016696520149707794,-0.0014982580905780196,0.19108732044696808,0.33388373255729675,0.21649841964244843,-9.883527755737305
1745651878.235084,-0.017713455483317375,0.005922521930187941,0.1903640776872635,0.458333820104599,0.027811799198389053,-9.590639114379883
1745651878.2370903,-0.023656312376260757,0.0020084541756659746,0.19230197370052338,0.36843928694725037,0.25299257040023804,-9.699790000915527
1745651878.2394903,-0.011139988899230957,0.007622078992426395,0.1926766186952591,0.5210381746292114,0.1796341836452484,-9.67845630645752
1745651878.2789795,-0.0005094199441373348,0.011946995742619038,0.19401976466178894,0.30862170457839966,0.27412480115890503,-9.90312385559082
1745651878.2831144,-0.01807401329278946,0.004293676931411028,0.1943465620279312,0.5645635724067688,0.04123304411768913,-9.807647705078125
1745651878.287529,0.005358371417969465,0.006503021810203791,0.19301746785640717,0.3789656162261963,0.3104167580604553,-9.716838836669922
1745651878.2893496,-0.016454463824629784,0.011883820407092571,0.19340893626213074,0.39931970834732056,0.054134488105773926,-9.818593978881836
1745651878.3210511,-0.003844113554805517,-0.0020732309203594923,0.19201642274856567,0.4333168864250183,0.22659167647361755,-9.781251907348633
1745651878.32311,-0.005533033050596714,0.01063153799623251,0.1951170414686203,0.4566020965576172,0.08217833936214447,-9.767683029174805
1745651878.3256443,-0.009864572435617447,0.004656726028770208,0.19452019035816193,0.41579827666282654,0.16228866577148438,-9.74328327178955
1745651878.327383,-0.008368091657757759,0.00660034641623497,0.19464166462421417,0.3036584258079529,0.17884531617164612,-9.836679458618164
1745651878.328733,-0.005599101074039936,0.0033301219809800386,0.19389329850673676,0.5916028022766113,0.11818976700305939,-9.694601058959961
1745651878.3647177,-0.008033265359699726,0.007811977062374353,0.19477052986621857,0.24888035655021667,0.3185930550098419,-9.830293655395508
1745651878.3657753,-0.009419369511306286,0.007113738916814327,0.1942209005355835,0.4904264509677887,0.015152198262512684,-9.813146591186523
1745651878.3687792,-0.0011692263651639223,0.0018013680819422007,0.19574770331382751,0.40412870049476624,0.3666239082813263,-9.645920753479004
1745651878.3708827,-0.01087567862123251,0.014777871780097485,0.19464336335659027,0.3292526602745056,0.0008367493865080178,-9.850998878479004
1745651878.4053144,-0.006161929108202457,0.001257734140381217,0.1947677880525589,0.5156887769699097,0.3047649562358856,-9.72846794128418
1745651878.4069645,-0.004656314849853516,0.007511218544095755,0.19241371750831604,0.3935835361480713,0.15343300998210907,-9.856019973754883
1745651878.4091806,-0.007820788770914078,0.007585893385112286,0.19604550302028656,0.5145140290260315,0.14483878016471863,-9.83155632019043
1745651878.4104302,-0.007382878568023443,0.0029841021168977022,0.196168452501297,0.3496338725090027,0.2793717384338379,-9.738058090209961
1745651878.4128296,-0.0008108709007501602,0.007750897202640772,0.19707806408405304,0.5358836650848389,0.03344722464680672,-9.742269515991211
1745651878.4532287,-0.001956721069291234,0.0014352728612720966,0.19743046164512634,0.36670416593551636,0.3973075747489929,-9.816686630249023
1745651878.4532974,-0.007313983049243689,0.002557037863880396,0.19843927025794983,0.4602717459201813,-0.02174152061343193,-9.936084747314453
1745651878.4553416,0.011055138893425465,0.0024545101914554834,0.1974884569644928,0.48141032457351685,0.4207236170768738,-9.65979290008545
1745651878.4584086,-0.013652073219418526,-0.0026441554073244333,0.1992640644311905,0.3336115777492523,0.24307489395141602,-9.718194007873535
1745651878.4928534,-0.0015631219139322639,0.0046701692044734955,0.1995629072189331,0.5108750462532043,0.017077479511499405,-9.71446418762207
1745651878.494981,-0.020917946472764015,-0.0028422826435416937,0.19778525829315186,0.44389933347702026,0.2978401780128479,-9.824722290039062
1745651878.4971435,-0.0031891115941107273,0.0032930169254541397,0.19767683744430542,0.3520731031894684,0.07336737960577011,-9.938879013061523
1745651878.4992743,-0.0069878967478871346,0.0006628322298638523,0.19947978854179382,0.47458401322364807,0.32363271713256836,-9.548516273498535
1745651878.5358644,-0.007595200091600418,0.004849397577345371,0.19818851351737976,0.2817905843257904,0.11906743049621582,-9.717753410339355
1745651878.538167,-0.006899165455251932,-0.001373564824461937,0.19873082637786865,0.5775963068008423,0.2422969788312912,-9.853239059448242
1745651878.5402868,0.0019612987525761127,-0.001908025937154889,0.19916068017482758,0.3712352216243744,0.20222094655036926,-9.920797348022461
1745651878.542712,0.000590874464251101,0.009442073293030262,0.20123794674873352,0.41828036308288574,0.1803458034992218,-9.736265182495117
1745651878.5842378,-0.008234319277107716,-0.007843466475605965,0.19995279610157013,0.4885891079902649,0.20221848785877228,-9.621971130371094
1745651878.5857372,0.009195365943014622,0.0037606258410960436,0.2010527104139328,0.46349841356277466,0.10245279967784882,-9.8447265625
1745651878.587975,-0.0058092037215828896,0.0007016105810180306,0.20083387196063995,0.4907279908657074,0.3114505112171173,-9.964207649230957
1745651878.590263,-7.557142816949636e-05,-0.0067703137174248695,0.19926658272743225,0.3466574549674988,0.0886135920882225,-9.837411880493164
1745651878.5925937,0.0028166307602077723,-0.0013405621284618974,0.1998945027589798,0.5672723650932312,0.16853740811347961,-9.540456771850586
1745651878.6233335,-0.005759501829743385,-0.014933176338672638,0.2045760601758957,0.4807319641113281,0.22128024697303772,-9.681159019470215
1745651878.6241832,-0.001513585215434432,-0.004763773642480373,0.20317761600017548,0.46337875723838806,0.06137019395828247,-9.864984512329102
1745651878.6258068,-0.01609652116894722,-0.01888664811849594,0.2058033049106598,0.42504754662513733,0.26802459359169006,-9.883417129516602
1745651878.62738,-0.00041893572779372334,-0.010552166029810905,0.20298126339912415,0.3191757798194885,0.08753176033496857,-9.792973518371582
1745651878.6646411,-0.018343651667237282,-0.009298478253185749,0.20456454157829285,0.5627759695053101,0.19139863550662994,-9.565263748168945
1745651878.6691995,-0.009496558457612991,-0.017048394307494164,0.20194876194000244,0.3166593015193939,0.17315563559532166,-9.914010047912598
1745651878.6745782,-0.016128769144415855,-0.014079551212489605,0.20366354286670685,0.4704180657863617,0.07729566097259521,-9.91139030456543
1745651878.6800103,-0.00998593494296074,-0.014999978244304657,0.2046363353729248,0.3779650628566742,0.20747287571430206,-9.652898788452148
1745651878.6845083,-0.018784692510962486,-0.008155413903295994,0.20353779196739197,0.4172714352607727,0.1131356954574585,-9.66960334777832
1745651878.708697,-0.01828717812895775,-0.020751796662807465,0.2016996443271637,0.44635239243507385,0.16837503015995026,-9.876195907592773
1745651878.7119265,-0.005539464298635721,-0.00822466891258955,0.20381002128124237,0.3556134104728699,0.232156902551651,-9.89289665222168
1745651878.7122383,-0.0265318863093853,-0.011397389695048332,0.20312738418579102,0.4436042904853821,0.15763059258460999,-9.666916847229004
1745651878.7161582,-0.008302313275635242,-0.015738684684038162,0.20404568314552307,0.3172627389431,0.18553048372268677,-9.618110656738281
1745651878.7495654,-0.01869971491396427,-0.008216533809900284,0.20256023108959198,0.49410027265548706,0.18487191200256348,-9.773426055908203
1745651878.7515278,-0.014652843587100506,-0.013646373525261879,0.20209190249443054,0.35395288467407227,0.329484760761261,-9.99437427520752
1745651878.754037,-0.009649370796978474,-0.006825312972068787,0.20093794167041779,0.4320487976074219,0.04440668225288391,-9.742525100708008
1745651878.7570236,-0.010254507884383202,-0.009570848196744919,0.20190119743347168,0.44013363122940063,0.32966068387031555,-9.506088256835938
1745651878.760143,-0.01454609353095293,-0.010206387378275394,0.20116205513477325,0.31802672147750854,0.13680875301361084,-9.925569534301758
1745651878.796113,-0.011177114211022854,-0.015341386198997498,0.20213225483894348,0.5122427344322205,0.18043391406536102,-9.872762680053711
1745651878.80071,-0.006846072617918253,-0.005337800830602646,0.20484963059425354,0.35764628648757935,0.18098656833171844,-9.76894474029541
1745651878.8063369,-0.015043066814541817,-0.011423741467297077,0.20111875236034393,0.47914934158325195,0.1999402493238449,-9.707006454467773
1745651878.810761,-0.010300708003342152,-0.018969722092151642,0.20318245887756348,0.3032074272632599,0.1583244502544403,-9.879788398742676
1745651878.8358107,-0.0086217587813735,-0.00358235533349216,0.20499756932258606,0.5199148058891296,0.14279431104660034,-9.785706520080566
1745651878.839472,-0.021270832046866417,-0.01212312187999487,0.20386767387390137,0.4410470128059387,0.1760065108537674,-9.782024383544922
1745651878.8427553,-0.01481753308326006,-0.009585065767168999,0.20331677794456482,0.3224610686302185,0.18511608242988586,-9.750102043151855
1745651878.8462024,-0.026946738362312317,-0.014847725629806519,0.2047838717699051,0.4928585886955261,0.16277626156806946,-9.773412704467773
1745651878.8833227,-0.009359186515212059,-0.01320530753582716,0.2051379680633545,0.32901445031166077,0.2662571966648102,-9.840415000915527
1745651878.8863904,-0.014753887429833412,-0.004059994127601385,0.20385678112506866,0.3930548131465912,0.2187172919511795,-9.738286972045898
1745651878.8876472,-0.01592688448727131,-0.013194868341088295,0.20632311701774597,0.35124891996383667,0.23024359345436096,-9.670221328735352
1745651878.8922987,-0.006537606008350849,-0.008655850775539875,0.20700502395629883,0.4101102352142334,0.23244278132915497,-9.751132011413574
1745651878.9253805,-0.008785070851445198,-0.011823603883385658,0.2053825557231903,0.42124849557876587,0.28384333848953247,-9.896437644958496
1745651878.929012,-0.005143454764038324,-0.002705992665141821,0.20416679978370667,0.24436712265014648,0.21093885600566864,-9.863212585449219
1745651878.933228,-0.012341635301709175,-0.010840709321200848,0.2055630385875702,0.5157356858253479,0.08269093930721283,-9.547616958618164
1745651878.938547,-0.004009076859802008,-0.007182498462498188,0.20381028950214386,0.3275904059410095,0.26485198736190796,-9.7490816116333
1745651878.966541,-0.016753820702433586,-0.005969308316707611,0.20802836120128632,0.47794827818870544,0.11830019950866699,-9.978275299072266
1745651878.9699302,-0.006376687437295914,0.00047177745727822185,0.205536887049675,0.5020428895950317,0.1286534070968628,-9.365023612976074
1745651878.9731276,-0.014555265195667744,-0.003668163437396288,0.2085038423538208,0.3129088878631592,0.3000098168849945,-9.816587448120117
1745651878.9758372,-0.0046620918437838554,-0.0002406787098152563,0.2061804085969925,0.4138999879360199,0.06988563388586044,-10.162969589233398
1745651879.0085614,-0.011354072019457817,-0.0015127657679840922,0.20722977817058563,0.38088852167129517,0.300802081823349,-9.69835090637207
1745651879.0096846,-0.0074004800990223885,0.0011666208738461137,0.20893731713294983,0.35114532709121704,0.031619079411029816,-9.523758888244629
1745651879.0113475,-0.015766944736242294,-0.005784071050584316,0.2073134481906891,0.4659043848514557,0.35151585936546326,-9.73332691192627
1745651879.0142164,-0.009299121797084808,-0.0014749994734302163,0.20605537295341492,0.2649625539779663,0.1307419240474701,-10.131793022155762
1745651879.0203297,-0.007525303866714239,0.001757498481310904,0.20681700110435486,0.5032671093940735,0.24816937744617462,-9.661055564880371
1745651879.0520585,-0.013357040472328663,-0.0025836548302322626,0.20672936737537384,0.26962044835090637,0.26762714982032776,-9.535511016845703
1745651879.053231,-0.009330136701464653,-0.002704816171899438,0.2050660103559494,0.41247478127479553,0.1629718691110611,-9.821791648864746
1745651879.0563352,-0.009791127406060696,-0.0039049037732183933,0.2075132429599762,0.4117806553840637,0.3040366768836975,-9.931368827819824
1745651879.0572307,-0.0031235527712851763,0.00521750096231699,0.207122802734375,0.3700471520423889,0.14674237370491028,-9.778571128845215
1745651879.100092,-0.01675787940621376,-0.006094134412705898,0.20583538711071014,0.39855140447616577,0.28415927290916443,-9.600334167480469
1745651879.1027343,0.0017775032902136445,-0.0016581667587161064,0.20510831475257874,0.343316912651062,0.19123779237270355,-9.781841278076172
1745651879.1035292,-0.010588333941996098,0.004464966710656881,0.2095962017774582,0.46554404497146606,0.27579164505004883,-9.880452156066895
1745651879.1093025,-0.0023330501280725002,-0.002701544901356101,0.20413944125175476,0.29119426012039185,0.27033931016921997,-9.781978607177734
1745651879.1386368,-0.005026663187891245,-0.002483935561031103,0.20638220012187958,0.5200163125991821,0.08953934907913208,-9.646383285522461
1745651879.1462219,0.0006402338040061295,-0.0015979965683072805,0.2073313444852829,0.3123502731323242,0.3858228325843811,-9.8048095703125
1745651879.1488502,-0.007787709124386311,0.0018793873023241758,0.20538237690925598,0.3408786654472351,0.048421699553728104,-9.902669906616211
1745651879.1502595,-0.0034690513275563717,-0.004435103852301836,0.2061677724123001,0.4540044665336609,0.30107006430625916,-9.622025489807129
1745651879.1537552,-0.007072379346936941,0.0002613237011246383,0.2042533904314041,0.36993542313575745,0.09967847168445587,-9.749551773071289
1745651879.185924,-0.010581327602267265,-0.005052539985626936,0.2065296620130539,0.44837135076522827,0.200089693069458,-9.874007225036621
1745651879.1859794,-0.009446334093809128,0.0013440236216410995,0.20505893230438232,0.24579067528247833,0.21318121254444122,-9.834158897399902
1745651879.1890526,-0.006735804490745068,-0.0013221781700849533,0.206288143992424,0.5097099542617798,0.13143539428710938,-9.593820571899414
1745651879.1940062,-0.015151342377066612,-0.006147524807602167,0.20426055788993835,0.35817909240722656,0.3468765318393707,-9.7765474319458
1745651879.2248812,-0.008451296016573906,-0.0018505845218896866,0.20480188727378845,0.3874809741973877,0.09020999073982239,-9.994462966918945
1745651879.228641,-0.007966512814164162,-0.0013561733067035675,0.20496249198913574,0.36663004755973816,0.38203951716423035,-9.63797378540039
1745651879.2322717,-0.006734536495059729,-0.0003152322897221893,0.20566490292549133,0.34549427032470703,0.10142439603805542,-9.62472152709961
1745651879.2362864,-0.008425377309322357,-0.009441631846129894,0.20440605282783508,0.5266373753547668,0.3442973792552948,-9.795389175415039
1745651879.2389238,-0.0010521445656195283,-0.002051260322332382,0.2052336186170578,0.271761417388916,0.2262406349182129,-10.059172630310059
1745651879.27206,0.0009567475062794983,0.003281781915575266,0.20342949032783508,0.4946589469909668,0.23008975386619568,-9.58664608001709
1745651879.2772992,-0.0028788642957806587,-0.0060999649576842785,0.20440766215324402,0.28428417444229126,0.28731992840766907,-9.572175025939941
1745651879.277449,-0.0028371852822601795,-0.003708628937602043,0.20423021912574768,0.5064144134521484,0.10016609728336334,-9.819064140319824
1745651879.2774992,0.006512106861919165,-0.0008467579027637839,0.2059008628129959,0.3809381425380707,0.3581358790397644,-9.982839584350586
1745651879.3093617,-0.0046065510250627995,0.0013781350571662188,0.20456013083457947,0.27538320422172546,0.19998721778392792,-9.763778686523438
1745651879.3130357,-0.0008497688686475158,-0.010804595425724983,0.20360532402992249,0.5133684277534485,0.09038560092449188,-9.460321426391602
1745651879.3181624,-0.0071028778329491615,-0.010959405452013016,0.2039811909198761,0.36889103055000305,0.15636467933654785,-9.654923439025879
1745651879.3211246,0.011145951226353645,0.0010262569412589073,0.20521795749664307,0.38838228583335876,0.23137006163597107,-9.996569633483887
1745651879.3538854,-0.009672023355960846,-0.004281441681087017,0.20404545962810516,0.3924596309661865,0.19885262846946716,-9.893835067749023
1745651879.3558328,0.0066707925871014595,0.0009248804417438805,0.204585000872612,0.3333229720592499,0.1378069818019867,-9.56091022491455
1745651879.3588288,-0.01825757697224617,-0.0063532209023833275,0.2053309977054596,0.49425673484802246,0.16926255822181702,-9.65002727508545
1745651879.36204,0.0017861092928797007,-0.004682275466620922,0.20473451912403107,0.2897931933403015,0.2297227680683136,-10.065176010131836
1745651879.3988879,-0.012546810321509838,0.0038288533687591553,0.20543590188026428,0.44064465165138245,0.1848582774400711,-9.864500045776367
1745651879.4042966,-0.005479826126247644,-0.007492796517908573,0.20368163287639618,0.29134541749954224,0.20985524356365204,-9.539277076721191
1745651879.4080305,-0.0072202300652861595,0.00019451454863883555,0.2050638496875763,0.3960621953010559,0.23039638996124268,-9.669684410095215
1745651879.4107494,-0.007926269434392452,-0.005271910689771175,0.20466384291648865,0.3686070740222931,0.30798405408859253,-9.99303150177002
1745651879.4150114,0.004180114716291428,0.0051179188303649426,0.20487213134765625,0.30544131994247437,0.27985310554504395,-9.858238220214844
1745651879.4434814,-0.00453047314658761,-0.003647316712886095,0.206541508436203,0.4530717432498932,0.20780186355113983,-9.565771102905273
1745651879.4435306,0.009670312516391277,-0.0008660195162519813,0.20095300674438477,0.29124873876571655,0.3037583827972412,-9.731132507324219
1745651879.4451377,-0.00706695020198822,0.0017432604217901826,0.20612725615501404,0.4145372807979584,0.11849947273731232,-10.0241060256958
1745651879.447115,0.01547157485038042,-0.00295681762509048,0.20532655715942383,0.3448518216609955,0.3002527952194214,-9.741386413574219
1745651879.4822767,-0.002069043694064021,0.005865742452442646,0.20664095878601074,0.4477390646934509,0.08544860780239105,-9.635552406311035
1745651879.4846382,-0.00010739798017311841,-0.008155950345098972,0.20450608432292938,0.37903574109077454,0.320866197347641,-9.820500373840332
1745651879.4880338,0.005843161139637232,0.004764096345752478,0.20476511120796204,0.3432304859161377,0.10913693904876709,-9.947760581970215
1745651879.489743,-0.007463139481842518,-0.00044498982606455684,0.20494654774665833,0.42746567726135254,0.24180202186107635,-9.682873725891113
1745651879.4909403,0.0003480183077044785,-0.0004109329602215439,0.20438313484191895,0.32856714725494385,0.12876226007938385,-9.700727462768555
1745651879.5266297,-0.009551528841257095,-0.004414357244968414,0.20298555493354797,0.49266424775123596,0.16200827062129974,-9.858025550842285
1745651879.5278502,-0.0051027145236730576,-0.003136279061436653,0.20696406066417694,0.2214215248823166,0.24484339356422424,-9.973386764526367
1745651879.5308926,-0.003971216268837452,0.003320195246487856,0.20508161187171936,0.43376389145851135,0.1654699742794037,-9.623583793640137
1745651879.5672157,-0.005751189775764942,-0.002596700331196189,0.20373663306236267,0.3484158217906952,0.33182719349861145,-9.873382568359375
1745651879.570991,0.008075444027781487,0.005684607662260532,0.20433859527111053,0.2668931484222412,0.1844480186700821,-9.597452163696289
1745651879.5725615,-0.008399145677685738,-0.003916980233043432,0.20500071346759796,0.5323200225830078,0.2661515176296234,-9.617807388305664
1745651879.575215,0.006656302604824305,-0.006361645646393299,0.20384791493415833,0.279246062040329,0.22374515235424042,-10.081872940063477
1745651879.5767808,0.003802772145718336,0.010493684560060501,0.20168514549732208,0.41573935747146606,0.2210342139005661,-9.817113876342773
1745651879.6121166,-0.00044736237032338977,-0.0028515637386590242,0.20500080287456512,0.2829597592353821,0.2281114161014557,-9.525548934936523
1745651879.6133604,0.0029611140489578247,-0.0014741361374035478,0.2021547257900238,0.4793791174888611,0.14215420186519623,-9.64312744140625
1745651879.616273,-0.0017917759250849485,-0.003112581791356206,0.2037084549665451,0.4391786456108093,0.27217134833335876,-10.102093696594238
1745651879.6194499,0.004472401924431324,0.00466326717287302,0.2012910544872284,0.1881352961063385,0.2046077996492386,-10.00653076171875
1745651879.653703,-0.0018064618343487382,-0.002842141781002283,0.20193740725517273,0.4541262686252594,0.12258124351501465,-9.403665542602539
1745651879.6559174,0.001431356417015195,-0.0019706161692738533,0.20345494151115417,0.29278022050857544,0.3023815155029297,-9.626205444335938
1745651879.6571646,-0.007138255052268505,-0.001228249166160822,0.201924130320549,0.4726688861846924,0.08209133893251419,-10.153753280639648
1745651879.65951,0.0030150797683745623,-0.004197804257273674,0.2021264284849167,0.2905806601047516,0.3728472888469696,-9.916898727416992
1745651879.6618507,-0.010340159758925438,-0.01080618891865015,0.1977732628583908,0.4601143002510071,0.13603900372982025,-9.781987190246582
1745651879.697891,0.012072103098034859,-0.00716057326644659,0.19808810949325562,0.25314635038375854,0.24239587783813477,-9.912479400634766
1745651879.699538,-0.012343480251729488,-0.0025091893039643764,0.19671551883220673,0.4271191954612732,0.0926646739244461,-9.746745109558105
1745651879.7022593,0.004284565337002277,-0.01006793137639761,0.19990360736846924,0.34880331158638,0.17302504181861877,-9.635177612304688
1745651879.7038345,-0.01356275100260973,-0.004868588410317898,0.19961214065551758,0.4564380645751953,0.13867905735969543,-9.829994201660156
1745651879.743449,-0.0072508519515395164,-0.011369461193680763,0.19783225655555725,0.2820506691932678,0.22249045968055725,-9.97304630279541
1745651879.7539468,-0.006172815803438425,-0.0010456647723913193,0.19643819332122803,0.31374266743659973,0.14765565097332,-9.637953758239746
1745651879.7540457,-0.017683466896414757,-0.006433138158172369,0.19324448704719543,0.5555640459060669,0.3002720773220062,-9.550640106201172
1745651879.7541564,-0.0084282411262393,-0.0138617604970932,0.1945810616016388,0.5398091077804565,0.38577109575271606,-10.029424667358398
1745651879.7542138,-0.004479018971323967,-0.005803847685456276,0.1875208169221878,0.2548180818557739,0.4813259541988373,-10.23423957824707
1745651879.7859814,0.02302045002579689,0.0025414936244487762,0.17998304963111877,0.3821991980075836,0.49941331148147583,-9.242680549621582
1745651879.7913237,0.02320496179163456,-0.005944643635302782,0.17810413241386414,0.5275121927261353,0.4436507225036621,-9.438010215759277
1745651879.7961626,0.02438092604279518,-0.022507403045892715,0.17125356197357178,0.3018549084663391,0.43036413192749023,-10.402841567993164
1745651879.8019433,0.07700853049755096,0.00674920529127121,0.17016169428825378,0.31785765290260315,0.04094190523028374,-10.031042098999023
1745651879.8276315,0.024923549965023994,0.01018914207816124,0.1664210855960846,0.10272444784641266,0.2889203131198883,-9.159552574157715
1745651879.828739,0.04459711164236069,-0.01680666208267212,0.16372866928577423,0.4996943473815918,-0.4122474193572998,-9.354757308959961
1745651879.831476,0.026277566328644753,-0.003923442214727402,0.15963049232959747,0.5807333588600159,0.3535885810852051,-10.312766075134277
1745651879.8339717,0.00558644300326705,0.003965427167713642,0.15464141964912415,0.12942805886268616,-0.31573915481567383,-10.532275199890137
1745651879.8713007,0.009806448593735695,0.00124354159925133,0.14974214136600494,0.5790613889694214,-0.011069047264754772,-8.906213760375977
1745651879.8746855,-0.047713518142700195,-0.012689327821135521,0.1452837437391281,0.39799362421035767,-0.1837919056415558,-9.372873306274414
1745651879.8799427,-0.014486116357147694,-0.00822850689291954,0.14203812181949615,0.6115223169326782,0.14630326628684998,-10.538631439208984
1745651879.8837662,-0.0508793406188488,-0.003891756059601903,0.13953232765197754,0.2527622878551483,0.38858863711357117,-10.349830627441406
1745651879.9134188,0.05669202655553818,0.005375761538743973,0.12454736232757568,0.404561847448349,0.6931281685829163,-10.157757759094238
1745651879.917571,0.04354419186711311,-0.0024054446257650852,0.12139942497015,0.08379250019788742,0.4628898501396179,-9.120100021362305
1745651879.9216745,0.07156803458929062,-0.0101903285831213,0.11771831661462784,0.4558248519897461,0.20637667179107666,-9.251800537109375
1745651879.9242752,0.05807957798242569,-0.01036109309643507,0.11603453010320663,0.42730075120925903,0.3252975344657898,-10.355035781860352
1745651879.9542801,0.0691925436258316,0.008160417899489403,0.11228305101394653,0.2859998643398285,0.0009519547456875443,-10.366377830505371
1745651879.9572022,0.043591391295194626,-0.010175855830311775,0.10915069282054901,0.43947166204452515,0.0725027322769165,-9.059221267700195
1745651879.9603958,0.042483460158109665,-0.005579645745456219,0.1079661101102829,0.32942137122154236,-0.07240109145641327,-9.361567497253418
1745651879.9622602,0.015684902667999268,-0.002459042239934206,0.10316824913024902,0.47559595108032227,0.055709801614284515,-10.392242431640625
1745651879.9639645,0.029445236548781395,-0.006798470858484507,0.10053012520074844,0.27772530913352966,0.03046249970793724,-10.259577751159668
1745651880.0015275,0.021629517897963524,0.005303157027810812,0.10116970539093018,0.2746434211730957,0.07369033247232437,-9.205941200256348
1745651880.0033758,0.015916649252176285,-0.009471569210290909,0.09836913645267487,0.23093661665916443,0.2965478003025055,-9.329717636108398
1745651880.0045514,0.031229272484779358,-0.005627579055726528,0.09666053205728531,0.37953633069992065,0.16537488996982574,-10.306041717529297
1745651880.008357,0.037803541868925095,0.0016462880885228515,0.09462033212184906,0.3994677662849426,0.3569674491882324,-10.217369079589844
1745651880.0439641,0.06687066704034805,0.0023050333838909864,0.03381640464067459,0.2384941577911377,0.2659115493297577,-9.976877212524414
1745651880.0474637,0.06803864240646362,-0.00037364783929660916,0.03252323344349861,0.4120951294898987,0.07400350272655487,-9.766035079956055
1745651880.0509632,0.08170618116855621,0.0013972005108371377,0.031591907143592834,0.24416589736938477,0.24136333167552948,-9.578492164611816
1745651880.0554225,0.07659732550382614,0.005509546026587486,0.029014568775892258,0.45192432403564453,-0.023809244856238365,-9.786959648132324
1745651880.0882666,0.08295910060405731,-0.004855533130466938,0.02712981402873993,0.4387573301792145,0.17220726609230042,-9.936415672302246
1745651880.0914683,0.0817103385925293,0.006968169007450342,0.025041159242391586,0.32269150018692017,-0.0776301771402359,-9.969024658203125
1745651880.0933032,0.07150208950042725,-0.0029114389326423407,0.02326345443725586,0.49980077147483826,-0.021074891090393066,-9.598057746887207
1745651880.0952187,0.08062433451414108,0.0013656452065333724,0.020486358553171158,0.2976536154747009,-0.006461828947067261,-9.711954116821289
1745651880.1269784,0.07353202998638153,-0.0014172918163239956,0.019004320725798607,0.4721412658691406,0.01715436391532421,-9.91231632232666
1745651880.1282506,0.06979580968618393,-0.00031751999631524086,0.019392207264900208,0.2796814739704132,-0.003699785564094782,-9.82367992401123
1745651880.1372797,0.07680272310972214,0.0031076932791620493,0.017599141225218773,0.3615288734436035,-0.07621326297521591,-9.619157791137695
1745651880.137355,0.0677754282951355,-0.004151595756411552,0.01626989245414734,0.2892860770225525,0.02063271775841713,-9.719259262084961
1745651880.1402168,0.0846589058637619,0.002845590468496084,0.015998614951968193,0.3294752538204193,-0.04564967006444931,-9.953197479248047
1745651880.1722517,0.06890790909528732,-0.0034411412198096514,0.014556139707565308,0.3562530279159546,0.018519312143325806,-9.858678817749023
1745651880.1753902,0.0952298641204834,0.0044983127154409885,0.013455276377499104,0.28179529309272766,-0.025375818833708763,-9.586185455322266
1745651880.1797523,0.06142444163560867,0.0048098075203597546,0.010768766514956951,0.40459567308425903,-0.043634671717882156,-9.608105659484863
1745651880.184442,0.08574453741312027,-0.0037632156163454056,0.009299306198954582,0.32684192061424255,-0.08586669713258743,-9.910821914672852
1745651880.215039,0.06877858936786652,0.005396456923335791,0.009132595732808113,0.46277540922164917,0.002075193915516138,-9.84309196472168
1745651880.2178733,0.06191255897283554,0.0008734998991712928,0.004767961800098419,0.28290605545043945,-0.136469304561615,-9.83913516998291
1745651880.2228045,0.0770263746380806,0.0003000781580340117,0.006320240441709757,0.3814162611961365,-0.050701357424259186,-9.639257431030273
1745651880.2300372,0.058846067637205124,-0.0030662138015031815,0.004739162512123585,0.42950621247291565,0.002790108323097229,-9.76524543762207
1745651880.230185,0.07732944190502167,0.005733936559408903,0.0012541040778160095,0.25796979665756226,-0.02906157448887825,-9.960847854614258
1745651880.2584448,0.0654306560754776,-0.003357245121151209,0.0026940787211060524,0.4612042307853699,-0.048255376517772675,-9.666360855102539
1745651880.2603135,0.07115451991558075,0.007318940944969654,-0.002138559240847826,0.4242054522037506,-0.12872804701328278,-9.766534805297852
1745651880.2625155,0.07710843533277512,-0.006929796189069748,-0.005074827000498772,0.3052399754524231,-0.15483613312244415,-9.7664213180542
1745651880.2636087,0.07673089951276779,0.0017403177917003632,-0.006138357799500227,0.37758123874664307,-0.08499281853437424,-9.690747261047363
1745651880.3025076,0.06103477627038956,-0.0016526717226952314,-0.006598394364118576,0.4537905752658844,-0.13676601648330688,-9.816429138183594
1745651880.3025844,0.07247036695480347,-0.0023923988919705153,-0.011509494855999947,0.2674253582954407,-0.12024301290512085,-9.799497604370117
1745651880.3031852,0.05586295574903488,-0.0016619320958852768,-0.008983190171420574,0.41548842191696167,-0.1746618151664734,-9.665419578552246
1745651880.306721,0.062363170087337494,-0.0014454306801781058,-0.01128576509654522,0.2451189011335373,0.04894201084971428,-9.83773136138916
1745651880.3088865,0.06948889791965485,-0.0013930469285696745,-0.012205883860588074,0.3527512550354004,-0.2115333527326584,-9.826725959777832
1745651880.344661,0.07107791304588318,-2.1979747543809935e-05,-0.014851724728941917,0.3205418586730957,0.11617454141378403,-9.665197372436523
1745651880.3475251,0.06784312427043915,0.002164559904485941,-0.013913634233176708,0.30087777972221375,-0.1856430619955063,-9.793313980102539
1745651880.3514938,0.0818697065114975,-0.005456609185785055,-0.014054161496460438,0.4419972896575928,-0.08271081745624542,-9.710046768188477
1745651880.356399,0.06813090294599533,0.005000502802431583,-0.01808779500424862,0.22736582159996033,-0.08337835967540741,-9.868844985961914
1745651880.386612,0.06810639798641205,-0.003038254100829363,-0.015863021835684776,0.47635918855667114,-0.35699352622032166,-9.782567977905273
1745651880.3959463,0.033136192709207535,0.0013471065321937203,-0.043885957449674606,0.2831180691719055,-0.12691795825958252,-9.740636825561523
1745651880.3960078,0.035071082413196564,0.0030644326470792294,-0.04392227903008461,0.37939757108688354,-0.4593775272369385,-9.741076469421387
1745651880.4001348,0.03360592573881149,-4.651332346838899e-05,-0.044110577553510666,0.3831736147403717,-0.1285373866558075,-9.735555648803711
1745651880.4319503,0.016582444310188293,0.004503345582634211,-0.048010777682065964,0.2711486518383026,-0.37274736166000366,-9.918148040771484
1745651880.434807,0.028101403266191483,-0.002856434788554907,-0.04670840501785278,0.4892038404941559,-0.31020689010620117,-9.742704391479492
1745651880.4388428,0.011565067805349827,0.00377083127386868,-0.04765506833791733,0.20735402405261993,-0.16038422286510468,-9.776416778564453
1745651880.438902,0.012461168691515923,0.00010057305917143822,-0.04836329072713852,0.43627220392227173,-0.42830386757850647,-9.793920516967773
1745651880.4742177,0.01646639034152031,-0.0016045600641518831,-0.04947826266288757,0.3168199956417084,-0.0522281751036644,-9.760332107543945
1745651880.4765933,0.01358705572783947,0.003191562369465828,-0.04710239917039871,0.3636876940727234,-0.3930598795413971,-9.869453430175781
1745651880.4783227,0.014093324542045593,-0.002905904082581401,-0.050615012645721436,0.343911349773407,-0.02836666628718376,-9.711282730102539
1745651880.4810357,0.0257725827395916,0.005479350220412016,-0.047450095415115356,0.273468017578125,-0.29932862520217896,-9.757349014282227
1745651880.4826107,0.02117113396525383,-0.0014871524181216955,-0.05005812644958496,0.45448899269104004,-0.06988780200481415,-9.68614673614502
1745651880.5176861,0.017301803454756737,0.001204205211251974,-0.050323087722063065,0.22315172851085663,-0.2767125964164734,-9.950301170349121
1745651880.5216107,0.026146933436393738,0.0013472139835357666,-0.05269734933972359,0.4359266757965088,-0.2909090518951416,-9.721230506896973
1745651880.52447,0.017808178439736366,0.0039491187781095505,-0.051567502319812775,0.28279542922973633,-0.15029488503932953,-9.722299575805664
1745651880.5271049,0.016055718064308167,0.0012702873209491372,-0.05268891900777817,0.3931732773780823,-0.39055532217025757,-9.842714309692383
1745651880.5608795,0.016846563667058945,-0.0011852426687255502,-0.05429576709866524,0.3387945592403412,-0.18659362196922302,-9.788923263549805
1745651880.5609815,0.012064287438988686,0.009238448925316334,-0.055876124650239944,0.358610600233078,-0.2495444118976593,-9.662211418151855
1745651880.5610476,0.002411315683275461,-0.0024887043982744217,-0.05284356325864792,0.3490062952041626,-0.37293654680252075,-9.785451889038086
1745651880.5620449,0.01946759596467018,0.003458388615399599,-0.05375819280743599,0.2694973349571228,-0.13325414061546326,-9.823158264160156
1745651880.5646129,-0.0057681952603161335,0.0021105208434164524,-0.05305905267596245,0.45105934143066406,-0.4096185266971588,-9.818666458129883
1745651880.6033218,0.02209547720849514,0.00029190274653956294,-0.05378856509923935,0.20352022349834442,-0.13116677105426788,-9.853824615478516
1745651880.6048136,0.009144914336502552,0.005066804587841034,-0.05359087511897087,0.29975539445877075,-0.20362162590026855,-9.760456085205078
1745651880.6067224,-0.005635128356516361,0.001457540667615831,-0.056184686720371246,0.423435777425766,-0.37743130326271057,-9.785297393798828
1745651880.6439328,0.0072480677627027035,-0.004390542395412922,-0.05567576363682747,0.310194730758667,-0.09449899196624756,-9.785211563110352
1745651880.6473403,-0.004731778521090746,0.006992071866989136,-0.05419463664293289,0.4250657558441162,-0.3472415506839752,-9.851263046264648
1745651880.6494832,0.01414044015109539,-0.0027412809431552887,-0.056122057139873505,0.2593971788883209,-0.039652109146118164,-9.715721130371094
1745651880.653104,0.0027988289948552847,0.0011472448240965605,-0.05579855293035507,0.39268502593040466,-0.33558914065361023,-9.631941795349121
1745651880.657117,0.008997549302875996,0.0019456406589597464,-0.05343696475028992,0.3330371081829071,-0.09581462293863297,-9.764142036437988
1745651880.6868966,0.006014673970639706,0.0035232293885201216,-0.055203527212142944,0.2610151469707489,-0.3279360234737396,-9.973701477050781
1745651880.688949,0.009650292806327343,-0.0009825072484090924,-0.05538202077150345,0.44162464141845703,-0.24155321717262268,-9.728230476379395
1745651880.6939876,0.008670389652252197,0.008342383429408073,-0.05563410371541977,0.21716508269309998,-0.2256474494934082,-9.743450164794922
1745651880.6975946,0.00920441560447216,-0.00224667857401073,-0.05640850588679314,0.4457436203956604,-0.34857994318008423,-9.712568283081055
1745651880.729579,0.0010723971063271165,-0.0008189514046534896,-0.05723197013139725,0.31566834449768066,-0.13577555119991302,-9.781614303588867
1745651880.7324524,-0.0016916418680921197,0.009707394987344742,-0.05682053416967392,0.377078115940094,-0.4520345628261566,-9.8723726272583
1745651880.7386127,-0.005278534255921841,-0.0060353511944413185,-0.0549062080681324,0.33854958415031433,-0.18098175525665283,-9.677545547485352
1745651880.7386782,0.0004892917349934578,-0.0031770621426403522,-0.05748571828007698,0.33276334404945374,-0.3929356336593628,-9.942903518676758
1745651880.7397013,-0.003811201546341181,6.140768527984619e-05,-0.05918407440185547,0.47671905159950256,-0.11869092285633087,-9.750516891479492
1745651880.7825587,-0.008111661300063133,0.0032808359246701,-0.05778457969427109,0.17310234904289246,-0.3569456934928894,-9.87061882019043
1745651880.7905557,-6.529055826831609e-05,-0.00765382032841444,-0.05947460979223251,0.4535689353942871,-0.24406835436820984,-9.675745010375977
1745651880.790611,-0.0039149085059762,0.00027838550158776343,-0.059989720582962036,0.30340835452079773,-0.03069416806101799,-9.756120681762695
1745651880.794805,-0.013229137286543846,0.0038488127756863832,-0.058569978922605515,0.31700626015663147,-0.41836047172546387,-9.89209270477295
1745651880.815781,0.00030990681261755526,-0.009128326550126076,-0.05917586013674736,0.374692440032959,-0.10094765573740005,-9.607959747314453
1745651880.8202915,-0.009084606543183327,0.006182210985571146,-0.06093848496675491,0.3536449074745178,-0.2994244694709778,-9.792795181274414
1745651880.8237612,-0.014603598043322563,-0.006369357462972403,-0.05909508466720581,0.32822492718696594,-0.2768610119819641,-10.010469436645508
1745651880.8276217,0.00422701146453619,-0.0011846227571368217,-0.05737489461898804,0.3244803547859192,-0.22700273990631104,-9.783483505249023
1745651880.862464,-0.019364554435014725,-0.0023821110371500254,-0.05883020907640457,0.4504452347755432,-0.2515600323677063,-9.61526107788086
1745651880.8645449,-0.005917808506637812,-0.00524895079433918,-0.05906355381011963,0.2272024154663086,-0.2570191025733948,-9.797032356262207
1745651880.8677876,-0.0116396090015769,-0.003575105918571353,-0.05605888366699219,0.49161791801452637,-0.2965587377548218,-9.775583267211914
1745651880.8709202,-0.018978765234351158,-0.0017861330416053534,-0.05846310779452324,0.29346150159835815,-0.12164995819330215,-9.829188346862793
1745651880.903398,-0.012959092855453491,-0.0017240727320313454,-0.05917287990450859,0.333076536655426,-0.3552655279636383,-9.815096855163574
1745651880.9070587,-0.015702685341238976,-0.005079222377389669,-0.060867518186569214,0.39879459142684937,-0.10319362580776215,-9.64277458190918
1745651880.909547,-0.013081109151244164,0.0030380450189113617,-0.060099221765995026,0.2736782729625702,-0.2667427659034729,-9.831369400024414
1745651880.9108255,-0.016144584864377975,-0.008227488026022911,-0.06007988378405571,0.47049480676651,-0.23153376579284668,-9.758682250976562
1745651880.914702,-0.01146228052675724,0.004985748790204525,-0.059047043323516846,0.2728663682937622,-0.20029206573963165,-9.740951538085938
1745651880.9471016,-0.019495174288749695,-0.000998367671854794,-0.05874466896057129,0.38961073756217957,-0.300940603017807,-9.807108879089355
1745651880.9492948,-0.004821042530238628,-0.007190484553575516,-0.05854787677526474,0.2686593234539032,-0.09464903920888901,-9.800225257873535
1745651880.9536219,-0.025547051802277565,-0.0015768862795084715,-0.05836452916264534,0.2558663487434387,-0.31789010763168335,-9.845479011535645
1745651880.9565856,-0.009873742237687111,0.0004545755800791085,-0.05899852514266968,0.4396169185638428,-0.21519812941551208,-9.717191696166992
1745651880.990468,-0.029485385864973068,-0.005694539751857519,-0.05813204124569893,0.3256462514400482,-0.15657958388328552,-9.771001815795898
1745651880.9949315,-0.011445132084190845,0.006086436100304127,-0.05877351760864258,0.2926923334598541,-0.3063610792160034,-9.832412719726562
1745651881.0004296,-0.02762252651154995,-0.005985293071717024,-0.05810488387942314,0.39133206009864807,-0.12668552994728088,-9.710014343261719
1745651881.003667,-0.012835899367928505,-0.0029358279425650835,-0.05825731158256531,0.30574384331703186,-0.32114338874816895,-9.809463500976562
1745651881.0315173,-0.026078980416059494,0.004246905446052551,-0.057742923498153687,0.43867507576942444,-0.1676912009716034,-9.817575454711914
1745651881.0320418,-0.01700310781598091,-0.006164747755974531,-0.057097095996141434,0.2653774321079254,-0.21129365265369415,-9.846065521240234
1745651881.0432172,-0.012776346877217293,0.0030810548923909664,-0.059461407363414764,0.48131051659584045,-0.16957688331604004,-9.589805603027344
1745651881.0433497,-0.03202583268284798,-0.0005897745722904801,-0.057258494198322296,0.25971201062202454,-0.13658826053142548,-9.789924621582031
1745651881.0434265,-0.01595500484108925,-0.0005534066003747284,-0.058953769505023956,0.40807151794433594,-0.39323413372039795,-9.893869400024414
1745651881.0744605,-0.02547135390341282,-0.00033017731038853526,-0.05712174251675606,0.4212292730808258,-0.05242317169904709,-9.716324806213379
1745651881.0784574,-0.0237265732139349,0.008014321327209473,-0.05992046743631363,0.14210502803325653,-0.284688800573349,-9.892892837524414
1745651881.081318,-0.02221730910241604,-0.005384358577430248,-0.05830147862434387,0.4963019788265228,-0.1612364947795868,-9.556907653808594
1745651881.0851264,-0.045198261737823486,-0.0033491812646389008,-0.060830824077129364,0.41444993019104004,-0.08047624677419662,-9.873973846435547
1745651881.1211903,-0.036758504807949066,-0.0039357892237603664,-0.060728251934051514,0.304817259311676,-0.18390235304832458,-9.822393417358398
1745651881.1243532,-0.04129158705472946,0.0005471486365422606,-0.060774028301239014,0.5233299732208252,-0.0984475389122963,-9.59441089630127
1745651881.127663,-0.0503770187497139,-0.0039437939412891865,-0.06033062934875488,0.1781875640153885,-0.011471402831375599,-9.877275466918945
1745651881.1313276,-0.03652145341038704,-0.0036618628073483706,-0.06244822219014168,0.4715579152107239,-0.2688407003879547,-9.847726821899414
1745651881.1616385,-0.03775676339864731,-0.003178421873599291,-0.06151244789361954,0.37285733222961426,0.13601060211658478,-9.685030937194824
1745651881.1637769,-0.03857748955488205,-0.00046844518510624766,-0.06358826905488968,0.23445110023021698,-0.2896784245967865,-9.853050231933594
1745651881.1654353,-0.036597467958927155,-0.009078582748770714,-0.061543356627225876,0.42783594131469727,-0.03791048377752304,-9.62193775177002
1745651881.169101,-0.03623785823583603,0.003436803352087736,-0.0626325011253357,0.25098884105682373,-0.07347677648067474,-9.840178489685059
1745651881.202615,-0.04244139790534973,-0.006093897391110659,-0.062310922890901566,0.4234057366847992,-0.16024073958396912,-9.889034271240234
1745651881.2061157,-0.033092107623815536,-0.010162814520299435,-0.06329896301031113,0.28765231370925903,-0.0642615258693695,-9.779010772705078
1745651881.2075324,-0.03183517977595329,0.0016197285149246454,-0.06279237568378448,0.44601669907569885,-0.13724082708358765,-9.712553024291992
1745651881.2100449,-0.04327933117747307,-0.011082707904279232,-0.06365103274583817,0.26850444078445435,-0.05029572919011116,-9.824113845825195
1745651881.2213173,-0.02976154163479805,-0.007188410498201847,-0.06377868354320526,0.3867838382720947,-0.2473469078540802,-9.771021842956543
1745651881.2508016,-0.04170078784227371,-0.003653955878689885,-0.06304533034563065,0.41458043456077576,0.09970303624868393,-9.724119186401367
1745651881.2519395,-0.04423278942704201,-0.007507708854973316,-0.06335331499576569,0.17821228504180908,-0.2489168643951416,-9.978377342224121
1745651881.2541294,-0.029454028233885765,-0.009709043428301811,-0.06407414376735687,0.5312297940254211,-0.06744016706943512,-9.617914199829102
1745651881.2561207,-0.04312959313392639,-0.004776064306497574,-0.06482026726007462,0.21696767210960388,0.03627798333764076,-9.815760612487793
1745651881.2926168,-0.033690668642520905,-0.010879836045205593,-0.06456810235977173,0.40939003229141235,-0.20555272698402405,-9.886582374572754
1745651881.2926939,-0.028234083205461502,-0.008503939025104046,-0.06564751267433167,0.3378637135028839,0.10365834087133408,-9.687664985656738
1745651881.2964756,-0.03623628988862038,-0.0027184910140931606,-0.06534451246261597,0.33402690291404724,-0.14711090922355652,-9.816086769104004
1745651881.2987378,-0.031135816127061844,-0.017103374004364014,-0.06442482769489288,0.4371723532676697,0.014091476798057556,-9.750612258911133
1745651881.3019419,-0.029281508177518845,-0.01044903788715601,-0.0688016414642334,0.35891443490982056,0.1033908948302269,-9.72730827331543
1745651881.336351,-0.01656089350581169,-0.009149969555437565,-0.06766852736473083,0.29462796449661255,-0.18085011839866638,-9.917263984680176
1745651881.3395078,-0.01065133698284626,-0.009202210232615471,-0.06949055194854736,0.4515555500984192,0.1495412439107895,-9.694764137268066
1745651881.3429663,-0.027147900313138962,-0.007369411643594503,-0.06898676604032516,0.18940915167331696,-0.20345962047576904,-9.801004409790039
1745651881.3449838,-0.005274513736367226,-0.010805608704686165,-0.068163201212883,0.4666922986507416,-0.06499830633401871,-9.660765647888184
1745651881.375951,-0.02270207367837429,-0.011388657614588737,-0.06823300570249557,0.2719449996948242,0.08768603205680847,-9.850737571716309
1745651881.377551,-0.016208145767450333,-0.006838964764028788,-0.0698164850473404,0.3384060263633728,-0.2728089392185211,-10.014350891113281
1745651881.3864508,-0.007631433662027121,-0.014101888053119183,-0.07048821449279785,0.32967665791511536,0.19569461047649384,-9.659622192382812
1745651881.3865147,-0.015900440514087677,-0.007178553845733404,-0.07012690603733063,0.3101910352706909,-0.1834893524646759,-9.689383506774902
1745651881.3901465,-0.013542816042900085,-0.012198430486023426,-0.06972964107990265,0.38380715250968933,0.04418988898396492,-9.830118179321289
1745651881.4203458,-0.010273242369294167,-0.01055130921304226,-0.07338844239711761,0.27237996459007263,-0.08891963958740234,-9.912043571472168
1745651881.4236562,-0.011290234513580799,-0.00995625276118517,-0.06934430450201035,0.47636866569519043,-0.051761776208877563,-9.625895500183105
1745651881.4269085,-0.013269779272377491,-0.00841519795358181,-0.06922442466020584,0.1846221685409546,0.01621645875275135,-9.813111305236816
1745651881.4315834,-0.008497151546180248,-0.01181790791451931,-0.06880158185958862,0.4437882900238037,-0.11909723281860352,-9.835251808166504
1745651881.4663768,0.017932726070284843,0.0008997496333904564,-0.08195872604846954,0.3692488670349121,-0.23566028475761414,-9.863316535949707
1745651881.4713807,0.026879390701651573,-0.007788126822561026,-0.08005426824092865,0.23627963662147522,0.022433068603277206,-9.788763046264648
1745651881.4761996,0.0327579528093338,-0.0005488867172971368,-0.0817885547876358,0.3717844784259796,-0.10178816318511963,-9.682014465332031
1745651881.4809632,0.01857171021401882,-0.0030875643715262413,-0.08246190845966339,0.32058513164520264,0.014144119806587696,-9.786026954650879
1745651881.5056698,0.033490147441625595,-0.0025948025286197662,-0.08367215096950531,0.25926297903060913,-0.12235487997531891,-9.839556694030762
1745651881.50983,0.02837834693491459,-0.0024996332358568907,-0.08407283574342728,0.4666581153869629,-0.025685936212539673,-9.598859786987305
1745651881.513864,0.024577325209975243,0.0022168122231960297,-0.08373173326253891,0.1421317160129547,-0.04521336406469345,-9.8642578125
1745651881.517426,0.029425572603940964,-0.005284224636852741,-0.08292719721794128,0.45793622732162476,-0.18493300676345825,-9.785771369934082
1745651881.5510125,0.03343908116221428,-0.0018815118819475174,-0.0837540477514267,0.325547993183136,0.11567157506942749,-9.745688438415527
1745651881.5512075,0.03248601406812668,0.0066174170933663845,-0.08579231798648834,0.2696184813976288,-0.21087482571601868,-9.811540603637695
1745651881.5528193,0.03804677352309227,-0.010262536816298962,-0.08613704144954681,0.37787145376205444,0.11657029390335083,-9.582242012023926
1745651881.5580835,0.03538612276315689,0.007562856189906597,-0.08475415408611298,0.3045129179954529,-0.08441866189241409,-9.783427238464355
1745651881.560478,0.03362064063549042,7.597357125632698e-06,-0.08761783689260483,0.29458507895469666,-0.06671981513500214,-9.920855522155762
1745651881.5958164,0.04322757571935654,-0.0015425784513354301,-0.08618505299091339,0.23543348908424377,-0.0522037148475647,-9.759320259094238
1745651881.600335,0.0367707684636116,0.00582903390750289,-0.08668248355388641,0.4209482669830322,-0.13914799690246582,-9.692234992980957
1745651881.604103,0.04287908226251602,-0.0005683669587597251,-0.08659975230693817,0.1849249303340912,0.023264607414603233,-9.84823226928711
1745651881.6079898,0.040191248059272766,0.0025197346694767475,-0.0880623459815979,0.4172636568546295,-0.1458616554737091,-9.728501319885254
1745651881.6352851,0.0378386415541172,5.1878207159461454e-05,-0.08853362500667572,0.3267311155796051,0.002192550804466009,-9.703628540039062
1745651881.6394804,0.04277072101831436,0.005997307598590851,-0.08848442882299423,0.26150235533714294,-0.21017232537269592,-9.834291458129883
1745651881.6427684,0.032139118760824203,-0.005250441376119852,-0.08630095422267914,0.38877639174461365,-0.06585045158863068,-9.753167152404785
1745651881.647512,0.03984644263982773,0.006597885396331549,-0.08666769415140152,0.25380364060401917,-0.15507280826568604,-9.88823127746582
1745651881.6509044,0.0397392213344574,-0.00026008643908426166,-0.08723361045122147,0.36622530221939087,-0.060595203191041946,-9.735801696777344
1745651881.6784172,0.043151259422302246,0.003079849760979414,-0.08787170052528381,0.470458447933197,-0.032580215483903885,-9.624137878417969
1745651881.6809728,0.04191280156373978,0.006393667310476303,-0.08988507091999054,0.2710783779621124,-0.0544750802218914,-9.738153457641602
1745651881.6828787,0.036214713007211685,0.0036641478072851896,-0.08832074701786041,0.38135606050491333,-0.20754018425941467,-9.85911750793457
1745651881.6845515,0.046256374567747116,0.0005549424095079303,-0.0891590416431427,0.3278301954269409,-0.03207274526357651,-9.808638572692871
1745651881.719493,0.0420001819729805,0.012715952470898628,-0.0909748524427414,0.2964714467525482,-0.11967544257640839,-9.812265396118164
1745651881.7232482,0.04584156349301338,-0.0010488285915926099,-0.09010563790798187,0.35744184255599976,-0.1385580599308014,-9.673345565795898
1745651881.7293057,0.049510110169649124,0.008676543831825256,-0.09011419117450714,0.2873194217681885,-0.0405639111995697,-9.695796012878418
1745651881.730609,0.0325380340218544,0.006193068344146013,-0.09078125655651093,0.42381253838539124,-0.19709931313991547,-9.887957572937012
1745651881.7348642,0.059765107929706573,0.008070817217230797,-0.08945304900407791,0.2174653708934784,-0.08641665428876877,-9.855562210083008
1745651881.765986,0.03245534375309944,0.006823621690273285,-0.09211870282888412,0.3721110224723816,-0.2036387026309967,-9.692133903503418
1745651881.7693884,0.04764943942427635,-0.0012151794508099556,-0.08939781785011292,0.3159058690071106,-0.132613867521286,-9.795557022094727
1745651881.774052,0.044785723090171814,0.011045532301068306,-0.08974574506282806,0.35313504934310913,-0.22740213572978973,-9.900943756103516
1745651881.775784,0.03733639419078827,0.0014881074894219637,-0.0924508199095726,0.3186182677745819,-0.07367493212223053,-9.772527694702148
1745651881.8085048,0.040817588567733765,0.004301103763282299,-0.0899062305688858,0.3262091279029846,-0.2939033806324005,-9.670953750610352
1745651881.8115969,0.036655306816101074,0.006462686695158482,-0.09753187000751495,0.3142370581626892,-0.24437709152698517,-9.832043647766113
1745651881.813175,0.01479338388890028,-0.0026125158183276653,-0.09585624933242798,0.4170845150947571,-0.13824865221977234,-9.661064147949219
1745651881.8143868,0.036330197006464005,-0.0005784591194242239,-0.09698255360126495,0.30660125613212585,-0.21544957160949707,-9.798974990844727
1745651881.852135,0.010312633588910103,0.002899471903219819,-0.09650377929210663,0.4423396587371826,-0.19819876551628113,-9.839982986450195
1745651881.8545759,0.03078334406018257,-0.0018030792707577348,-0.09568207710981369,0.2535000741481781,-0.2796178460121155,-9.850456237792969
1745651881.857574,0.013680187985301018,-0.0005775755271315575,-0.0964132696390152,0.3726773262023926,-0.22043564915657043,-9.738447189331055
1745651881.8627493,0.021271225064992905,-0.004115686286240816,-0.09588903188705444,0.3448588252067566,-0.2281951606273651,-9.781991958618164
1745651881.8925648,0.022474300116300583,0.0024450034834444523,-0.09685928374528885,0.3340144157409668,-0.16097944974899292,-9.822766304016113
1745651881.894528,0.009192665107548237,-0.010427122004330158,-0.09739147126674652,0.36560776829719543,-0.19728165864944458,-9.777073860168457
1745651881.8952131,0.02691035531461239,0.00262287980876863,-0.09671945869922638,0.3312101364135742,-0.23468554019927979,-9.67809772491455
1745651881.8982275,0.00730494549497962,-0.002160165458917618,-0.09836146235466003,0.3727971911430359,-0.19848674535751343,-9.821004867553711
1745651881.9004517,0.022415766492486,-0.0068871392868459225,-0.09713555872440338,0.24388304352760315,-0.21941661834716797,-9.880029678344727
1745651881.9380455,0.00906357355415821,-0.0011994816595688462,-0.09523709863424301,0.47748851776123047,-0.3257684111595154,-9.715058326721191
1745651881.9395926,0.013721294701099396,-0.001236533047631383,-0.09810160100460052,0.28761643171310425,-0.0962945967912674,-9.766271591186523
1745651881.9396687,0.011922769248485565,-0.005491040647029877,-0.0968296006321907,0.4040203094482422,-0.32675236463546753,-9.856289863586426
1745651881.9412348,0.009663647040724754,-0.0070315273478627205,-0.09724326431751251,0.3776080012321472,-0.07390241324901581,-9.791032791137695
1745651881.983978,0.014236842282116413,0.0023819790221750736,-0.0973016768693924,0.29287189245224,-0.30672022700309753,-9.78262710571289
1745651881.9842722,0.012608274817466736,-0.00868571363389492,-0.09908890724182129,0.403132826089859,-0.11767800152301788,-9.706195831298828
1745651881.9883873,0.011811673641204834,-0.003933801781386137,-0.09841272979974747,0.2954068183898926,-0.19596850872039795,-9.809260368347168
1745651881.989461,0.007484284229576588,-0.002102371770888567,-0.09735136479139328,0.44846051931381226,-0.27082207798957825,-9.78661823272705
1745651881.9925857,0.014499383047223091,-0.0054289791733026505,-0.09830330312252045,0.21915125846862793,-0.056760549545288086,-9.851189613342285
1745651882.0235255,0.010070296935737133,-0.0006337780505418777,-0.09687312692403793,0.44492799043655396,-0.23079419136047363,-9.708183288574219
1745651882.0262728,-0.0014156743418425322,-0.010969148017466068,-0.09712959825992584,0.26825523376464844,-0.08378805220127106,-9.801796913146973
1745651882.0295773,0.010079213418066502,-0.005240808241069317,-0.09805424511432648,0.3685181736946106,-0.38122329115867615,-9.847782135009766
1745651882.0688455,0.00448752474039793,-0.004464608617126942,-0.09641261398792267,0.36618706583976746,-0.023220369592308998,-9.709100723266602
1745651882.073273,0.0002717032912187278,-0.004967928864061832,-0.0981895923614502,0.2490793913602829,-0.40003377199172974,-9.808260917663574
1745651882.0781722,0.010550761595368385,-0.006242685951292515,-0.09633777290582657,0.4637836515903473,-0.11434559524059296,-9.684957504272461
1745651882.0837774,0.0013885798398405313,-0.0065449862740933895,-0.09795737266540527,0.23655572533607483,-0.14943930506706238,-9.927791595458984
1745651882.0892367,0.012362212873995304,-0.004986859392374754,-0.0973329097032547,0.4510257840156555,-0.2663589417934418,-9.751360893249512
1745651882.1089895,-0.0002505894808564335,-0.00725437980145216,-0.09718900918960571,0.30682700872421265,-0.01764966920018196,-9.666939735412598
1745651882.1130908,0.006525401957333088,-0.003927630838006735,-0.0970996767282486,0.34414786100387573,-0.38436293601989746,-9.884431838989258
1745651882.1188514,0.00537009397521615,-0.010123098269104958,-0.09728235006332397,0.3462955951690674,-0.07459326833486557,-9.75820255279541
1745651882.1227071,0.008524139411747456,0.0028049361426383257,-0.09700840711593628,0.27758872509002686,-0.29774588346481323,-9.822911262512207
1745651882.1509182,0.0025327641051262617,-0.010202968493103981,-0.09725682437419891,0.39171895384788513,-0.11158829927444458,-9.655569076538086
1745651882.1557057,0.010502385906875134,-0.00411792378872633,-0.0996331125497818,0.3129798471927643,-0.24016639590263367,-9.728277206420898
1745651882.1597931,-0.0017415534239262342,-0.00043181198998354375,-0.09749727696180344,0.4275135099887848,-0.15791389346122742,-9.826986312866211
1745651882.1636202,-0.00696753803640604,-0.0031158900819718838,-0.09417567402124405,0.41826504468917847,-0.2633914053440094,-9.771252632141113
1745651882.174326,0.007471480406820774,-0.007611237466335297,-0.09571810066699982,0.2505820393562317,-0.09555264562368393,-9.799772262573242
1745651882.1952882,0.0009248703718185425,-0.0004205044242553413,-0.09718364477157593,0.4257492423057556,-0.23693852126598358,-9.737527847290039
1745651882.1987154,-0.001653224229812622,-0.006402528379112482,-0.09622587263584137,0.2757059633731842,-0.04326146841049194,-9.771415710449219
1745651882.202131,0.0028330166824162006,-0.0016573111061006784,-0.09644319117069244,0.3096490502357483,-0.38250821828842163,-9.839726448059082
1745651882.2056239,0.00693921372294426,-0.008206220343708992,-0.09425611048936844,0.41616901755332947,-0.045030780136585236,-9.679883003234863
1745651882.2358825,0.0005785220419056714,0.002132287248969078,-0.09700865298509598,0.17003081738948822,-0.2633412480354309,-9.884607315063477
1745651882.2372017,0.0037897410802543163,-0.010280216112732887,-0.09617680311203003,0.4836353361606598,-0.2258010357618332,-9.640739440917969
1745651882.2451348,0.00322672538459301,0.0005975784733891487,-0.0974261611700058,0.26532137393951416,-0.07041547447443008,-9.729089736938477
1745651882.245217,-0.004605315160006285,-0.0003698933869600296,-0.09727565199136734,0.37303781509399414,-0.36183497309684753,-9.90109920501709
1745651882.245264,0.009246787056326866,-0.007978687062859535,-0.09607414901256561,0.23941421508789062,-0.06828709691762924,-9.77185344696045
1745651882.2816768,0.0006381000275723636,0.0025734356604516506,-0.09788312017917633,0.33095869421958923,-0.2887038290500641,-9.752009391784668
1745651882.2864213,-0.0006338168168440461,-0.005759078543633223,-0.0966978594660759,0.35686203837394714,-0.1287459433078766,-9.757616996765137
1745651882.2906137,0.009505320340394974,-0.0010278680128976703,-0.09593246877193451,0.2584480345249176,-0.2514103949069977,-9.852946281433105
1745651882.2950552,-0.007151328027248383,-0.00633587222546339,-0.09398622065782547,0.4388678967952728,-0.14934071898460388,-9.692419052124023
1745651882.3258727,0.006400729063898325,0.0016560100484639406,-0.09667249023914337,0.25448116660118103,-0.22412443161010742,-9.763476371765137
1745651882.3276489,-0.005239143036305904,-0.002688964130356908,-0.09554076194763184,0.39640510082244873,-0.1869608461856842,-9.788396835327148
1745651882.337766,0.0002253285638289526,-0.010632620193064213,-0.09519676864147186,0.2816993296146393,-0.17017444968223572,-9.829988479614258
1745651882.3378317,0.0017772555584087968,0.004260083194822073,-0.094478540122509,0.3903759717941284,-0.2740453779697418,-9.770895957946777
1745651882.3657756,-0.006240942981094122,-0.006586316041648388,-0.0959453135728836,0.3035530745983124,-0.08128802478313446,-9.741994857788086
1745651882.3727298,0.0041064051911234856,-0.006135760806500912,-0.09379822760820389,0.32403355836868286,-0.2209237813949585,-9.79832935333252
1745651882.3741083,-0.0017022371757775545,-0.002175279427319765,-0.09398790448904037,0.4357373118400574,-0.09092138707637787,-9.736889839172363
1745651882.379281,0.009906778112053871,0.004646460060030222,-0.09622129797935486,0.3830537497997284,-0.31189316511154175,-9.794733047485352
1745651882.4107516,-0.0008215291309170425,-0.0071287937462329865,-0.09585859626531601,0.33034688234329224,-0.0839398056268692,-9.781768798828125
1745651882.4142575,0.015858782455325127,7.030544657027349e-05,-0.09586476534605026,0.2705368399620056,-0.20872986316680908,-9.75340461730957
1745651882.4185226,-0.006489825900644064,-0.0025746736209839582,-0.09402044117450714,0.380004346370697,-0.21320250630378723,-9.666918754577637
1745651882.4204793,0.013514885678887367,-0.0011748364195227623,-0.09449680149555206,0.2543051838874817,-0.19666822254657745,-9.807268142700195
1745651882.4219334,0.00028706714510917664,-0.000667143554892391,-0.09407030045986176,0.40728625655174255,-0.14008912444114685,-9.815633773803711
1745651882.452604,0.0024563411716371775,-0.006603313144296408,-0.0927390605211258,0.23106427490711212,-0.2559325098991394,-9.903890609741211
1745651882.4573538,0.016758011654019356,0.0005669164238497615,-0.09466631710529327,0.40447893738746643,-0.1599229872226715,-9.665084838867188
1745651882.4619842,-0.008691167458891869,-0.00490331556648016,-0.09254400432109833,0.3288838267326355,-0.21141557395458221,-9.750761985778809
1745651882.465915,0.01601535454392433,-0.0006606342503800988,-0.09413044154644012,0.29462629556655884,-0.22355031967163086,-9.845144271850586
1745651882.5007162,-0.006869559176266193,-0.004743045661598444,-0.09474228322505951,0.4154703617095947,-0.20689494907855988,-9.728306770324707
1745651882.5027013,0.01260897796601057,0.0018977243453264236,-0.09180320054292679,0.2357388287782669,-0.22621317207813263,-9.773085594177246
1745651882.5027366,-0.009189042262732983,-0.002853394253179431,-0.09451879560947418,0.421589195728302,-0.22973290085792542,-9.75049114227295
1745651882.5051663,0.010284138843417168,-0.008937675505876541,-0.09376581013202667,0.29554617404937744,-0.13689842820167542,-9.844195365905762
1745651882.5063503,0.011591632850468159,0.006161282304674387,-0.09118298441171646,0.3581155240535736,-0.237818643450737,-9.648857116699219
1745651882.5413494,-0.008925190195441246,-0.004826108925044537,-0.09128587692975998,0.3471805155277252,-0.14254353940486908,-9.722393989562988
1745651882.544627,0.01110763382166624,0.0001483684463892132,-0.09185775369405746,0.23093107342720032,-0.27527010440826416,-9.912007331848145
1745651882.545746,-0.0022241140250116587,0.0003406956675462425,-0.0913003459572792,0.454639732837677,-0.13161465525627136,-9.678587913513184
1745651882.5488,0.002010844647884369,0.0016515124589204788,-0.09310247004032135,0.19406133890151978,-0.19962455332279205,-9.822150230407715
1745651882.5829968,0.0030013686046004295,0.0013167319120839238,-0.08997869491577148,0.3911636471748352,-0.2144792079925537,-9.755666732788086
1745651882.5875983,-0.0006178067997097969,-0.0035698015708476305,-0.09064257144927979,0.2716183662414551,-0.12071289122104645,-9.807676315307617
1745651882.5909357,0.01107467245310545,0.0073227658867836,-0.0928451269865036,0.34329500794410706,-0.19212496280670166,-9.782498359680176
1745651882.5942507,-0.006818215362727642,-0.00450775446370244,-0.09295564889907837,0.369209349155426,-0.12478570640087128,-9.742471694946289
1745651882.597576,0.01349466759711504,0.0023682117462158203,-0.09168146550655365,0.26464927196502686,-0.2658986449241638,-9.822175979614258
1745651882.6246147,0.0005261663463898003,0.0022810816299170256,-0.09246841818094254,0.4258720278739929,-0.15421949326992035,-9.748929023742676
1745651882.6272686,0.010609781369566917,0.0014074479695409536,-0.09076112508773804,0.15486374497413635,-0.16570572555065155,-9.84051513671875
1745651882.6289337,0.0008752385037951171,0.0021551295649260283,-0.09091593325138092,0.48343759775161743,-0.27506572008132935,-9.617901802062988
1745651882.6308296,0.005327838007360697,-0.0027048077899962664,-0.08989374339580536,0.35725992918014526,-0.0924217700958252,-9.740839004516602
1745651882.6757846,-0.00013852343545295298,0.005570783279836178,-0.09495579451322556,0.2894415259361267,-0.2767113149166107,-10.006958961486816
1745651882.6800263,0.007117667701095343,-0.004598208237439394,-0.09193625301122665,0.3431377410888672,-0.13657815754413605,-9.711267471313477
1745651882.683256,0.008763812482357025,0.004761692136526108,-0.09376305341720581,0.2704311013221741,-0.20518136024475098,-9.660924911499023
1745651882.6864452,-0.0024366688448935747,0.0002527184842620045,-0.09016972780227661,0.3712542653083801,-0.2306169718503952,-9.812474250793457
1745651882.708447,0.012723389081656933,-0.001914051128551364,-0.09209121763706207,0.27189841866493225,-0.14378622174263,-9.877257347106934
1745651882.711163,-0.0004838220775127411,0.0021388325840234756,-0.08938855677843094,0.40707534551620483,-0.2459578812122345,-9.73776912689209
1745651882.7135746,0.008751282468438148,0.001677677733823657,-0.09032591432332993,0.2679874300956726,-0.15219072997570038,-9.691906929016113
1745651882.7151027,0.001586127677001059,-0.0013090933207422495,-0.09030307084321976,0.3759262263774872,-0.26076409220695496,-9.754053115844727
1745651882.716379,0.005157952196896076,-0.0028446130454540253,-0.09183796495199203,0.3454691469669342,-0.18160030245780945,-9.886392593383789
1745651882.754812,0.015233943238854408,0.00264945300295949,-0.09006644785404205,0.29660624265670776,-0.14777128398418427,-9.751791000366211
1745651882.756234,-0.01482662558555603,0.0013597431825473905,-0.09005771577358246,0.41046324372291565,-0.2467765361070633,-9.858906745910645
1745651882.759472,0.019929004833102226,0.0006243609823286533,-0.0910586342215538,0.25517672300338745,-0.1516621857881546,-9.77470588684082
1745651882.7618022,-0.0010370307136327028,0.004097951576113701,-0.09102877229452133,0.4152801036834717,-0.14978905022144318,-9.64991569519043
1745651882.7984307,0.0036474403459578753,-0.004747087135910988,-0.08952739089727402,0.280947208404541,-0.19293513894081116,-9.817370414733887
1745651882.799841,0.009403248317539692,0.005034859292209148,-0.09151508659124374,0.31450486183166504,-0.16319723427295685,-9.847051620483398
1745651882.80156,-0.00129870162345469,-0.0029725772328674793,-0.08905790746212006,0.34452366828918457,-0.19541533291339874,-9.82482624053955
1745651882.804038,0.01048055849969387,0.0034968629479408264,-0.09021496772766113,0.2719140946865082,-0.18710704147815704,-9.736303329467773
1745651882.8381534,0.005897113122045994,0.001096535474061966,-0.09114278107881546,0.4589111804962158,-0.1972995102405548,-9.731230735778809
1745651882.8401785,0.012805745005607605,0.000379830424208194,-0.08963972330093384,0.18116267025470734,-0.05105306953191757,-9.8434476852417
1745651882.8422232,-0.002437843941152096,0.0004406137450132519,-0.0909603163599968,0.4031915068626404,-0.44033461809158325,-9.728105545043945
1745651882.8442256,0.017626838758587837,0.00043900514720007777,-0.09105772525072098,0.30499857664108276,0.01057947613298893,-9.6677827835083
1745651882.8472614,-0.007818704470992088,0.005158732179552317,-0.08989999443292618,0.28254467248916626,-0.36704251170158386,-9.96807861328125
1745651882.8849967,0.01139065157622099,-0.0056372457183897495,-0.09033365547657013,0.22657759487628937,-0.10516093671321869,-9.748578071594238
1745651882.8865433,-0.0012582882773131132,-0.0006984551437199116,-0.08967920392751694,0.3796907961368561,-0.31123411655426025,-9.689408302307129
1745651882.8906336,0.005139141343533993,-0.0020271933171898127,-0.09173573553562164,0.3132631182670593,-0.15307088196277618,-9.759248733520508
1745651882.8934772,0.0002699449541978538,0.0016360830049961805,-0.08999987691640854,0.25612980127334595,-0.20001737773418427,-9.898646354675293
1745651882.9262893,0.0009640053031034768,-0.010436316952109337,-0.08941878378391266,0.37410423159599304,-0.23827943205833435,-9.83383846282959
1745651882.931966,0.01285476703196764,0.002131624612957239,-0.09023429453372955,0.2905634045600891,-0.1026083454489708,-9.703264236450195
1745651882.9353755,-0.01012606080621481,-0.0055796983651816845,-0.08936457335948944,0.388855516910553,-0.303353875875473,-9.800359725952148
1745651882.938566,0.013618506491184235,-0.005985449068248272,-0.09138468652963638,0.27172979712486267,-0.09481506049633026,-9.773163795471191
1745651882.9713764,-0.011127755045890808,-0.0006201161304488778,-0.08977504819631577,0.40180736780166626,-0.3254701793193817,-9.736413955688477
1745651882.975948,0.0026451139710843563,-0.006973591633141041,-0.0895780697464943,0.3038962781429291,-0.11365096271038055,-9.787843704223633
1745651882.9815683,-0.0033082652371376753,-0.0031135007739067078,-0.0892600268125534,0.32229942083358765,-0.22327037155628204,-9.84230899810791
1745651882.9899104,-0.003992876969277859,-0.006794479675590992,-0.09092967957258224,0.3749158978462219,-0.13183531165122986,-9.770082473754883
1745651882.9975157,0.009835143573582172,0.0021764852572232485,-0.09123609215021133,0.29050177335739136,-0.08433838188648224,-9.722074508666992
1745651883.0133853,-0.008998773992061615,-0.009070842526853085,-0.09162405133247375,0.4134581685066223,-0.18730409443378448,-9.771146774291992
1745651883.0149376,0.012994103133678436,-0.0036591291427612305,-0.09066851437091827,0.25397396087646484,-0.14991267025470734,-9.835275650024414
1745651883.0179448,0.0024551651440560818,-0.002084736479446292,-0.09190789610147476,0.41510242223739624,-0.18549218773841858,-9.750340461730957
1745651883.0211983,0.01143689826130867,-0.0071349963545799255,-0.09071638435125351,0.18892741203308105,-0.09936773031949997,-9.789533615112305
1745651883.0571997,0.0085957832634449,-0.0013316606637090445,-0.09181574732065201,0.46306610107421875,-0.30811983346939087,-9.629714965820312
1745651883.0616658,0.005602490156888962,-0.006447982974350452,-0.09092265367507935,0.3663490414619446,-0.055881667882204056,-9.772921562194824
1745651883.066132,0.0008059035753831267,-0.00240959576331079,-0.09088200330734253,0.28710150718688965,-0.2929011583328247,-9.968587875366211
1745651883.0725565,0.011611288413405418,-0.008637560531497002,-0.09023778140544891,0.43059056997299194,-0.21868471801280975,-9.712949752807617
1745651883.0966377,0.006026146467775106,-0.0009663784876465797,-0.0913291722536087,0.15482106804847717,-0.039718374609947205,-9.730398178100586
1745651883.1010008,-0.001227355794981122,-0.00801045447587967,-0.09038780629634857,0.43406811356544495,-0.408031165599823,-9.769655227661133
1745651883.1042917,0.016317373141646385,-0.005303370766341686,-0.08983637392520905,0.24741259217262268,0.05667419359087944,-9.783475875854492
1745651883.1066232,-0.011439347639679909,-0.0023828360717743635,-0.09063256531953812,0.38171130418777466,-0.3516313433647156,-9.84273910522461
1745651883.1076555,0.01791961118578911,-0.01146768406033516,-0.09183039516210556,0.35052722692489624,-0.09531425684690475,-9.655704498291016
1745651883.1448443,-0.004374261945486069,0.0011710813269019127,-0.089553102850914,0.25713130831718445,-0.21144375205039978,-9.800946235656738
1745651883.1449487,0.004909146577119827,-0.013713084161281586,-0.09151358902454376,0.4259180426597595,-0.23869545757770538,-9.827216148376465
1745651883.1473029,0.00948372669517994,-0.0006225940305739641,-0.08913225680589676,0.2835172116756439,-0.1525636464357376,-9.769169807434082
1745651883.1487772,-0.003257943782955408,-0.006211769301444292,-0.09001769870519638,0.4105836749076843,-0.2370542734861374,-9.748028755187988
1745651883.1837633,0.005279960576444864,-0.01323833130300045,-0.08869104087352753,0.2340315580368042,-0.06415052711963654,-9.768295288085938
1745651883.1870968,0.000725687830708921,0.0011050153989344835,-0.08956288546323776,0.442838579416275,-0.2724512219429016,-9.771699905395508
1745651883.1891613,0.008263692259788513,-0.007806775160133839,-0.0895799994468689,0.27221614122390747,-0.010872559621930122,-9.763826370239258
1745651883.1919923,0.006990973837673664,-0.007839187048375607,-0.09379885345697403,0.33653524518013,-0.2996126115322113,-9.765317916870117
1745651883.1937852,0.0030107744969427586,-0.00942059513181448,-0.08999453485012054,0.420418918132782,-0.04326251149177551,-9.631719589233398
1745651883.2265918,0.005217859521508217,-0.0017224345356225967,-0.09215204417705536,0.18447375297546387,-0.2692083418369293,-9.93432903289795
1745651883.230112,-0.0027027842588722706,0.0016267935279756784,-0.08929046988487244,0.3485352694988251,-0.17971940338611603,-9.825050354003906
1745651883.23078,0.016256047412753105,-0.004872292745858431,-0.09113121032714844,0.2803132236003876,-0.1192760020494461,-9.726385116577148
1745651883.232624,0.005945750046521425,-0.002336186356842518,-0.08890712261199951,0.2888320982456207,-0.16799601912498474,-9.693025588989258
1745651883.2696133,0.0029659364372491837,-0.007483465131372213,-0.08837586641311646,0.40611761808395386,-0.2373875379562378,-9.83641529083252
1745651883.2718508,0.015307769179344177,-0.000581358908675611,-0.08973709493875504,0.2207714021205902,-0.17538560926914215,-9.900856018066406
1745651883.2742815,0.0015881346771493554,-0.002002968918532133,-0.08810149133205414,0.3667071461677551,-0.2633875012397766,-9.758601188659668
1745651883.281559,0.010021140798926353,-0.006919609848409891,-0.0905156284570694,0.26072922348976135,-0.15582974255084991,-9.701040267944336
1745651883.31813,0.003402742790058255,0.0016761773731559515,-0.0891563668847084,0.3908466696739197,-0.3131369948387146,-9.780725479125977
1745651883.3278244,0.0014566902536898851,-0.0042314184829592705,-0.08946935832500458,0.2797218859195709,-0.04284049943089485,-9.823511123657227
1745651883.3280034,-0.000875788158737123,-0.0017591180512681603,-0.08840994536876678,0.2844904363155365,-0.36799126863479614,-9.810765266418457
1745651883.328116,0.0017713414272293448,-0.0046821595169603825,-0.08880676329135895,0.3315604329109192,-0.0720517560839653,-9.69192123413086
1745651883.357502,-0.002018450293689966,0.0007646025042049587,-0.08659789711236954,0.24759343266487122,-0.22689437866210938,-9.890183448791504
1745651883.3609612,0.004106448497623205,-0.007180808577686548,-0.08713024109601974,0.36995729804039,-0.19138677418231964,-9.865781784057617
1745651883.3641946,0.003966048825532198,0.0009687175042927265,-0.08635096251964569,0.2530704736709595,-0.07077297568321228,-9.724332809448242
1745651883.368421,0.0004039728082716465,-0.0017309297109022737,-0.08683408796787262,0.4242938160896301,-0.2913503646850586,-9.692183494567871
1745651883.3695884,0.007575866766273975,-0.005269357934594154,-0.08739769458770752,0.2020445317029953,-0.0820876806974411,-9.861103057861328
1745651883.3993251,0.0028031140100210905,0.0004761320597026497,-0.08623035997152328,0.4056571125984192,-0.3594990372657776,-9.781890869140625
1745651883.4028807,0.0022225473076105118,-0.0023546270094811916,-0.08538082242012024,0.30704566836357117,-0.09897619485855103,-9.775680541992188
1745651883.405501,-0.0035555935464799404,-0.00021811240003444254,-0.08642684668302536,0.2781630754470825,-0.203573077917099,-9.846965789794922
1745651883.4079146,-0.0006092310068197548,-0.006205475889146328,-0.0857718214392662,0.44733914732933044,-0.21274442970752716,-9.770309448242188
1745651883.4410038,0.0010604638373479247,0.004574406426399946,-0.0871378630399704,0.17005741596221924,-0.010552029125392437,-9.834360122680664
1745651883.4434974,-0.0033615543507039547,-0.0014988447073847055,-0.08609932661056519,0.40618982911109924,-0.4023793637752533,-9.678534507751465
1745651883.4441183,0.009452356025576591,-0.0016878328751772642,-0.08642091602087021,0.2420772761106491,0.08053236454725266,-9.652483940124512
1745651883.4502804,0.002690451918169856,0.011220941320061684,-0.08607839047908783,0.2735055983066559,-0.1435311734676361,-9.75684928894043
1745651883.4844346,0.0021863814909011126,-0.004797159694135189,-0.08517240732908249,0.35760098695755005,-0.18215852975845337,-9.784086227416992
1745651883.4923184,0.01168606337159872,0.0012127101654186845,-0.08648314327001572,0.2351599931716919,-0.09146760404109955,-9.79090404510498
1745651883.4923923,-0.0037578747142106295,0.005192514508962631,-0.08564170449972153,0.4439938962459564,-0.26694318652153015,-9.778512001037598
1745651883.494573,0.002436726586893201,0.0013994660694152117,-0.08558472990989685,0.1457376927137375,-0.10865747928619385,-9.745938301086426
1745651883.495605,-0.002650415524840355,0.001547308755107224,-0.08487707376480103,0.3993493616580963,-0.34728747606277466,-9.753438949584961
1745651883.5287666,-0.002097835298627615,-0.0010414812713861465,-0.08578862994909286,0.323605477809906,-0.010794884525239468,-9.855064392089844
1745651883.530479,-0.00039744339301250875,0.005075220018625259,-0.08589024841785431,0.26259925961494446,-0.358315646648407,-9.976731300354004
1745651883.5339031,0.0015762688126415014,-0.005651336628943682,-0.08632932603359222,0.36583101749420166,0.008613805286586285,-9.613546371459961
1745651883.5353959,-0.005216085352003574,0.003908088430762291,-0.0858004093170166,0.249193474650383,-0.2661181688308716,-9.736170768737793
1745651883.572925,0.0046195173636078835,0.002948888810351491,-0.08345189690589905,0.37135541439056396,-0.16167648136615753,-9.799436569213867
1745651883.576139,-0.0012198744807392359,-0.0006246675038710237,-0.08688721060752869,0.1868152618408203,-0.1117759495973587,-9.851804733276367
1745651883.5812173,0.0019873674027621746,0.0033159125596284866,-0.08441264927387238,0.40442734956741333,-0.27807122468948364,-9.723127365112305
1745651883.5847604,-0.002795038977637887,0.0005296908202581108,-0.083310566842556,0.3286028802394867,-0.30520835518836975,-9.867677688598633
1745651883.6154282,0.007927057333290577,-0.005134618375450373,-0.08266759663820267,0.39228135347366333,-0.10610581934452057,-9.844482421875
1745651883.6180391,0.002876037498936057,0.004770705010741949,-0.08319354802370071,0.23886644840240479,-0.10626622289419174,-9.831904411315918
1745651883.6219535,-0.003717945422977209,-0.0019498899346217513,-0.0832577645778656,0.45179063081741333,-0.3151147961616516,-9.674924850463867
1745651883.6232657,0.0013935029273852706,0.000113458234409336,-0.08081428706645966,0.24430938065052032,-0.030762840062379837,-9.720149040222168
1745651883.6257899,-0.007766267750412226,-0.0018107027281075716,-0.08539862930774689,0.4377375543117523,-0.3578367531299591,-9.867938041687012
1745651883.6596506,-0.0009505025227554142,-0.002549496479332447,-0.08102724701166153,0.28835758566856384,-0.07393191754817963,-9.832462310791016
1745651883.6610868,-0.0062560709193348885,0.004135961644351482,-0.08191488683223724,0.29397207498550415,-0.24771881103515625,-9.790377616882324
1745651883.66594,-0.0013597500510513783,-0.011562773957848549,-0.0839628279209137,0.38401079177856445,-0.0768875926733017,-9.678251266479492
1745651883.6700451,0.000161966381710954,0.005456980317831039,-0.08277188241481781,0.27516689896583557,-0.12447117269039154,-9.856523513793945
1745651883.6997714,0.0024780016392469406,-0.0013377880677580833,-0.08087708801031113,0.43116435408592224,-0.1567120999097824,-9.792716026306152
1745651883.7019825,0.009142836555838585,-0.0031053603161126375,-0.08301734179258347,0.19236871600151062,-0.05370758846402168,-9.719053268432617
1745651883.7042944,-0.0059658316895365715,0.003436438739299774,-0.0821491926908493,0.4156786799430847,-0.3187086582183838,-9.702823638916016
1745651883.7062838,0.006765023805201054,-0.004615566227585077,-0.08132413029670715,0.2534846067428589,-0.07159106433391571,-9.858171463012695
1745651883.7088246,0.0016227407613769174,0.002747652353718877,-0.08176399767398834,0.34853503108024597,-0.21443483233451843,-9.88121223449707
1745651883.7428422,0.0056601474061608315,-0.003763290587812662,-0.0823412612080574,0.4305434823036194,-0.12444078922271729,-9.700043678283691
1745651883.7452075,0.003910168074071407,0.0019385305931791663,-0.08444883674383163,0.24415047466754913,-0.11403679847717285,-9.761789321899414
1745651883.7486799,-0.0034954678267240524,-0.003406740026548505,-0.0827941969037056,0.4316225051879883,-0.24793092906475067,-9.7721586227417
1745651883.7504497,0.0053376019932329655,-0.0007347539067268372,-0.0809931606054306,0.1964733600616455,-0.08192066103219986,-9.808732986450195
1745651883.7856147,-0.00561338197439909,0.0007419500616379082,-0.08147148787975311,0.3780522346496582,-0.2864125072956085,-9.8201322555542
1745651883.7899816,0.01053229533135891,-0.005015135742723942,-0.08098107576370239,0.2922118306159973,-0.028607631102204323,-9.764244079589844
1745651883.7932427,0.0010677215177565813,0.004745518323034048,-0.07998307794332504,0.3052714765071869,-0.28928524255752563,-9.876028060913086
1745651883.798648,0.007097311317920685,-0.00838161539286375,-0.08090542256832123,0.3203519284725189,0.007762996945530176,-9.744694709777832
1745651883.8286698,0.0010338277788832784,-0.002918191719800234,-0.0815720185637474,0.21351203322410583,-0.18217310309410095,-9.873062133789062
1745651883.8319054,-0.0007611608016304672,-0.005164924543350935,-0.07966591417789459,0.48406487703323364,-0.3135109543800354,-9.69690990447998
1745651883.8331056,-0.0013135416666045785,-0.0012114231940358877,-0.08065919578075409,0.24565014243125916,-0.02292277291417122,-9.790790557861328
1745651883.8348653,-0.0028859619051218033,-0.0012976857833564281,-0.08243399113416672,0.34953898191452026,-0.3146737813949585,-9.893461227416992
1745651883.8394198,0.0018846802413463593,-0.006441081874072552,-0.08274195343255997,0.30965203046798706,0.08280979096889496,-9.662540435791016
1745651883.8751678,0.001071913749910891,0.003194257616996765,-0.08224796503782272,0.3128798305988312,-0.26831355690956116,-9.742914199829102
1745651883.8769526,0.0020284783095121384,-0.00814846158027649,-0.08121438324451447,0.3390921652317047,-0.025712544098496437,-9.748167037963867
1745651883.880783,-0.0002163980097975582,-0.0003432481607887894,-0.0824068933725357,0.22317807376384735,-0.2257171869277954,-9.886075973510742
1745651883.8850486,0.004207879304885864,-0.002707129344344139,-0.08130999654531479,0.41379889845848083,-0.15950314700603485,-9.75998592376709
1745651883.9177542,0.008193125016987324,0.0004356768331490457,-0.08135845512151718,0.21737411618232727,-0.029989102855324745,-9.777681350708008
1745651883.9208512,0.006517566740512848,-0.003764615161344409,-0.08124081790447235,0.46038228273391724,-0.2614968419075012,-9.77223014831543
1745651883.9231462,0.010282974690198898,-0.006620547268539667,-0.08273410052061081,0.29198408126831055,-0.05072915554046631,-9.782242774963379
1745651883.9257877,-0.00020348644466139376,0.003297929186373949,-0.08113007247447968,0.3436563014984131,-0.30972570180892944,-9.790362358093262
1745651883.9588044,0.009110065177083015,-0.006682248320430517,-0.08571289479732513,0.4247383177280426,-0.17412202060222626,-9.692042350769043
1745651883.963669,0.0025699082762002945,-0.006059423554688692,-0.08491110801696777,0.23101623356342316,-0.10940317064523697,-9.716253280639648
1745651883.9678226,-0.004104637075215578,-0.0064840069971978664,-0.08249591290950775,0.424060583114624,-0.32213541865348816,-9.854853630065918
1745651883.9721522,0.0091663533821702,-0.0033015720546245575,-0.08497785031795502,0.2269062101840973,-0.04711601138114929,-9.874982833862305
1745651883.974422,0.0009845960885286331,0.00053974031470716,-0.08296608924865723,0.33059239387512207,-0.1891186684370041,-9.774253845214844
1745651884.0018394,0.009467117488384247,-0.010851482860744,-0.08630473911762238,0.3240034580230713,-0.01645013317465782,-9.636877059936523
1745651884.0041153,0.010143691673874855,-7.934868335723877e-07,-0.08468309789896011,0.32449522614479065,-0.19948585331439972,-9.780965805053711
1745651884.0071065,0.0038619264960289,-0.005934723187237978,-0.08516097813844681,0.3293631374835968,-0.05514999479055405,-9.877195358276367
1745651884.0129797,0.018875032663345337,-0.005081300623714924,-0.08371834456920624,0.1941123902797699,-0.2685707211494446,-9.839303016662598
1745651884.0453496,0.008869476616382599,-0.00024130773090291768,-0.08405490219593048,0.3860800564289093,-0.12180851399898529,-9.585619926452637
1745651884.0458832,0.011976713314652443,-0.0057381391525268555,-0.08267836272716522,0.2283983677625656,-0.18399354815483093,-9.909341812133789
1745651884.0484138,0.01422030944377184,-0.003906408790498972,-0.08352672308683395,0.4198407530784607,-0.19402232766151428,-9.851162910461426
1745651884.0496562,0.009061560034751892,-0.004921784624457359,-0.08700064569711685,0.29011255502700806,-0.09929941594600677,-9.763690948486328
1745651884.0596113,0.01034878846257925,-0.0016203690320253372,-0.08365229517221451,0.31173548102378845,-0.26701217889785767,-9.745355606079102
1745651884.0889773,0.000775860738940537,-0.007337172515690327,-0.08503317087888718,0.32338863611221313,-0.19171886146068573,-9.724868774414062
1745651884.0926318,0.007617291063070297,0.00042356495396234095,-0.08408362418413162,0.2815433442592621,-0.16387982666492462,-9.847541809082031
1745651884.0961874,-0.0056083910167217255,-0.006646252237260342,-0.08326669782400131,0.403909295797348,-0.1945939064025879,-9.824216842651367
1745651884.0991168,0.013077077455818653,-0.0046152397990226746,-0.08410553634166718,0.2155042141675949,-0.10749264061450958,-9.750326156616211
1745651884.130391,0.0008327484829351306,-0.0021564543712884188,-0.08414313942193985,0.4087921679019928,-0.16048641502857208,-9.70673656463623
1745651884.1327562,0.010574350133538246,-0.006729867309331894,-0.08540487289428711,0.2251139134168625,-0.041476503014564514,-9.881002426147461
1745651884.134029,0.01134693343192339,0.0005157882114872336,-0.08493919670581818,0.37969136238098145,-0.22195973992347717,-9.755416870117188
1745651884.1357977,0.005554697476327419,-0.0021610467229038477,-0.08343124389648438,0.3379586637020111,-0.08907897770404816,-9.708251953125
1745651884.1392512,0.008981125429272652,0.0018071482190862298,-0.08572947233915329,0.19274282455444336,-0.1946391463279724,-9.880716323852539
1745651884.1763349,0.018458761274814606,-0.0077860308811068535,-0.08460380136966705,0.26085689663887024,0.007164120674133301,-9.634231567382812
1745651884.1791394,-0.005601574666798115,0.004199070390313864,-0.08671901375055313,0.3248833417892456,-0.32178983092308044,-9.849023818969727
1745651884.1837492,0.018983356654644012,-0.003396006301045418,-0.08723100274801254,0.2585018575191498,-0.11849610507488251,-9.829538345336914
1745651884.1873734,0.008461828343570232,0.003350895596668124,-0.08465807884931564,0.20069460570812225,-0.1585855782032013,-9.75574779510498
1745651884.224043,0.005626790225505829,-0.005133763886988163,-0.08515758812427521,0.37405961751937866,-0.1848796308040619,-9.708395004272461
1745651884.226048,0.02051640674471855,0.001905192038975656,-0.08579891920089722,0.2251833975315094,-0.06899790465831757,-9.859660148620605
1745651884.2298508,-0.0005747941322624683,-0.0016001493204385042,-0.08584392815828323,0.3882237374782562,-0.23011675477027893,-9.835664749145508
1745651884.2334282,0.018192937597632408,-0.0035287111531943083,-0.08712081611156464,0.2752473056316376,-0.17039915919303894,-9.736833572387695
1745651884.2623036,0.0011379782808944583,0.004958546720445156,-0.08614902943372726,0.36819708347320557,-0.2642151415348053,-9.702959060668945
1745651884.265362,0.004408343695104122,-0.005719234701246023,-0.08346184343099594,0.29736170172691345,-0.15975472331047058,-9.834985733032227
1745651884.2689984,0.00516428891569376,0.0006456809351220727,-0.08668411523103714,0.3248097896575928,-0.207143634557724,-9.882245063781738
1745651884.2725859,-0.004449653439223766,-0.0027939483989030123,-0.08210469782352448,0.3630775809288025,-0.10112994909286499,-9.719868659973145
1745651884.3045585,0.014399483799934387,0.00170396757312119,-0.08661505579948425,0.30316972732543945,-0.1068284884095192,-9.719916343688965
1745651884.3070583,0.0017449319129809737,-0.0012973796110600233,-0.08262912184000015,0.41417986154556274,-0.13342127203941345,-9.757972717285156
1745651884.311593,-0.0014468468725681305,-0.0022693825885653496,-0.08279680460691452,0.22224485874176025,-0.06674092262983322,-9.738582611083984
1745651884.3144827,0.01102891843765974,0.00368746230378747,-0.08439607918262482,0.4206637740135193,-0.2752891778945923,-9.755470275878906
1745651884.32022,-0.0002699620963539928,-0.0019066494423896074,-0.0827040821313858,0.24535603821277618,-0.02839655615389347,-9.844457626342773
1745651884.3469706,0.014048111625015736,0.0017458880320191383,-0.08280190080404282,0.2817460894584656,-0.3174714148044586,-9.832300186157227
1745651884.350299,0.005010385997593403,0.0016214840579777956,-0.07947874069213867,0.40072840452194214,-0.023449238389730453,-9.573816299438477
1745651884.3550606,0.012910069897770882,-0.000700168136972934,-0.08261766284704208,0.2152872085571289,-0.23678526282310486,-9.863138198852539
1745651884.3581736,0.009856024757027626,-0.0008716871961951256,-0.08195149898529053,0.48036932945251465,-0.1296134740114212,-9.761507987976074
1745651884.3881662,0.008959513157606125,0.0018664572853595018,-0.08276261389255524,0.24560260772705078,-0.14396025240421295,-9.872297286987305
1745651884.3920188,0.0066104792058467865,0.0014951706398278475,-0.08241517841815948,0.3818728029727936,-0.25584152340888977,-9.701748847961426
1745651884.393166,0.0019170437008142471,-0.0032426510006189346,-0.08311517536640167,0.33405694365501404,-0.2086503505706787,-9.687301635742188
1745651884.3950012,0.003662309842184186,0.007704834453761578,-0.08125337958335876,0.2822221517562866,-0.2606048285961151,-9.898598670959473
1745651884.397397,-0.0018565729260444641,-0.005507902707904577,-0.08223097026348114,0.36702701449394226,-0.15970516204833984,-9.817171096801758
1745651884.4338346,0.01587584987282753,0.005404731258749962,-0.08100106567144394,0.25192126631736755,-0.062055330723524094,-9.685518264770508
1745651884.4366715,-0.005017981398850679,-0.00035556420334614813,-0.08296646922826767,0.3995150923728943,-0.1967896819114685,-9.703348159790039
1745651884.442613,0.014415333047509193,-0.003761944128200412,-0.08357720077037811,0.2312268763780594,-0.0797836184501648,-9.861102104187012
1745651884.4464948,-0.0019863827619701624,0.004247569944709539,-0.08180796355009079,0.4002811312675476,-0.2930934727191925,-9.866512298583984
1745651884.4758914,0.018689315766096115,-0.003541424171999097,-0.08387773483991623,0.27582117915153503,-0.1649644672870636,-9.746109008789062
1745651884.4803884,0.002492255065590143,0.0042891837656497955,-0.08251798152923584,0.23313014209270477,-0.18831554055213928,-9.765859603881836
1745651884.4839933,0.006281833164393902,-0.008523166179656982,-0.0798116996884346,0.4391024112701416,-0.2185603380203247,-9.73611068725586
1745651884.4872572,0.012551819905638695,0.004777906462550163,-0.08316413313150406,0.3172629177570343,-0.04884295538067818,-9.826290130615234
1745651884.4912457,-0.007322670426219702,-0.0038815687876194715,-0.08343640714883804,0.37748458981513977,-0.30073443055152893,-9.873563766479492
1745651884.518845,0.021139021962881088,-0.0044886162504553795,-0.08132842183113098,0.3090288043022156,-0.04780229181051254,-9.637075424194336
1745651884.5222633,-0.001223553204908967,0.000496275897603482,-0.08344964683055878,0.33261027932167053,-0.2000402957201004,-9.72065258026123
1745651884.5253599,0.005886386148631573,-0.00592168141156435,-0.08130422979593277,0.30633634328842163,-0.14490774273872375,-9.715677261352539
1745651884.5277846,0.011635804548859596,0.003545063082128763,-0.08409901708364487,0.3260909914970398,-0.1269400268793106,-9.79481029510498
1745651884.5617485,-0.0020335945300757885,-0.004839777015149593,-0.08274490386247635,0.36131352186203003,-0.2168174684047699,-9.856188774108887
1745651884.56339,0.014838415198028088,0.00029624541639350355,-0.08294729888439178,0.2609676718711853,-0.15034624934196472,-9.769204139709473
1745651884.5665393,-0.011439360678195953,-0.003446230199187994,-0.08234758675098419,0.4405825734138489,-0.32191094756126404,-9.705175399780273
1745651884.5691469,0.012552239000797272,-0.0045632668770849705,-0.08279730379581451,0.2565106749534607,-0.12843585014343262,-9.83348274230957
1745651884.6112928,-0.0020449962466955185,-0.0001099413275369443,-0.08024273812770844,0.39050954580307007,-0.22403927147388458,-9.84140682220459
1745651884.6113737,0.002789408667013049,-0.0061208889819681644,-0.0826895609498024,0.2449999302625656,-0.04040328040719032,-9.741697311401367
1745651884.6114235,0.004007735289633274,6.710179150104523e-07,-0.08461937308311462,0.3667399287223816,-0.19466575980186462,-9.654891014099121
1745651884.6152103,-0.0014340203488245606,-0.006587313022464514,-0.08277743309736252,0.3703983724117279,-0.08477737009525299,-9.815694808959961
1745651884.6182928,0.009911665692925453,-0.0021425422746688128,-0.0807141363620758,0.2530779242515564,-0.17945575714111328,-10.001252174377441
1745651884.6492813,0.009693605825304985,-0.0056971600279212,-0.08200785517692566,0.4093495309352875,-0.1868123710155487,-9.705549240112305
1745651884.6550548,0.00812426395714283,0.001427534851245582,-0.07592225819826126,0.3535248041152954,-0.16848477721214294,-9.806425094604492
1745651884.6596372,-0.010400280356407166,-0.006996705196797848,-0.07591136544942856,0.2562897503376007,-0.1208624616265297,-9.784501075744629
1745651884.664101,0.009924406185746193,-0.0038334610871970654,-0.07788395136594772,0.3203794062137604,-0.22153238952159882,-9.682413101196289
1745651884.691803,-0.011207791976630688,-0.0017173554515466094,-0.07679148018360138,0.392449289560318,-0.10831288993358612,-9.797021865844727
1745651884.6954384,0.0001714594691293314,-0.006095229182392359,-0.07764064520597458,0.19788675010204315,-0.29706674814224243,-10.027176856994629
1745651884.6993659,-0.0009674523025751114,-0.0032297628931701183,-0.07627944648265839,0.44650349020957947,-0.15857768058776855,-9.623082160949707
1745651884.7011952,-0.0160212405025959,-0.0038464036770164967,-0.07385362684726715,0.20683737099170685,-0.18175426125526428,-9.65761947631836
1745651884.7355838,0.0036183041520416737,-0.0021019182167947292,-0.07610693573951721,0.3496308922767639,-0.21375875174999237,-9.803747177124023
1745651884.7378101,-0.014037901535630226,-0.008914152160286903,-0.07555737346410751,0.33719491958618164,-0.0017040580278262496,-9.849510192871094
1745651884.740006,0.0012788375606760383,-0.0010232108179479837,-0.07687735557556152,0.19730433821678162,-0.24352404475212097,-9.899615287780762
1745651884.7429156,-0.004452329594641924,-0.0026555003132671118,-0.07451139390468597,0.4240197241306305,-0.06896059215068817,-9.565462112426758
1745651884.7763686,-0.003983945585787296,-0.005464373156428337,-0.078258216381073,0.17040176689624786,-0.20940223336219788,-9.848553657531738
1745651884.7802932,-0.000376962503651157,-0.0025127101689577103,-0.07484208047389984,0.43258291482925415,-0.21899203956127167,-9.851096153259277
1745651884.7824955,-0.008151882328093052,-0.005580203142017126,-0.07444505393505096,0.2644995450973511,-0.0800151377916336,-9.740152359008789
1745651884.7864869,-0.004117229487746954,-0.0009444452589377761,-0.07544839382171631,0.3245600163936615,-0.27926284074783325,-9.764444351196289
1745651884.7885406,-0.009670794010162354,-0.010004029609262943,-0.0756826251745224,0.38194894790649414,-0.03621315956115723,-9.739030838012695
1745651884.8215048,-0.003038321388885379,-0.0005657675210386515,-0.07780642807483673,0.24936886131763458,-0.28110814094543457,-9.915836334228516
1745651884.823493,-0.00955631397664547,-0.005563096143305302,-0.07527240365743637,0.38609060645103455,-0.04695604741573334,-9.724139213562012
1745651884.8261678,-0.006303942762315273,-0.004953392781317234,-0.07713358104228973,0.23238956928253174,-0.2452799528837204,-9.73052978515625
1745651884.8288934,-0.008141524158418179,-0.0033928651828318834,-0.07587442547082901,0.4012448787689209,-0.12783637642860413,-9.722808837890625
1745651884.8620071,-0.009823240339756012,-0.004690069705247879,-0.07345117628574371,0.20962564647197723,-0.1218658909201622,-9.921051025390625
1745651884.86412,-0.0013282343279570341,-0.0030551026575267315,-0.07509622722864151,0.34957510232925415,-0.22850842773914337,-9.744918823242188
1745651884.8669648,-0.004936649464070797,-0.0036003305576741695,-0.0761415958404541,0.2928594946861267,0.10076984018087387,-9.659324645996094
1745651884.8704176,0.0017096779774874449,-0.0012655096361413598,-0.07694263011217117,0.3435346782207489,-0.3171367645263672,-9.805013656616211
1745651884.8723366,-0.0031187371350824833,-0.007083292119204998,-0.07643481343984604,0.36108383536338806,-0.05154595896601677,-9.744711875915527
1745651884.9062681,-0.003884056117385626,-0.0007095265900716186,-0.07613061368465424,0.19900067150592804,-0.2083502560853958,-9.901888847351074
1745651884.910111,-0.004649508744478226,-0.004243525210767984,-0.07541941106319427,0.42912012338638306,-0.21091124415397644,-9.681469917297363
1745651884.9131393,-0.002794822910800576,-0.0027748532593250275,-0.0752217173576355,0.1611802875995636,-0.05518404394388199,-9.793390274047852
1745651884.915282,-0.0036944567691534758,-0.003773636417463422,-0.07589446753263474,0.41887301206588745,-0.2609131336212158,-9.852490425109863
1745651884.9500234,0.00060910580214113,-0.006511876825243235,-0.07595179975032806,0.2782624363899231,0.006653890013694763,-9.699310302734375
1745651884.95353,-0.003535198513418436,0.0041760727763175964,-0.07629475742578506,0.2726631164550781,-0.29112058877944946,-9.842025756835938
1745651884.9556599,-0.0007146386196836829,-0.011482389643788338,-0.07468757778406143,0.40963658690452576,-0.017177831381559372,-9.673775672912598
1745651884.958169,-0.004123573191463947,0.000546201947145164,-0.07495439797639847,0.21441490948200226,-0.2999572455883026,-9.889616966247559
1745651884.9921665,-0.0008914523641578853,-0.0035870149731636047,-0.07457371056079865,0.41000837087631226,-0.06737897545099258,-9.796403884887695
1745651884.9958978,-0.004968080669641495,-0.007048451341688633,-0.07369240373373032,0.19761338829994202,-0.18140187859535217,-9.758428573608398
1745651885.0021706,0.0032389238476753235,-0.00048716069431975484,-0.07496852427721024,0.42532777786254883,-0.19137346744537354,-9.661507606506348
1745651885.002265,0.0032181614078581333,0.0034975274465978146,-0.07544362545013428,0.20547232031822205,-0.23336681723594666,-9.849908828735352
1745651885.0370371,0.00290235155262053,-0.0011554150842130184,-0.07438619434833527,0.4331188201904297,-0.1328151673078537,-9.689684867858887
1745651885.039739,0.0024029600899666548,-0.00237642927095294,-0.0742400512099266,0.17646655440330505,-0.11049087345600128,-9.879247665405273
1745651885.0429583,0.004042132757604122,0.00194664322771132,-0.07462191581726074,0.4074404239654541,-0.22698692977428436,-9.768586158752441
1745651885.0463636,0.0004403917118906975,-0.004558593966066837,-0.07428256422281265,0.2626476585865021,-0.005309051368385553,-9.716894149780273
1745651885.048704,0.003507471177726984,0.004636216908693314,-0.07435978949069977,0.3124799132347107,-0.256022572517395,-9.841554641723633
1745651885.0774574,0.0016777096316218376,-0.005017473362386227,-0.07486295700073242,0.38375741243362427,-0.011783776804804802,-9.734509468078613
1745651885.081442,0.009558390825986862,0.004356245510280132,-0.07400040328502655,0.2093624770641327,-0.19756488502025604,-9.869086265563965
1745651885.0830538,0.003654762404039502,-0.0006741165998391807,-0.07470908761024475,0.4081340432167053,-0.09475243091583252,-9.731267929077148
1745651885.0845528,0.007310626097023487,0.0009640627540647984,-0.07382075488567352,0.21059517562389374,-0.13326331973075867,-9.727486610412598
1745651885.1198292,0.006196856964379549,0.0019822516478598118,-0.0740981474518776,0.41876521706581116,-0.19084963202476501,-9.736127853393555
1745651885.1215966,0.0017561803106218576,0.00024379129172302783,-0.07341580092906952,0.2524847388267517,-0.0497383251786232,-9.87971305847168
1745651885.1239903,0.01069567445665598,0.0037594325840473175,-0.0744144544005394,0.3130880892276764,-0.3071315288543701,-9.861352920532227
1745651885.1271002,0.005554875358939171,0.002411307767033577,-0.07530791312456131,0.32844775915145874,0.048897165805101395,-9.662439346313477
1745651885.1296043,0.010647425428032875,0.0033089308999478817,-0.07408389449119568,0.29543444514274597,-0.2607116997241974,-9.772974014282227
1745651885.1641479,0.0046577537432312965,-0.00045302571379579604,-0.07640256732702255,0.41326457262039185,-0.07658480107784271,-9.779777526855469
1745651885.1667535,0.003734227269887924,0.004238781984895468,-0.07236050814390182,0.2357558310031891,-0.13773934543132782,-9.882441520690918
1745651885.1681836,0.007525832857936621,0.00237552123144269,-0.07226324826478958,0.3738711476325989,-0.23078879714012146,-9.718602180480957
1745651885.177459,0.005605834536254406,0.003563328180462122,-0.07250365614891052,0.16863366961479187,0.04144318401813507,-9.783214569091797
1745651885.2088175,0.006982056889683008,0.0022201980464160442,-0.07486571371555328,0.4274436831474304,-0.22725901007652283,-9.848898887634277
1745651885.2116597,0.013527723960578442,0.00031843199394643307,-0.07354472577571869,0.27837634086608887,0.02249450795352459,-9.823592185974121
1745651885.2149653,0.007746209856122732,0.008830912411212921,-0.0739230364561081,0.2593573033809662,-0.21794049441814423,-9.786909103393555
1745651885.217478,0.011149327270686626,-0.004643808118999004,-0.07347802817821503,0.4200581908226013,-0.15767936408519745,-9.637701034545898
1745651885.2528877,0.009002963081002235,0.002077511977404356,-0.07203476876020432,0.48585477471351624,-0.2250344306230545,-9.865058898925781
1745651885.25591,0.006178184412419796,-0.0038700425066053867,-0.0727313756942749,0.16392427682876587,-0.04290549084544182,-9.753889083862305
1745651885.2583401,0.009808714501559734,0.007226011250168085,-0.07144631445407867,0.4158557951450348,-0.3182569444179535,-9.69503116607666
1745651885.259909,0.0024309661239385605,-0.0011694950517266989,-0.07442063093185425,0.3028589189052582,0.11825646460056305,-9.749113082885742
1745651885.2938673,0.0039598774164915085,0.002079092198982835,-0.07162625342607498,0.2712307870388031,-0.411045640707016,-9.997298240661621
1745651885.29529,0.011437244713306427,0.000648455519694835,-0.0735882818698883,0.438711017370224,0.08527995645999908,-9.665650367736816
1745651885.3002698,-0.0010649552568793297,0.007766116410493851,-0.07163140922784805,0.13361461460590363,-0.280084490776062,-9.744032859802246
1745651885.3010092,0.019332915544509888,-0.0021374584175646305,-0.07275830209255219,0.4489358961582184,-0.13322193920612335,-9.705829620361328
1745651885.301739,0.0034828707575798035,0.005110925063490868,-0.07298754155635834,0.26587432622909546,0.06333937495946884,-9.816145896911621
1745651885.3440933,0.004602829925715923,0.003031821921467781,-0.06961680948734283,0.33836865425109863,-0.360643595457077,-9.908082962036133
1745651885.3442967,0.016225988045334816,0.0032561705447733402,-0.07224248349666595,0.3215259611606598,0.11142091453075409,-9.64716911315918
1745651885.344762,0.0021587456576526165,0.0044775609858334064,-0.07342375814914703,0.27630120515823364,-0.32873299717903137,-9.823042869567871
1745651885.3486588,0.018579954281449318,0.00021293744794093072,-0.07158132642507553,0.32312503457069397,-0.010108071379363537,-9.837366104125977
1745651885.385022,0.0033150475937873125,0.0019965863320976496,-0.07206259667873383,0.3963449001312256,-0.14066927134990692,-9.751710891723633
1745651885.3894722,0.00782465748488903,-0.005468746181577444,-0.07511546462774277,0.25244805216789246,-0.13266536593437195,-9.63994026184082
1745651885.393379,0.005351783242076635,-0.0021074493415653706,-0.07094424217939377,0.3819941282272339,-0.2116163671016693,-9.744758605957031
1745651885.3979251,-0.0009822972351685166,-0.0033148520160466433,-0.07245594263076782,0.30406373739242554,-0.059772323817014694,-9.882901191711426
1745651885.4002151,0.00570896128192544,-0.00163516984321177,-0.07161680608987808,0.28113478422164917,-0.3382636606693268,-9.88134479522705
1745651885.4233658,0.0050337412394583225,-0.0034305802546441555,-0.07212898880243301,0.37353700399398804,-0.0002772115112747997,-9.608369827270508
1745651885.4260244,0.0041982391849160194,-0.002873192774131894,-0.07365875691175461,0.24018847942352295,-0.23050928115844727,-9.795635223388672
1745651885.4274504,0.0024882343132048845,-0.005570098292082548,-0.07497653365135193,0.4251944422721863,-0.12272324413061142,-9.795136451721191
1745651885.431314,0.0011256675934419036,-0.002319538965821266,-0.0717044249176979,0.2722439765930176,-0.06297247111797333,-9.802871704101562
1745651885.4642954,0.0027206249069422483,0.0003016648697666824,-0.07360218465328217,0.36916762590408325,-0.2832696735858917,-9.740744590759277
1745651885.467384,0.002722297329455614,-0.0045813024044036865,-0.07323428243398666,0.23322227597236633,0.005965954624116421,-9.72077751159668
1745651885.468594,0.003202202497050166,-0.0015857878606766462,-0.07350882887840271,0.35658320784568787,-0.24090354144573212,-9.88128662109375
1745651885.4722135,0.008591449819505215,-0.006163906306028366,-0.0713193416595459,0.34632474184036255,-0.024726126343011856,-9.803647994995117
1745651885.5079112,0.0076059140264987946,0.0009563771309331059,-0.07465896010398865,0.2487683743238449,-0.17915046215057373,-9.779882431030273
1745651885.511651,0.004563907627016306,-0.010699456557631493,-0.07250966131687164,0.411237895488739,-0.20348158478736877,-9.680944442749023
1745651885.515967,0.004570640157908201,-0.0007639643736183643,-0.07148075848817825,0.22723698616027832,-0.1122920960187912,-9.776616096496582
1745651885.520041,-0.00045996176777407527,-0.0021999767050147057,-0.07097600400447845,0.4176329970359802,-0.28794750571250916,-9.874860763549805
1745651885.5233295,0.004364827647805214,-0.00951023306697607,-0.07228032499551773,0.26669567823410034,-0.014377650804817677,-9.760987281799316
1745651885.552402,-0.0005327261751517653,0.0005586996558122337,-0.07089466601610184,0.4073534607887268,-0.3621116280555725,-9.779260635375977
1745651885.5555863,0.007053375244140625,-0.006714304443448782,-0.07133066654205322,0.32434171438217163,0.12189416587352753,-9.747743606567383
1745651885.559231,-0.012153742834925652,-0.0052024852484464645,-0.07190580666065216,0.23587818443775177,-0.3898211121559143,-9.916314125061035
1745651885.563217,0.012509776279330254,-0.005370767321437597,-0.07001868635416031,0.49540820717811584,-0.02296169474720955,-9.64392375946045
1745651885.5988295,-0.008715707808732986,-4.932917727273889e-05,-0.07228317111730576,0.1595301479101181,-0.1563270390033722,-9.809370040893555
1745651885.5989168,-0.00980096124112606,-0.0009466666961088777,-0.0718570128083229,0.28608959913253784,-0.39057716727256775,-9.881770133972168
1745651885.5989711,0.011739009991288185,-0.007843931205570698,-0.07121416181325912,0.3733097016811371,0.09386494755744934,-9.666498184204102
1745651885.600558,-0.007283315062522888,0.0006042291643097997,-0.07180428504943848,0.25167375802993774,-0.29222244024276733,-9.940287590026855
1745651885.6374018,0.009546354413032532,-0.00787209440022707,-0.0710618868470192,0.365736186504364,-0.12780335545539856,-9.823923110961914
1745651885.6392338,0.006792926695197821,-0.0009317729854956269,-0.07124952971935272,0.24841073155403137,-0.040800999850034714,-9.6702299118042
1745651885.6428652,-0.0033198483288288116,-0.006074518896639347,-0.07118147611618042,0.36660856008529663,-0.28283989429473877,-9.727996826171875
1745651885.6463532,0.013617548160254955,-0.0036358595825731754,-0.07198067009449005,0.27051034569740295,0.03430245816707611,-9.781487464904785
1745651885.6476624,-0.004783012438565493,-0.00044356900616548955,-0.07002189755439758,0.35529953241348267,-0.28787627816200256,-9.908533096313477
1745651885.684695,0.013209904544055462,-0.008236963301897049,-0.07119803130626678,0.22602061927318573,-0.09450800716876984,-9.801689147949219
1745651885.6883116,0.00010518892668187618,0.001368638826534152,-0.07111740857362747,0.31285762786865234,-0.20854106545448303,-9.702646255493164
1745651885.6892745,0.0005300475168041885,-0.010357222519814968,-0.07114236801862717,0.34380391240119934,-0.19965490698814392,-9.787075996398926
1745651885.6922073,0.004569630138576031,0.0011830029543489218,-0.06936343014240265,0.25771281123161316,-0.09457314014434814,-9.859475135803223
1745651885.7240958,-0.007461083121597767,-0.007439523935317993,-0.07179024070501328,0.4136766493320465,-0.25318580865859985,-9.758719444274902
1745651885.7281978,0.0004254436935298145,0.0032858974300324917,-0.0719582661986351,0.3519385755062103,-0.3123309016227722,-9.696929931640625
1745651885.7294264,0.0035690912045538425,-0.005359039641916752,-0.07441125810146332,0.2670460343360901,0.0076063647866249084,-9.776433944702148
1745651885.7324233,-0.00027110567316412926,0.0020629679784178734,-0.07280151546001434,0.3187093138694763,-0.26566141843795776,-9.93720817565918
1745651885.7362916,0.0037993541918694973,-0.0034937039017677307,-0.07184548676013947,0.34022706747055054,-0.07335921376943588,-9.805607795715332
1745651885.7656264,0.006396825425326824,0.004473986569792032,-0.07418777048587799,0.22648802399635315,-0.1160745620727539,-9.733999252319336
