timestamp,angular_vel_x,angular_vel_y,angular_vel_z,linear_acc_x,linear_acc_y,linear_acc_z
1745652279.2067952,-0.0026412063743919134,-0.006250566337257624,0.0009595400770194829,-0.1690756231546402,0.5028710961341858,-9.77344799041748
1745652279.2088993,0.005961566232144833,0.0011485160794109106,0.0016098938649520278,-0.17071165144443512,0.5054187774658203,-9.792509078979492
1745652279.2124002,-0.0026520921383053064,-0.0047514783218503,0.0013113532913848758,-0.09360940754413605,0.437401682138443,-9.767455101013184
1745652279.2158186,0.0032174065709114075,-0.0012454655952751637,0.002228702651336789,-0.2316405326128006,0.5771245956420898,-9.779809951782227
1745652279.2503564,0.0010352378012612462,-0.00185197067912668,0.0022107858676463366,-0.06574349105358124,0.4224240779876709,-9.770231246948242
1745652279.2515996,-0.00014502694830298424,-0.0008684018393978477,0.00046692020259797573,-0.23417143523693085,0.568550705909729,-9.800575256347656
1745652279.2538705,0.005813863128423691,-0.0017541764536872506,0.002010385738685727,-0.07754939049482346,0.465587317943573,-9.753610610961914
1745652279.2577453,-0.00142031186260283,-0.0028333801310509443,-0.0006086028297431767,-0.18436391651630402,0.5160056352615356,-9.794778823852539
1745652279.2600617,0.008388866670429707,0.001937084598466754,0.003961226437240839,-0.16168951988220215,0.5100047588348389,-9.783577919006348
1745652279.294087,-0.0022999520879238844,-0.004637543112039566,0.0006978702731430531,-0.11501765251159668,0.46505317091941833,-9.783544540405273
1745652279.2971492,0.006176481023430824,0.0008037326624616981,0.0029543726705014706,-0.21040387451648712,0.5713646411895752,-9.77509880065918
1745652279.2986197,0.00247827242128551,-0.002482285024598241,0.00157911644782871,-0.06523849070072174,0.42111483216285706,-9.786806106567383
1745652279.304443,0.003772139083594084,-0.0004957247874699533,-7.186840230133384e-05,-0.25008636713027954,0.5485970377922058,-9.793838500976562
1745652279.3354669,0.006867263466119766,0.0001487501140218228,0.0017352483700960875,-0.08193747699260712,0.42520350217819214,-9.761900901794434
1745652279.3392406,-0.00029984721913933754,-0.0025868061929941177,0.001896591274999082,-0.21924571692943573,0.5211172699928284,-9.792340278625488
1745652279.3416562,0.006422213278710842,0.0027715228497982025,0.0019326659385114908,-0.11471836268901825,0.4726523458957672,-9.789901733398438
1745652279.3447824,-0.0022670102771371603,-0.0033545747864991426,0.001712541445158422,-0.1596318930387497,0.46947917342185974,-9.794476509094238
1745652279.3571298,0.007098147179931402,0.0042464700527489185,0.0019779843278229237,-0.20268671214580536,0.5287877321243286,-9.771463394165039
1745652279.3786483,-0.0016035292064771056,-0.0023161654826253653,0.0006083410116843879,-0.06896008551120758,0.42583948373794556,-9.768117904663086
1745652279.3816347,0.003537492360919714,0.0021037207916378975,0.0013959225034341216,-0.23383691906929016,0.5599545240402222,-9.799894332885742
1745652279.3845246,0.0018497653072699904,-0.0009588724933564663,0.0015794150531291962,-0.06028402969241142,0.43279194831848145,-9.782400131225586
1745652279.3883035,-0.00103670172393322,-0.0010786815546453,0.002346691209822893,-0.2247837781906128,0.5403304696083069,-9.79527759552002
1745652279.4228332,0.0001744731271173805,-0.0008423911640420556,0.0014902979601174593,-0.10249535739421844,0.45012912154197693,-9.769098281860352
1745652279.4267268,0.00539196515455842,0.00348477135412395,0.0011851915623992682,-0.2241571694612503,0.555611789226532,-9.798036575317383
1745652279.4324303,0.0023671993985772133,-0.00023306494404096156,0.002674518618732691,-0.055598337203264236,0.41905778646469116,-9.755391120910645
1745652279.433283,0.0011545463930815458,0.0019821091555058956,0.0012162721250206232,-0.23645010590553284,0.5576648116111755,-9.794260025024414
1745652279.4677157,0.006105759181082249,0.0047721522860229015,0.001806275569833815,-0.0717262476682663,0.4469738006591797,-9.743738174438477
1745652279.470594,-3.7704594433307648e-06,-0.0007317010313272476,0.00039418647065758705,-0.19015160202980042,0.5107196569442749,-9.774128913879395
1745652279.474034,0.006180906668305397,0.004487787373363972,0.0015751164173707366,-0.116838239133358,0.50194251537323,-9.781694412231445
1745652279.478686,-0.00037659757072106004,-0.0004171984619461,0.0012704369146376848,-0.11821931600570679,0.4223881661891937,-9.78622817993164
1745652279.505572,0.0034549287520349026,0.005665923003107309,0.00026287371292710304,-0.21049675345420837,0.5450040698051453,-9.783525466918945
1745652279.5076382,0.0008372141164727509,0.0011836880585178733,0.004228683654218912,-0.0583638921380043,0.42171502113342285,-9.757617950439453
1745652279.5088408,0.0024895393289625645,0.002274397760629654,0.0012442392762750387,-0.24776525795459747,0.5486553907394409,-9.777113914489746
1745652279.5103662,0.0052681611850857735,0.004072654992341995,0.0005722198984585702,-0.06647808849811554,0.43407168984413147,-9.76813793182373
1745652279.5115166,-0.003443049732595682,-0.0021709627471864223,0.0002143284073099494,-0.20514044165611267,0.5066683888435364,-9.758166313171387
1745652279.552217,0.005995764397084713,0.00223091384395957,-0.002780644688755274,-0.16561797261238098,0.5376682877540588,-9.744479179382324
1745652279.5560832,-0.002456314628943801,-0.004470436833798885,0.0002493099891580641,-0.08218470960855484,0.4423377513885498,-9.775495529174805
1745652279.5571468,0.0033483668230473995,0.001048796228133142,-0.000531076337210834,-0.21856608986854553,0.5698200464248657,-9.799254417419434
1745652279.559008,0.0021676463074982166,-0.0022727670148015022,-0.0015331939794123173,-0.04562687128782272,0.43401607871055603,-9.753479957580566
1745652279.5927389,0.000323170970659703,-0.003993574995547533,-0.0002929144829977304,-0.20305339992046356,0.5391287803649902,-9.7570161819458
1745652279.5957751,0.005511026363819838,0.0005778957856819034,-0.002216835506260395,-0.06660056859254837,0.47228431701660156,-9.764167785644531
1745652279.5973544,-0.003397129476070404,-0.0055219996720552444,-0.00022563566744793206,-0.17343945801258087,0.5285454988479614,-9.78956413269043
1745652279.6002073,0.005118851084262133,0.0026100906543433666,0.0015928080538287759,-0.14827439188957214,0.5096217393875122,-9.779746055603027
1745652279.6359406,0.0002017363003687933,-0.005666766315698624,-0.0013347071362659335,-0.11093553155660629,0.445483535528183,-9.770849227905273
1745652279.63935,0.0036788340657949448,0.0009347266750410199,-0.00026122923009097576,-0.210370734333992,0.5790724158287048,-9.770203590393066
1745652279.6437116,0.0008191708475351334,-0.003068308811634779,-0.00017970686894841492,-0.05913686752319336,0.44215336441993713,-9.7528715133667
1745652279.6462445,0.0030078724958002567,-0.0007580462843179703,-0.0003859107964672148,-0.23323407769203186,0.5758486986160278,-9.7828950881958
1745652279.6494858,0.0027920950669795275,-0.00011186590563738719,0.00020475145720411092,-0.04630160331726074,0.4580133557319641,-9.760004997253418
1745652279.6856973,-0.0019273962825536728,-0.00344291003420949,0.0008523290161974728,-0.18726296722888947,0.5262908339500427,-9.803722381591797
1745652279.6871068,0.0076506235636770725,0.0003061507304664701,-1.8106773495674133e-05,-0.1254165768623352,0.5172253847122192,-9.778099060058594
1745652279.6907005,-0.0008392563322558999,-0.004822318907827139,0.001055871369317174,-0.1310597062110901,0.48631685972213745,-9.763761520385742
1745652279.6942234,0.006164828781038523,0.0018484356114640832,-0.0003549985704012215,-0.17900201678276062,0.5427238941192627,-9.762907028198242
1745652279.7225587,-0.0002690862456802279,-0.0039009253960102797,-0.000726621481589973,-0.05919765308499336,0.4511237144470215,-9.777719497680664
1745652279.7277615,0.0025030740071088076,0.0005920185358263552,0.0027095514815300703,-0.22281977534294128,0.5683220028877258,-9.808239936828613
1745652279.7293007,0.002339194295927882,-0.001206480897963047,0.001511777169071138,-0.05046284198760986,0.43729814887046814,-9.738048553466797
1745652279.7334557,-0.0006608596304431558,-0.0037925750948488712,-0.0010099915089085698,-0.20828337967395782,0.5509470701217651,-9.783239364624023
1745652279.7356195,0.0060848696157336235,0.0023570868652313948,0.003692964557558298,-0.09951508790254593,0.48772644996643066,-9.77391242980957
1745652279.7673137,-7.69073812989518e-05,-0.005217657890170813,0.0011121805291622877,-0.13426479697227478,0.501390814781189,-9.78938102722168
1745652279.7679389,0.003824980463832617,-0.0006691054441034794,0.004079633392393589,-0.04885464161634445,0.4368956983089447,-9.78026008605957
1745652279.7701647,0.0014745285734534264,-0.001580740325152874,0.0003532914852257818,-0.2286180704832077,0.5509946346282959,-9.776483535766602
1745652279.7730765,0.0057807802222669125,0.001053659594617784,0.002141071017831564,-0.08318774402141571,0.4770132005214691,-9.76300048828125
1745652279.8100348,0.000552857294678688,-0.0037815875839442015,0.004189503379166126,-0.18934158980846405,0.5063455700874329,-9.79985523223877
1745652279.8120403,0.005250151734799147,0.0017933836206793785,0.0009811286581680179,-0.1582302302122116,0.5344551801681519,-9.77928352355957
1745652279.8147871,0.0018695881590247154,-0.005219337996095419,0.0017861392116174102,-0.09735773503780365,0.4347473680973053,-9.758710861206055
1745652279.8159907,0.006301042623817921,0.0020074930507689714,0.0016998054925352335,-0.20518001914024353,0.5567256212234497,-9.778623580932617
1745652279.8507056,0.0032145704608410597,-0.0016030013794079423,0.002212413353845477,-0.06511513888835907,0.41942673921585083,-9.760534286499023
1745652279.8528225,0.0023670897353440523,-0.000277673447271809,0.003377839457243681,-0.24858316779136658,0.565538227558136,-9.792085647583008
1745652279.857323,0.0072436342015862465,0.0010876026935875416,0.002619063016027212,-0.06587040424346924,0.45908910036087036,-9.753652572631836
1745652279.8627408,-0.0005734934820793569,-0.002964331302791834,0.002901635365560651,-0.2058505117893219,0.5123059749603271,-9.778005599975586
1745652279.8638344,0.008392642252147198,0.002269676188006997,0.0019378215074539185,-0.13333842158317566,0.49806252121925354,-9.763236999511719
1745652279.8960369,-0.0008492676424793899,-0.003494494827464223,0.0010855898726731539,-0.14408083260059357,0.4656446576118469,-9.767837524414062
1745652279.9065104,0.0033933601807802916,0.003858338575810194,-0.0002781553193926811,-0.2012573927640915,0.5546258091926575,-9.786188125610352
1745652279.906641,0.0015186337986961007,0.0006399866542778909,0.00012255203910171986,-0.01737939938902855,0.4085519313812256,-9.769450187683105
1745652279.912882,-0.0012490568915382028,0.0018352940678596497,-0.0005569081986322999,-0.1945130079984665,0.5439515709877014,-9.779406547546387
1745652279.9374774,0.003906584344804287,0.005834716837853193,-0.00010015186853706837,-0.04103145748376846,0.46278780698776245,-9.766180992126465
1745652279.9396255,-0.00017224364273715764,-0.0019015080761164427,-0.00020539076649583876,-0.15363264083862305,0.4850512146949768,-9.804064750671387
1745652279.9431884,0.005712810903787613,0.005037202034145594,-0.0018131558317691088,-0.10109744966030121,0.5142987370491028,-9.766294479370117
1745652279.946736,-0.0028658644296228886,-0.002427952131256461,-0.0003482881002128124,-0.08790508657693863,0.4505266547203064,-9.766044616699219
1745652279.9817264,0.005614861845970154,0.004947301931679249,-0.0013146295677870512,-0.19462671875953674,0.563412070274353,-9.781171798706055
1745652279.9855917,0.0024526517372578382,0.0009757839143276215,0.0007179571548476815,-0.04483243077993393,0.42847371101379395,-9.758397102355957
1745652279.9891129,0.0015677608316764235,0.0027189799584448338,-0.001262781792320311,-0.19777023792266846,0.5595518946647644,-9.774744033813477
1745652279.9924188,0.007582286838442087,0.001580135547555983,-0.001940957852639258,-0.050637174397706985,0.4311448633670807,-9.772661209106445
1745652279.9946935,-0.0008213429828174412,0.0010151807218790054,-0.0008013496408239007,-0.1956058144569397,0.512357234954834,-9.798386573791504
1745652280.0257998,0.008747938089072704,0.0027959076687693596,0.0012022759765386581,-0.10410823673009872,0.48587337136268616,-9.759660720825195
1745652280.0309284,0.0003152017015963793,-0.0009850520873442292,-0.0010234328219667077,-0.11126188933849335,0.44490233063697815,-9.770369529724121
1745652280.033318,0.006016115192323923,0.0043039084412157536,0.0012691657757386565,-0.1853017657995224,0.5311874151229858,-9.787105560302734
1745652280.0366812,0.0005425669951364398,-0.0018771238392218947,0.0002505742013454437,-0.0752284899353981,0.4003453850746155,-9.755187034606934
1745652280.0703516,0.0030794935300946236,0.0028376602567732334,-9.576990123605356e-05,-0.22922487556934357,0.5502509474754333,-9.778522491455078
1745652280.071831,0.00075818708864972,0.0007316942792385817,0.00041009634151123464,-0.06433529406785965,0.40693122148513794,-9.779594421386719
1745652280.073366,-0.002151321852579713,-0.0013176626525819302,0.0025638709776103497,-0.1994270384311676,0.5083543062210083,-9.76575756072998
1745652280.0763505,0.003513383213430643,0.003475723322480917,-0.001103007816709578,-0.06996442377567291,0.45890188217163086,-9.747125625610352
1745652280.1092844,-0.0035491574089974165,-0.003432138357311487,0.00019864893693011254,-0.1529955118894577,0.4789275527000427,-9.792160034179688
1745652280.1106782,0.003322359872981906,0.0032453611493110657,0.000830139615572989,-0.1511974036693573,0.5175204277038574,-9.77894401550293
1745652280.1140857,0.003931249026209116,0.0021358351223170757,0.0006819083355367184,-0.06939862668514252,0.45254892110824585,-9.771490097045898
1745652280.1154213,-0.0025046400260180235,-0.004616972990334034,0.0010156157659366727,-0.1681675910949707,0.5087245106697083,-9.810479164123535
1745652280.153549,0.005814361851662397,0.002658326644450426,0.0037585864774882793,-0.1090640276670456,0.5004826784133911,-9.769648551940918
1745652280.1543524,-0.000797463464550674,-0.005510957445949316,0.001989732962101698,-0.05229347199201584,0.43224722146987915,-9.799551963806152
1745652280.158786,0.00654760142788291,3.9689202822046354e-05,0.0019927844405174255,-0.1429688036441803,0.5552321076393127,-9.836252212524414
1745652280.1618204,0.002150512533262372,-0.006329455878585577,0.002468680962920189,0.027196411043405533,0.44257181882858276,-9.807269096374512
1745652280.1636727,0.002952973125502467,-0.003298115450888872,0.001492033712565899,-0.17687523365020752,0.5840175151824951,-9.801545143127441
1745652280.1980605,0.005362571682780981,-0.004050352144986391,-0.0011413245229050517,0.011644315905869007,0.4917096495628357,-9.749218940734863
1745652280.201374,0.0003092549741268158,-0.005466954782605171,-0.0008674397831782699,-0.13412395119667053,0.5697149038314819,-9.771557807922363
1745652280.2052739,0.0076891956850886345,-0.00041426997631788254,-0.0037078354507684708,-0.083524689078331,0.5268000960350037,-9.766955375671387
1745652280.2071645,-0.0005298390751704574,-0.004850776866078377,-0.004386647138744593,-0.0881643295288086,0.48316073417663574,-9.75487995147705
1745652280.2411156,0.005838996265083551,0.000470784172648564,-0.005038239993155003,-0.16650600731372833,0.49705857038497925,-9.793905258178711
1745652280.2412503,-1.060180329659488e-05,-0.0061716740019619465,-0.0034084240905940533,-0.04988528788089752,0.38699787855148315,-9.79075813293457
1745652280.244428,0.0013822730397805572,-0.0006970188696868718,-0.0024825003929436207,-0.22992520034313202,0.5245161652565002,-9.745124816894531
1745652280.247719,-0.0030909155029803514,-0.008387356996536255,0.004073388874530792,-0.029496371746063232,0.26841750741004944,-9.768980979919434
1745652280.2529166,-0.01016500499099493,-0.00974665954709053,0.0014427518472075462,-0.2030511200428009,0.447431743144989,-9.746271133422852
1745652280.2857535,-0.01209385134279728,-0.005512117408216,0.0017490858444944024,-0.031165102496743202,0.3691592812538147,-9.744997024536133
1745652280.2936609,-0.023272207006812096,-0.01088450662791729,8.489492756780237e-05,-0.11492736637592316,0.45667847990989685,-9.806241035461426
1745652280.2947934,-0.017767364159226418,-0.0035988111048936844,-0.0007572214235551655,-0.07798360288143158,0.479814350605011,-9.800962448120117
1745652280.2958999,-0.02622210420668125,-0.010744789615273476,-0.0007443630020134151,-0.039604850113391876,0.48481425642967224,-9.791114807128906
1745652280.3306262,-0.01570729911327362,-0.0062961271032691,-0.0006971883703954518,-0.14530417323112488,0.6130437850952148,-9.798945426940918
1745652280.3323536,-0.014930769801139832,-0.007304656319320202,-0.0013364077312871814,-0.03658872842788696,0.5441107749938965,-9.771944046020508
1745652280.335295,-0.005215886048972607,-0.004866881761699915,-0.0010940231150016189,-0.2105553150177002,0.7196120619773865,-9.747400283813477
1745652280.3387618,0.006140346173197031,-0.00533661711961031,-0.00024321074306499213,-0.05630429834127426,0.6103278994560242,-9.738374710083008
1745652280.3688884,0.012757020071148872,-0.006675250828266144,-0.0011306590167805552,-0.22002160549163818,0.6644080877304077,-9.779500007629395
1745652280.3722403,0.02433677576482296,-0.0006793486536480486,-0.0008022467372938991,-0.11992033571004868,0.5746206641197205,-9.746066093444824
1745652280.376576,0.0237982627004385,-0.006907745264470577,0.0022645932622253895,-0.17565083503723145,0.5217496156692505,-9.753893852233887
1745652280.378446,0.03053337335586548,-0.0017954237991943955,0.0011617172276601195,-0.2090827226638794,0.5236331820487976,-9.789997100830078
1745652280.3801122,0.026204654946923256,-0.005697896238416433,0.00306689809076488,-0.09646441042423248,0.3950154781341553,-9.771401405334473
1745652280.4145246,0.025397058576345444,-0.0007906900718808174,0.0027363677509129047,-0.26244810223579407,0.46895909309387207,-9.776155471801758
1745652280.4175646,0.021941550076007843,-0.006652715150266886,0.005302084144204855,-0.07607962191104889,0.2891293168067932,-9.754929542541504
1745652280.4222534,0.00844283401966095,-0.005986510775983334,0.00440532760694623,-0.24212613701820374,0.4164137840270996,-9.840619087219238
1745652280.4260862,0.008603844791650772,-0.004027537070214748,0.00238408031873405,-0.11572222411632538,0.31465214490890503,-9.830044746398926
1745652280.4551969,-0.00758510222658515,-0.010838329792022705,0.002193125430494547,-0.19495873153209686,0.3847321569919586,-9.762333869934082
1745652280.4574215,-0.0037285382859408855,-0.0046187471598386765,-0.0006517581059597433,-0.20740249752998352,0.46509450674057007,-9.70963191986084
1745652280.4613142,-0.01876145787537098,-0.009682590141892433,-0.0006243899697437882,-0.15684306621551514,0.40873652696609497,-9.746495246887207
1745652280.4635143,0.0024671312421560287,0.0011994593078270555,-0.0013091899454593658,-0.15367966890335083,0.5758857727050781,-9.76419448852539
1745652280.4965005,0.0030563194304704666,-0.008262606337666512,0.0005464482237584889,-0.12147979438304901,0.5458561778068542,-9.80039119720459
1745652280.49874,0.01367957890033722,0.0006747288862243295,0.001034918474033475,-0.21447333693504333,0.6004983186721802,-9.824858665466309
1745652280.5004818,0.011536875739693642,-0.004580626729875803,0.0037272342015057802,-0.05207782983779907,0.44653040170669556,-9.775245666503906
1745652280.5019517,0.01911785639822483,-0.0012600586051121354,0.001840538694523275,-0.20681020617485046,0.5719847679138184,-9.787721633911133
1745652280.505953,0.019060403108596802,-0.002221016911789775,0.006145740393549204,-0.01854509860277176,0.4317532479763031,-9.777995109558105
1745652280.5403063,0.015089603140950203,-0.005548177286982536,0.005087267607450485,-0.1840479075908661,0.49230632185935974,-9.80897331237793
1745652280.5440145,0.019347524270415306,-0.0013780492590740323,0.004993158392608166,-0.06377717852592468,0.4186846613883972,-9.77543830871582
1745652280.5482082,0.00824661273509264,-0.00606937613338232,0.0023857983760535717,-0.10520072281360626,0.40847665071487427,-9.767279624938965
1745652280.5516608,0.008646728470921516,0.002217009197920561,0.00418428797274828,-0.12463994324207306,0.44576138257980347,-9.783900260925293
1745652280.583174,-0.002743674907833338,-0.0072388844564557076,0.0016875980654731393,-0.05116642639040947,0.3900066912174225,-9.774191856384277
1745652280.587005,-0.0009168243268504739,0.0029659345746040344,0.00015801802510395646,-0.202220156788826,0.5224348306655884,-9.777383804321289
1745652280.5908194,-0.006189842242747545,-0.003070251550525427,-0.0011854690965265036,-0.0257179643958807,0.40189439058303833,-9.766950607299805
1745652280.5942233,-0.010753089562058449,-0.0032045170664787292,-0.0018788259476423264,-0.20067735016345978,0.5320588946342468,-9.813928604125977
1745652280.5982072,0.0112907188013196,0.001321788295172155,-0.0059984419494867325,-0.10539586842060089,0.47306370735168457,-9.779949188232422
1745652280.625569,-0.0006267389398999512,-0.0038444180972874165,-0.003257565200328827,-0.12382860481739044,0.4262405335903168,-9.782978057861328
1745652280.6256266,0.0033513412345200777,0.0017831266159191728,-0.006444004829972982,-0.20264680683612823,0.4927952289581299,-9.762945175170898
1745652280.6273694,-0.004755602218210697,-0.003241527359932661,-0.002689808839932084,-0.0690392479300499,0.347890168428421,-9.759015083312988
1745652280.637363,-0.005917983595281839,-0.0002029026800300926,-0.004692119546234608,-0.2584262788295746,0.47286146879196167,-9.798705101013184
1745652280.6695313,-0.005264466628432274,-0.0026243343017995358,-0.0011824534740298986,-0.08067334443330765,0.36746668815612793,-9.762487411499023
1745652280.6716914,-0.008940286934375763,-0.004624136723577976,-0.0003366005257703364,-0.2794201672077179,0.4850786626338959,-9.8042631149292
1745652280.6765006,-0.003568686079233885,-0.0028340760618448257,0.0018818855751305819,-0.14342539012432098,0.442467600107193,-9.747373580932617
1745652280.6864886,-0.006847787648439407,-0.006181157659739256,0.0049729375168681145,-0.1890735626220703,0.46848759055137634,-9.760419845581055
1745652280.7128906,-0.0003289832966402173,-0.0006878582062199712,0.0033097551204264164,-0.20656344294548035,0.5492895841598511,-9.766328811645508
1745652280.7160873,0.0005169039941392839,-0.0065139420330524445,0.006635848432779312,-0.11659348011016846,0.4973479211330414,-9.74045467376709
1745652280.7167857,0.004076936282217503,-0.0022287664469331503,0.004907477181404829,-0.24630184471607208,0.6286367774009705,-9.76274585723877
1745652280.7190824,0.006200356874614954,-0.005347967613488436,0.0034503485076129436,-0.07672119140625,0.49347466230392456,-9.755757331848145
1745652280.7208343,0.007112564984709024,-0.0034667341969907284,0.004624360240995884,-0.250503808259964,0.6176669597625732,-9.764385223388672
1745652280.7565663,0.012125084176659584,-0.00015156045265030116,0.0019826835487037897,-0.0879507064819336,0.5080901384353638,-9.747361183166504
1745652280.7593892,0.006544214673340321,-0.004725366830825806,0.002023210283368826,-0.16571858525276184,0.5331796407699585,-9.774110794067383
1745652280.7627878,0.012873237952589989,5.465941649163142e-05,-0.0009608892723917961,-0.12053358554840088,0.5170239210128784,-9.766576766967773
1745652280.7673063,0.0028694113716483116,-0.005990735255181789,-0.0021487160120159388,-0.06478478759527206,0.432732492685318,-9.781493186950684
1745652280.8026934,0.00794818252325058,0.0010328951757401228,-0.0009223175002261996,-0.19955085217952728,0.5045431852340698,-9.811755180358887
1745652280.8027918,-0.0007274433155544102,-0.005009590648114681,-0.0027529350481927395,-0.02076776698231697,0.35360825061798096,-9.760787010192871
1745652280.8033586,-0.003076916793361306,-0.0018351797480136156,-0.0024973179679363966,-0.2051047831773758,0.4711541533470154,-9.781431198120117
1745652280.806676,-0.0004244167357683182,-0.004084610380232334,-0.0013132314197719097,-0.04610048606991768,0.367569237947464,-9.785197257995605
1745652280.8095798,-0.01031684409826994,-0.00431146239861846,-0.0010846629738807678,-0.17428012192249298,0.4481974244117737,-9.797232627868652
1745652280.843617,-0.0013260369887575507,0.00045126606710255146,0.0032559887040406466,-0.20575013756752014,0.5352857112884521,-9.767862319946289
1745652280.8451648,-0.004935997538268566,-0.004601120017468929,0.004032881464809179,-0.06925372779369354,0.4459729790687561,-9.758783340454102
1745652280.8464684,-0.000641902326606214,-0.0004608190502040088,0.004161281976848841,-0.24471327662467957,0.6069415807723999,-9.774885177612305
1745652280.8490329,0.005500953644514084,-0.001108407275751233,0.005891549866646528,-0.07674761116504669,0.488463819026947,-9.752043724060059
1745652280.887394,0.002730031032115221,-0.0047973766922950745,0.0012403803411871195,-0.2364807426929474,0.6122021675109863,-9.797341346740723
1745652280.8955874,0.012462367303669453,0.0006183982477523386,0.0034521662164479494,-0.10181031376123428,0.5548101663589478,-9.77337646484375
1745652280.8957186,0.00593570014461875,-0.0054829856380820274,0.0029870064463466406,-0.14988943934440613,0.527826189994812,-9.770190238952637
1745652280.896301,0.014098810032010078,-0.0005462843691930175,0.0026941525284200907,-0.17104870080947876,0.5680522322654724,-9.763291358947754
1745652280.9262047,0.007315033581107855,-0.004667679779231548,0.0006910907686688006,-0.10826756060123444,0.45139044523239136,-9.790779113769531
1745652280.9308553,0.00973298866301775,-0.0015179043402895331,-0.0005148258642293513,-0.23463718593120575,0.5547581315040588,-9.796024322509766
1745652280.9312205,0.006402932107448578,-0.005331343971192837,-0.0003380576381459832,-0.06689716130495071,0.3763863444328308,-9.759468078613281
1745652280.9334662,0.0008928252500481904,-0.004712055437266827,-0.002199873561039567,-0.23758845031261444,0.4934292733669281,-9.790288925170898
1745652280.9735363,-0.000911847862880677,0.0018102653557434678,0.0014159202110022306,-0.2309158593416214,0.507282555103302,-9.776418685913086
1745652280.976978,-0.0013453407445922494,-0.0005913710920140147,0.002114931121468544,-0.06661538779735565,0.400333970785141,-9.762332916259766
1745652280.9805086,-0.006713344249874353,-0.0012431667419150472,0.0013080948265269399,-0.23025283217430115,0.5296008586883545,-9.79553508758545
1745652280.9817984,0.0006872396916151047,0.000567468989174813,0.0009215798345394433,-0.10630558431148529,0.4834500849246979,-9.784746170043945
1745652281.0142624,-0.006124990526586771,-0.002749866805970669,0.002558586886152625,-0.16002777218818665,0.4779437482357025,-9.771245956420898
1745652281.0147934,0.004348798654973507,0.0029273931868374348,0.0025858774315565825,-0.1795164793729782,0.5513851642608643,-9.761373519897461
1745652281.0187051,-0.0009257703204639256,-0.0030322254169732332,0.0004430550034157932,-0.10427851974964142,0.48730355501174927,-9.777812957763672
1745652281.0232193,0.007300189230591059,0.0027215247973799706,0.0011261634062975645,-0.24186018109321594,0.593994677066803,-9.78479290008545
1745652281.0606608,0.005933691747486591,-0.0014116829261183739,0.0025865996722131968,-0.07423964142799377,0.45644235610961914,-9.764646530151367
1745652281.060818,0.006393211893737316,-0.00041870749555528164,9.44051644182764e-05,-0.24942317605018616,0.5742270946502686,-9.775368690490723
1745652281.0608926,0.01214545127004385,0.0032729837112128735,0.0012567918747663498,-0.10065175592899323,0.4655337929725647,-9.7478609085083
1745652281.0640469,0.004961770959198475,-0.002799993148073554,0.000662627920974046,-0.21177610754966736,0.5022271275520325,-9.774657249450684
1745652281.0671968,0.012220514938235283,0.005326250102370977,-0.0010787497740238905,-0.15424630045890808,0.4944797456264496,-9.740447998046875
1745652281.1004646,0.004876196384429932,-0.00366348959505558,-0.00036551785888150334,-0.1438097506761551,0.40521129965782166,-9.7644624710083
1745652281.10489,0.007617533206939697,0.0035628241021186113,-0.0011276437435299158,-0.23859234154224396,0.5327608585357666,-9.78745174407959
1745652281.1084971,8.3163809904363e-05,-0.0008423713152296841,0.00025716517120599747,-0.08438639342784882,0.3746952414512634,-9.754020690917969
1745652281.1118243,0.0032401815988123417,0.002030374947935343,-0.000706483144313097,-0.2671971023082733,0.513961672782898,-9.764628410339355
1745652281.14292,0.0012429895577952266,0.0021142091136425734,0.0005942861316725612,-0.09277815371751785,0.3999183177947998,-9.737269401550293
1745652281.1464293,-0.00667305663228035,-8.801696822047234e-05,-0.0020181823056191206,-0.2254582941532135,0.49996042251586914,-9.765473365783691
1745652281.1493518,0.003181644482538104,0.004707519896328449,0.0020598839037120342,-0.15072128176689148,0.4608960747718811,-9.768973350524902
1745652281.1524363,-0.005085550714284182,-0.0026350689586251974,0.0002592790697235614,-0.16000321507453918,0.4574751853942871,-9.7588472366333
1745652281.154571,0.002149401232600212,0.004118544049561024,-0.000409420405048877,-0.20945608615875244,0.5227968692779541,-9.759077072143555
1745652281.1875162,-0.004509476013481617,-0.0026620652060955763,0.0015324733685702085,-0.10118605941534042,0.43455904722213745,-9.769762992858887
1745652281.1899548,0.0018968817312270403,0.002393531845882535,0.00013292110816109926,-0.2653765082359314,0.5774799585342407,-9.80565071105957
1745652281.192539,0.0014751087874174118,0.0012153619900345802,0.0012752452166751027,-0.06398357450962067,0.4534483551979065,-9.759747505187988
1745652281.1954455,-0.001434269011951983,-0.0011756373569369316,-0.0006841716240160167,-0.236164852976799,0.5609959363937378,-9.769652366638184
1745652281.2292783,0.009253320284187794,0.0016886675730347633,0.0009600839694030583,-0.09787599742412567,0.4771377444267273,-9.74882698059082
1745652281.2325082,3.204722816008143e-05,-0.0030874498188495636,0.0005612443783320487,-0.16409467160701752,0.4901292324066162,-9.782620429992676
1745652281.2348921,0.009031053632497787,0.0043740542605519295,0.0002445707214064896,-0.1693059504032135,0.5201065540313721,-9.786124229431152
1745652281.236646,0.0022799985017627478,-0.0033127334900200367,0.0014839180512353778,-0.06956637650728226,0.4184950888156891,-9.739542007446289
1745652281.2705,0.004922232124954462,0.0028884666971862316,0.0005836396594531834,-0.2089173048734665,0.5532934069633484,-9.778358459472656
1745652281.273708,0.003282994730398059,-0.0007780098239891231,0.0008221868192777038,-0.022043664008378983,0.40492159128189087,-9.770892143249512
1745652281.2774377,0.002517302054911852,0.0003507660294417292,-0.0006394502706825733,-0.21593236923217773,0.5253796577453613,-9.819360733032227
1745652281.2804327,0.004546725191175938,0.0024278112687170506,-0.0007400175672955811,-0.05496671050786972,0.43383917212486267,-9.742568016052246
1745652281.2830858,-0.0025469702668488026,-0.004462949465960264,0.0007130361627787352,-0.15350477397441864,0.4842250347137451,-9.779792785644531
1745652281.4526181,0.004138610325753689,0.004883723333477974,0.0009248991264030337,-0.11628073453903198,0.5005455613136292,-9.794589042663574
1745652281.4631722,0.006440478377044201,-0.0013101972872391343,0.0016881863120943308,-0.05710775777697563,0.4249260425567627,-9.765778541564941
1745652281.4633033,0.0009340682881884277,-0.0028577493503689766,0.0013441689079627395,-0.22801633179187775,0.522067666053772,-9.77967357635498
1745652281.4633846,0.007864144630730152,0.00028978381305933,6.689969450235367e-05,-0.11225329339504242,0.4641892910003662,-9.757061958312988
1745652281.4634316,-0.000441544980276376,-0.003933308646082878,0.0004077552875969559,-0.18748211860656738,0.48284149169921875,-9.794675827026367
1745652281.4971259,0.007115351967513561,0.002054454293102026,0.0025147288106381893,-0.18517713248729706,0.5245445966720581,-9.78126049041748
1745652281.4975364,-0.0007036832976154983,-0.0035350173711776733,0.00084752740804106,-0.11917150020599365,0.40604153275489807,-9.756940841674805
1745652281.5051665,0.005341849289834499,0.0009297599317505956,0.00021019107953179628,-0.24696128070354462,0.5679858326911926,-9.771636962890625
1745652281.52504,0.0026718908920884132,-0.001199493883177638,0.0002325421228306368,-0.08692403137683868,0.421011358499527,-9.772256851196289
1745652281.5343015,-4.393044946482405e-05,-0.0030037013348191977,0.0017929740715771914,-0.24866144359111786,0.5578281283378601,-9.777616500854492
1745652281.5356889,0.008121790364384651,0.001081356662325561,0.0001961735833901912,-0.10042951256036758,0.4598626494407654,-9.733503341674805
1745652281.5577786,-0.0006832617800682783,-0.004152478650212288,-0.0017076540971174836,-0.20556135475635529,0.4767957329750061,-9.777105331420898
1745652281.5596507,0.007139533758163452,0.0017992900684475899,0.00034900379250757396,-0.17079702019691467,0.5020378232002258,-9.783498764038086
1745652281.5615108,0.0001730390649754554,-0.00269903801381588,0.0011382035445421934,-0.13476212322711945,0.46490639448165894,-9.750244140625
1745652281.5693502,0.005564939230680466,0.000850544951390475,-0.0010871287668123841,-0.2375713288784027,0.51941978931427,-9.756863594055176
1745652281.596245,0.002906717825680971,-0.003244540188461542,0.000962300575338304,-0.06671919673681259,0.40162548422813416,-9.769099235534668
1745652281.5963461,0.002559864427894354,0.001315228990279138,-0.0010910800192505121,-0.23892930150032043,0.5509487390518188,-9.789144515991211
1745652281.6178296,0.005041579250246286,-0.0015575789147987962,0.002224602038040757,-0.07889477908611298,0.4193664491176605,-9.742464065551758
1745652281.627237,-0.001475226366892457,-0.00021661786013282835,-0.0007577127544209361,-0.21265697479248047,0.5280933380126953,-9.781913757324219
1745652281.6510262,0.007741889916360378,0.002127451356500387,0.00028133447631262243,-0.10156873613595963,0.46796244382858276,-9.77737808227539
1745652281.652631,-0.004316201899200678,-0.004188410937786102,0.001893730484880507,-0.14091697335243225,0.44349080324172974,-9.76623249053955
1745652281.653579,0.004027605522423983,0.0038027893751859665,-0.0006809671176597476,-0.19552896916866302,0.5241584777832031,-9.765474319458008
1745652281.6572926,0.0006700340891256928,-0.0031425594352185726,0.0025469765532761812,-0.07337603718042374,0.42628493905067444,-9.771870613098145
1745652281.6770027,0.0014901617541909218,-2.58665522778756e-06,0.0012630585115402937,-0.2131952941417694,0.5514519214630127,-9.800830841064453
1745652281.6790006,-0.002016497543081641,-0.0013810282107442617,0.002810179954394698,-0.21424801647663116,0.5421247482299805,-9.783258438110352
1745652281.7200212,0.004272286780178547,0.0004241669084876776,0.0007632289780303836,-0.08579994738101959,0.45556801557540894,-9.780466079711914
1745652281.7201195,-0.003068214748054743,-0.004668993875384331,0.0012241197982802987,-0.15604357421398163,0.48523759841918945,-9.771242141723633
1745652281.7338555,0.004461195785552263,0.001559704658575356,0.0017270480748265982,-0.1650404930114746,0.5250757336616516,-9.747185707092285
1745652281.7394705,-0.002411557361483574,-0.005375937558710575,0.0036172729451209307,-0.09843603521585464,0.44293540716171265,-9.765928268432617
1745652281.7821786,0.0024284576065838337,0.0016398988664150238,-0.00022995416657067835,-0.21786454319953918,0.5510475039482117,-9.782207489013672
1745652281.7915745,0.0016935464227572083,-0.0025869894307106733,0.0007993271574378014,-0.046724833548069,0.41246622800827026,-9.752164840698242
1745652281.7933705,0.001605213969014585,-0.0006666759145446122,0.0021362497936934233,-0.24516022205352783,0.5599943399429321,-9.76331901550293
1745652281.795527,0.0035755280405282974,0.0018704188987612724,0.0005917289527133107,-0.08257648348808289,0.45107659697532654,-9.745640754699707
1745652281.7970293,-0.0013902309583500028,-0.0024440453853458166,0.000945260573644191,-0.2114284783601761,0.5131906270980835,-9.786253929138184
1745652281.8201663,0.005881373770534992,0.0006774043431505561,0.0016114659374579787,-0.1480158269405365,0.5264593362808228,-9.782936096191406
1745652281.838042,-0.0017597798723727465,-0.004981326870620251,0.0022553964518010616,-0.12364993244409561,0.4455176293849945,-9.754215240478516
1745652281.840959,0.005496867932379246,0.002196472603827715,-1.592278749740217e-05,-0.226838156580925,0.5548877716064453,-9.78547477722168
1745652281.8410199,-0.0004257355467416346,-0.0025334199890494347,0.0026896982453763485,-0.15578563511371613,0.4648342728614807,-9.792757034301758
1745652281.842808,0.006396512035280466,0.003000211203470826,0.0020151627250015736,-0.19556686282157898,0.5311896800994873,-9.781182289123535
1745652281.8428657,0.0017473386833444238,-0.0011285825166851282,0.0036843169946223497,-0.09862209856510162,0.4090217053890228,-9.773704528808594
1745652281.8444874,0.0028923428617417812,0.002147598657757044,0.0003737630322575569,-0.22919075191020966,0.5454521179199219,-9.791129112243652
1745652281.8466399,0.004179756157100201,0.0007167555158957839,0.0006941328756511211,-0.04580540955066681,0.42905840277671814,-9.755167961120605
1745652281.8484664,0.0006186766549944878,-0.0007955793407745659,0.0020435445476323366,-0.2270260751247406,0.5263248085975647,-9.799586296081543
1745652281.8761883,0.0071911984123289585,-0.0004309961514081806,0.001878629787825048,-0.08694180846214294,0.4476932883262634,-9.768963813781738
1745652281.8871489,-0.002592832315713167,-0.00200326694175601,0.002024538815021515,-0.16523152589797974,0.48135948181152344,-9.797406196594238
1745652281.8872201,0.007022194564342499,0.0026630365755409002,0.0015569351380690932,-0.13843420147895813,0.5085664987564087,-9.785148620605469
1745652281.8962216,0.00010939296043943614,-0.0028035384602844715,0.003107832744717598,-0.09274552017450333,0.4205920696258545,-9.77782917022705
1745652281.896262,0.00396212050691247,0.0023965653963387012,0.00020191706425976008,-0.21639220416545868,0.5497928261756897,-9.799567222595215
1745652281.916709,0.0032974586356431246,-0.0022621743846684694,0.0027367754373699427,-0.06799836456775665,0.4208073616027832,-9.757977485656738
1745652281.9293108,-9.99634139589034e-05,-0.00023773955763317645,0.0006796312518417835,-0.23684346675872803,0.5418044924736023,-9.777826309204102
1745652281.9443588,0.005924316123127937,-2.414677328488324e-05,0.0008482326520606875,-0.06695373356342316,0.44097012281417847,-9.763368606567383
1745652281.9464207,-0.0005069721373729408,-0.00238701980561018,-0.0003705325652845204,-0.19609031081199646,0.5030460357666016,-9.789888381958008
1745652281.9474123,0.006829750724136829,0.0011909722816199064,0.0007501918007619679,-0.14775510132312775,0.5039793848991394,-9.770975112915039
1745652281.9479532,-0.0014415276236832142,-0.002518570749089122,0.0016212004702538252,-0.1251063346862793,0.4490582048892975,-9.780211448669434
1745652281.95701,0.00552768399938941,0.0034690878819674253,0.0010744748869910836,-0.20698532462120056,0.5375665426254272,-9.757890701293945
1745652281.9571033,0.0007409175159409642,-0.001707263640128076,0.0008613696554675698,-0.058422915637493134,0.4058518409729004,-9.73408031463623
1745652281.9575248,0.003042093478143215,-0.0017477052751928568,0.0003295911883469671,-0.27093905210494995,0.5535573363304138,-9.785507202148438
1745652281.9575953,0.0048240008763968945,0.001023341086693108,-0.0007309621432796121,-0.08523460477590561,0.4135611951351166,-9.780534744262695
1745652281.9588,-0.0010397227015346289,-0.0034948319662362337,0.0010240740375593305,-0.24062077701091766,0.5098356008529663,-9.784164428710938
1745652281.9598014,0.006393598858267069,0.0031015733256936073,0.000541326473467052,-0.1369851529598236,0.4890567660331726,-9.757373809814453
1745652281.9634795,0.004338403698056936,0.0016362436581403017,0.0010702322470024228,-0.20568981766700745,0.5322805643081665,-9.790655136108398
1745652281.9651687,0.000517329026479274,-0.004019112326204777,0.0009898960124701262,-0.09695883840322495,0.41403818130493164,-9.764608383178711
1745652281.9662158,0.001700996421277523,0.0002253837010357529,-0.0013005512300878763,-0.24367430806159973,0.540500283241272,-9.764758110046387
1745652281.9688466,0.0024913151282817125,-0.001488332636654377,0.0011456997599452734,-0.06621945649385452,0.433989942073822,-9.756482124328613
1745652281.971025,-0.0018111916724592447,-0.004528638906776905,-0.0008926818263716996,-0.22146597504615784,0.5123788714408875,-9.819839477539062
1745652281.972204,0.006058214697986841,0.0013122601667419076,-0.0009025521576404572,-0.11125554889440536,0.47673264145851135,-9.78077507019043
1745652281.9751668,-0.0024622376076877117,-0.004865221679210663,-9.620119817554951e-05,-0.1516757309436798,0.4866827428340912,-9.745409965515137
1745652281.9769669,0.004557385109364986,-0.001005078898742795,-0.0016661385307088494,-0.17804735898971558,0.5560124516487122,-9.769158363342285
1745652282.0017958,-8.407719724345952e-05,-0.0032916776835918427,-0.0014854463515803218,-0.06110372394323349,0.42635980248451233,-9.794809341430664
1745652282.0049953,0.0016175437485799193,-7.47015728848055e-05,-0.000702661753166467,-0.23349544405937195,0.5618431568145752,-9.792229652404785
1745652282.0068293,0.002719556912779808,-0.0018346558790653944,-0.0002797917404677719,-0.06234387680888176,0.4210699200630188,-9.726110458374023
1745652282.0095894,-0.0005019710515625775,-0.002767867874354124,-0.0007019812474027276,-0.22570505738258362,0.5241760015487671,-9.789082527160645
1745652282.046902,0.004481827840209007,1.475634053349495e-05,0.0034988676197826862,-0.06946655362844467,0.4514569640159607,-9.762977600097656
1745652282.0495121,-4.0271970647154376e-05,0.0001376111467834562,0.003654197556897998,-0.21519801020622253,0.525059700012207,-9.781218528747559
1745652282.050771,0.006073113530874252,0.00410924106836319,0.0037837084382772446,-0.11292880773544312,0.49232539534568787,-9.766759872436523
1745652282.0544198,-0.00021154512069188058,-0.002481773030012846,0.0032765124924480915,-0.16563665866851807,0.47008687257766724,-9.77734661102295
1745652282.0563073,0.005389197263866663,0.004432961344718933,0.001434017438441515,-0.2042529284954071,0.548478364944458,-9.756959915161133
1745652282.092453,0.0018051445949822664,-0.0009283660911023617,0.0031584363896399736,-0.08462415635585785,0.4008347988128662,-9.777226448059082
1745652282.0958495,0.003374928142875433,0.0020644222386181355,0.003410445526242256,-0.2566685676574707,0.5764447450637817,-9.808323860168457
1745652282.0958974,0.005016057286411524,0.001456142752431333,0.0046234577894210815,-0.09038534015417099,0.4216342568397522,-9.762648582458496
1745652282.0969296,0.000446233811089769,-0.00023618452541995794,0.0022706647869199514,-0.23542377352714539,0.5202352404594421,-9.772795677185059
1745652282.1342194,0.007125063333660364,0.003661995753645897,0.0031677070073783398,-0.12193562090396881,0.4796537458896637,-9.764509201049805
1745652282.1353366,-0.0007297268020920455,-0.002334904856979847,0.0035843912046402693,-0.17155615985393524,0.44040244817733765,-9.797605514526367
1745652282.1381805,0.006907695438712835,0.0062455288134515285,0.002812661463394761,-0.17724713683128357,0.5162309408187866,-9.777377128601074
1745652282.139981,-0.000879646569956094,-0.0037747141905128956,0.001887380494736135,-0.09270046651363373,0.420083224773407,-9.768763542175293
1745652282.1438696,0.003299045143648982,0.0036847577430307865,0.003881701733916998,-0.23235194385051727,0.5381879806518555,-9.803121566772461
1745652282.1780558,0.003240937367081642,-0.0003690231533255428,0.002457807771861553,-0.05406348034739494,0.39550918340682983,-9.775094985961914
1745652282.1792178,-0.0005565193714573979,0.0004476661270018667,0.0038556077051907778,-0.23281779885292053,0.5113703608512878,-9.775030136108398
1745652282.1810415,0.005944393575191498,0.0017615817487239838,0.0006129733519628644,-0.0777047723531723,0.44939976930618286,-9.741813659667969
1745652282.1824026,-0.0033137097489088774,-0.0017349077388644218,0.002855241997167468,-0.16223768889904022,0.46930259466171265,-9.808228492736816
1745652282.2212143,0.006627863738685846,0.0030735593754798174,0.0005259555764496326,-0.13915285468101501,0.5248991250991821,-9.790665626525879
1745652282.2257257,-0.001996145350858569,-0.0014400513609871268,0.003951156046241522,-0.10017752647399902,0.40501952171325684,-9.773871421813965
1745652282.2302582,0.0025040607433766127,0.0025724347215145826,0.002073943382129073,-0.21041998267173767,0.5590506196022034,-9.778149604797363
1745652282.2342734,0.002709807362407446,8.089770744845737e-06,0.0026533284690231085,-0.053318820893764496,0.40674176812171936,-9.764692306518555
1745652282.260117,-0.0008736198069527745,-0.0022223317064344883,-0.0006253915489651263,-0.22505810856819153,0.516790509223938,-9.800573348999023
1745652282.2643776,0.006771689746528864,0.003194490447640419,0.0026040831580758095,-0.06609734147787094,0.4502837061882019,-9.755929946899414
1745652282.2657452,-0.0014327390817925334,-0.003831426380202174,0.0024169650860130787,-0.14552676677703857,0.4560111165046692,-9.782697677612305
1745652282.2693167,0.006044120527803898,0.0030974706169217825,-7.346627535298467e-05,-0.15076088905334473,0.506193995475769,-9.767166137695312
1745652282.2697582,9.326131839770824e-05,-0.002853034297004342,0.002549458062276244,-0.10448894649744034,0.4274825155735016,-9.798542976379395
1745652282.3044543,0.004707639571279287,0.0030841089319437742,-0.00040670306771062315,-0.20785625278949738,0.5526049733161926,-9.762394905090332
1745652282.306671,0.0042724343948066235,-0.0015948452055454254,0.0008199586300179362,-0.06136511638760567,0.3911115527153015,-9.737786293029785
1745652282.3085625,0.0007286824402399361,7.488662231480703e-05,-0.000698922376614064,-0.2416439950466156,0.5406194925308228,-9.803955078125
1745652282.3100398,0.006885569542646408,0.001138745341449976,0.0007977128843776882,-0.08790400624275208,0.42406144738197327,-9.766332626342773
1745652282.3480365,0.0007851975969970226,-0.0030207287054508924,0.0010667031165212393,-0.19088181853294373,0.4705345034599304,-9.76953125
1745652282.349444,0.005845324601978064,0.002499473048374057,0.0004748743958771229,-0.1435151845216751,0.5076321363449097,-9.767923355102539
1745652282.35089,-0.0012517828727141023,-0.003018666058778763,-3.789127731579356e-05,-0.1275002658367157,0.4086480736732483,-9.7920503616333
1745652282.354222,0.005330899264663458,-0.00023246693308465183,-0.0006233837339095771,-0.2248634546995163,0.5507620573043823,-9.769232749938965
1745652282.3566136,0.0028341077268123627,-0.0017627651104703546,-0.0011648442596197128,-0.0646914392709732,0.3940525949001312,-9.723602294921875
1745652282.3991718,0.0033835074864327908,-0.008196244947612286,0.006248033605515957,-0.15143965184688568,0.5589192509651184,-9.933684349060059
1745652282.3995342,0.018214713782072067,0.002189074410125613,0.004348972346633673,-0.38038522005081177,0.8358953595161438,-9.75170612335205
1745652282.4009798,0.012122956104576588,0.00010070182906929404,-0.0003712484613060951,-0.043291639536619186,0.4075487554073334,-9.570232391357422
1745652282.4022899,-0.012397395446896553,-0.009683969430625439,0.0036171027459204197,0.007976326160132885,0.2851465046405792,-9.723283767700195
1745652282.4340785,0.00010366774949943647,0.0003655849432107061,-6.127180677140132e-05,-0.14588074386119843,0.43700605630874634,-10.060945510864258
1745652282.4364626,-0.01180244516581297,0.0018687205156311393,0.001932136481627822,-0.2759262025356293,0.592345118522644,-9.653217315673828
1745652282.4385946,0.0008714675786904991,0.0004993682377971709,0.003820966463536024,-0.07880546897649765,0.5689302682876587,-9.443936347961426
1745652282.4415503,-1.6276451788144186e-05,-0.008993282914161682,0.00697182584553957,0.06257491558790207,0.48297303915023804,-9.930688858032227
1745652282.4791813,-0.006003323011100292,-0.0015773188788443804,0.006122534163296223,-0.19520284235477448,0.21561577916145325,-10.200182914733887
1745652282.4812422,-0.016137029975652695,0.0076821669936180115,0.012365502305328846,-0.22058925032615662,0.2876512110233307,-9.498369216918945
1745652282.4842863,-0.006735757924616337,-0.001243755454197526,0.015656081959605217,-0.06264816224575043,0.6526060104370117,-9.150235176086426
1745652282.4851158,-0.00722828134894371,-0.00826450064778328,0.018203403800725937,0.04046911373734474,0.6197459101676941,-10.114221572875977
1745652282.5217874,-0.0026765866205096245,0.0004316217382438481,0.01705646514892578,-0.23266728222370148,0.515874445438385,-10.446115493774414
1745652282.5233326,0.011516589671373367,0.010575416497886181,0.017205696552991867,-0.22812411189079285,0.5332323312759399,-9.24582290649414
1745652282.5275495,-0.014649567194283009,-0.0035890680737793446,0.01946645975112915,-0.12138372659683228,0.6212665438652039,-9.070202827453613
1745652282.530394,0.009397913701832294,-0.006440337747335434,0.016328033059835434,-0.027229133993387222,0.7612965703010559,-10.347091674804688
1745652282.53457,0.014652101323008537,0.0036685552913695574,0.014509203843772411,-0.06047607213258743,0.6300556063652039,-10.563735008239746
1745652282.5660605,0.015456611290574074,0.007274468429386616,0.01570795103907585,-0.40603360533714294,0.5795009732246399,-9.203526496887207
1745652282.5684729,0.005541553720831871,-2.1319836378097534e-05,0.01568419300019741,-0.06696812808513641,0.3861631751060486,-8.917112350463867
1745652282.5787609,-0.0060404762625694275,-0.006826003547757864,0.012093737721443176,-0.13143160939216614,0.5513939261436462,-10.350128173828125
1745652282.5789187,0.00816026609390974,0.010416010394692421,0.012781111523509026,-0.14144481718540192,0.5734438896179199,-10.595172882080078
1745652282.606255,-0.000724174315109849,0.0004970348672941327,0.010365353897213936,-0.22567148506641388,0.5286115407943726,-9.23504638671875
1745652282.6099432,-0.0025824611075222492,-0.003383347764611244,0.009762493893504143,-0.2893082797527313,0.4830802083015442,-9.097820281982422
1745652282.6141791,-0.021370314061641693,0.010602390393614769,0.021817108616232872,-0.07895366847515106,0.16616597771644592,-9.132301330566406
1745652282.6182177,-0.04175702482461929,-0.0010640270775184035,0.030627483502030373,-0.0661938339471817,0.12753982841968536,-9.0017671585083
1745652282.6491675,-0.04382016509771347,0.004874244332313538,0.03633052110671997,0.05044674873352051,0.41648054122924805,-10.286931991577148
1745652282.6527007,-0.05200374871492386,0.0087423762306571,0.03814209997653961,-0.0571969635784626,0.4927053451538086,-10.504827499389648
1745652282.65568,-0.02794567309319973,0.017954867333173752,0.042819954454898834,-0.12046810239553452,0.7362924814224243,-9.259382247924805
1745652282.6598585,-0.04434831440448761,0.0005552081274800003,0.043196506798267365,0.02310931123793125,0.7300454378128052,-9.125359535217285
1745652282.6636105,-0.021429505199193954,0.0021424121223390102,0.042856842279434204,-0.17865583300590515,0.8147125244140625,-10.288176536560059
1745652282.698931,-0.017162775620818138,0.01602288708090782,0.04050620272755623,-0.0683940201997757,0.8189762234687805,-10.234309196472168
1745652282.704106,-0.00630541006103158,0.008609376847743988,0.03800872713327408,-0.1790105700492859,0.9755620956420898,-9.259364128112793
1745652282.7134147,0.008057202212512493,0.001658868626691401,0.038433827459812164,0.0025510459672659636,0.7632298469543457,-9.3966064453125
1745652282.7177901,0.011378500610589981,0.0031582408118993044,0.03359491750597954,-0.16727185249328613,0.9701118469238281,-10.339452743530273
1745652282.744375,0.020917344838380814,0.015699390321969986,0.035504501312971115,-0.2319357842206955,0.49419647455215454,-10.072835922241211
1745652282.7445564,0.017604148015379906,0.01158395130187273,0.034523673355579376,-0.126647487282753,0.5748482346534729,-8.931428909301758
1745652282.750718,-0.007559505756944418,0.008271418511867523,0.0492330901324749,-0.02202453650534153,0.7649672627449036,-9.988580703735352
1745652282.7558134,-0.015387194231152534,0.004592647310346365,0.04931795224547386,-0.1579677015542984,0.6588865518569946,-9.71586799621582
1745652282.7804968,0.0029247249476611614,0.00466562295332551,0.04954012855887413,-0.17360348999500275,0.6138253808021545,-9.514795303344727
1745652282.786797,-0.006514990236610174,0.00528437364846468,0.05202414467930794,-0.12372426688671112,0.6269357800483704,-9.758634567260742
1745652282.7932556,-0.00571583304554224,0.008535236120223999,0.05180296301841736,-0.2538983225822449,0.5133337378501892,-9.965208053588867
1745652282.797395,-0.0022585371043533087,0.009006531909108162,0.054980743676424026,0.0004902705550193787,0.4284336566925049,-9.648324966430664
1745652282.8020484,-0.01396830566227436,0.007722978480160236,0.0551636628806591,-0.2327873259782791,0.6108136177062988,-9.66288948059082
1745652282.821421,-0.023763980716466904,0.004946541972458363,0.057139553129673004,-0.14915898442268372,0.38317742943763733,-9.889739990234375
1745652282.823891,-0.019054606556892395,0.00498608872294426,0.056152164936065674,-0.2005874663591385,0.5453640818595886,-9.800629615783691
1745652282.825478,-0.03042425774037838,0.013178518041968346,0.059536196291446686,-0.191055029630661,0.5599237680435181,-9.68847370147705
1745652282.8267484,-0.036530692130327225,-0.0027131412643939257,0.05778385326266289,-0.12475121021270752,0.4446074366569519,-9.756410598754883
1745652282.865815,-0.031862009316682816,0.006015040911734104,0.060924530029296875,-0.22700472176074982,0.6773859858512878,-9.865568161010742
1745652282.8693025,-0.04201408475637436,0.00585211394354701,0.05919985845685005,-0.14723479747772217,0.5451398491859436,-9.818646430969238
1745652282.870694,-0.035487100481987,0.002300446853041649,0.061069656163454056,-0.2846500277519226,0.7112787365913391,-9.650030136108398
1745652282.8733408,-0.028349464759230614,0.004762362223118544,0.062018103897571564,-0.054370470345020294,0.6339250802993774,-9.688572883605957
1745652282.9085817,-0.03975648432970047,0.0009549870155751705,0.060179561376571655,-0.1553768664598465,0.6820272207260132,-9.929028511047363
1745652282.9109974,-0.020755214616656303,0.007247294299304485,0.0649355947971344,-0.10141165554523468,0.6437767744064331,-9.789767265319824
1745652282.9133296,-0.02915842831134796,0.004691895097494125,0.06488130986690521,-0.10042960941791534,0.7457462549209595,-9.594982147216797
1745652282.9155703,-0.021775145083665848,0.006211175583302975,0.06835617870092392,-0.15952548384666443,0.6127596497535706,-9.745786666870117
1745652282.920276,-0.018675070255994797,0.007038286421447992,0.0703386664390564,0.10896287113428116,0.5382212996482849,-9.832991600036621
1745652282.9513586,-0.011656482703983784,0.011217080056667328,0.073713019490242,-0.11582312732934952,0.7127654552459717,-9.85489273071289
1745652282.954584,-0.028737325221300125,0.009151017293334007,0.07369362562894821,0.028682556003332138,0.42862367630004883,-9.736150741577148
1745652282.958758,-0.05041048675775528,0.023823950439691544,0.08987724035978317,0.005391583777964115,0.3115299940109253,-9.673873901367188
1745652282.9938653,-0.06886190921068192,0.023030508309602737,0.0944424718618393,0.07572523504495621,0.23877134919166565,-9.629143714904785
1745652283.0028014,-0.08781001716852188,0.027091557160019875,0.10166879743337631,-0.11414091289043427,0.2049274891614914,-9.722806930541992
1745652283.002955,-0.09701059013605118,0.03113085962831974,0.1055365577340126,0.18474933505058289,0.3597918450832367,-9.68742847442627
1745652283.0057702,-0.122123122215271,0.02595648542046547,0.10760943591594696,-0.14796750247478485,0.7355831861495972,-9.853059768676758
1745652283.0094042,-0.09497534483671188,0.030352815985679626,0.1072058230638504,-0.029731785878539085,0.7110518217086792,-9.77778434753418
1745652283.0382738,-0.10603760182857513,0.02891753986477852,0.11054374277591705,-0.0999288260936737,1.1112459897994995,-9.730569839477539
1745652283.0424407,-0.08177565038204193,0.027578849345445633,0.11122242361307144,-0.10897818952798843,0.728093147277832,-9.881909370422363
1745652283.0459566,-0.07511498034000397,0.02986440621316433,0.11833758652210236,0.09793930500745773,0.8348912000656128,-9.777216911315918
1745652283.0488803,-0.05639730021357536,0.037473972886800766,0.12204460054636002,0.07609404623508453,0.8163808584213257,-9.803281784057617
1745652283.0789018,-0.0626935139298439,0.02824271097779274,0.1270514875650406,0.2848065495491028,0.8894551396369934,-9.672472953796387
1745652283.0825162,-0.041860826313495636,0.03100479207932949,0.1274663805961609,0.10481562465429306,0.8281497955322266,-9.717512130737305
1745652283.0864913,-0.029448267072439194,0.041532088071107864,0.12961545586585999,0.25974172353744507,1.0474944114685059,-9.729609489440918
1745652283.0901368,-0.06540627032518387,0.01852165348827839,0.09056027233600616,-0.26912760734558105,1.419859528541565,-8.909845352172852
1745652283.123339,-0.01425258256494999,0.029365450143814087,0.07991772145032883,-0.13113829493522644,1.4770349264144897,-9.505937576293945
1745652283.1248415,0.02983688935637474,0.03571174666285515,0.07400329411029816,0.028196031227707863,1.3520584106445312,-10.103208541870117
1745652283.1265175,0.06311248242855072,0.03711618110537529,0.07521645724773407,0.051991045475006104,0.9825060963630676,-9.72752571105957
1745652283.1297126,0.1193634495139122,0.04698566719889641,0.08305685222148895,0.33831048011779785,0.8715944290161133,-9.276938438415527
1745652283.1310904,0.08878768235445023,0.02701573446393013,0.08709260076284409,0.5245000123977661,0.4452750086784363,-10.124817848205566
1745652283.1683726,0.09180939942598343,0.03571063652634621,0.08272559940814972,0.46762123703956604,0.1351701319217682,-10.656795501708984
1745652283.1728108,0.04692763835191727,0.031362831592559814,0.08003247529268265,0.3350585401058197,0.12103994935750961,-9.426706314086914
1745652283.1802711,-0.009521524421870708,0.026519209146499634,0.07826193422079086,0.11016666889190674,-0.2842463552951813,-8.894026756286621
1745652283.1843748,-0.0666419118642807,0.016777202486991882,0.08108644187450409,0.15778036415576935,-0.37726765871047974,-9.847249031066895
1745652283.2079263,-0.10894030332565308,0.02600228227674961,0.08058981597423553,-0.1991901397705078,-0.14051595330238342,-10.54241943359375
1745652283.2098505,-0.14123263955116272,0.044523995369672775,0.07806453853845596,-0.15002532303333282,0.27761879563331604,-9.586095809936523
1745652283.2123237,-0.14451155066490173,0.03879017010331154,0.07028279453516006,-0.18674282729625702,0.9068597555160522,-8.731339454650879
1745652283.2147644,-0.1048697680234909,0.04106951132416725,0.06384166330099106,-0.02704286016523838,1.322319746017456,-9.439661979675293
1745652283.2175465,-0.0802895799279213,0.04408853501081467,0.06223266199231148,-0.013244730420410633,1.27431321144104,-10.455984115600586
1745652283.2548578,-0.0021553945261985064,0.06986130774021149,0.06576881557703018,-0.26533257961273193,1.4417492151260376,-9.867599487304688
1745652283.2629194,0.017575185745954514,0.07235634326934814,0.0676259770989418,-0.13094112277030945,1.4880177974700928,-8.77641773223877
1745652283.2646875,0.06962664425373077,0.07106859982013702,0.07069151103496552,0.2952469289302826,0.8892875909805298,-9.120684623718262
1745652283.2657623,0.06410466134548187,0.04929770156741142,0.07181240618228912,1.0213927030563354,0.7711969017982483,-10.555026054382324
1745652283.297176,0.013464763760566711,0.041434288024902344,0.06910419464111328,0.417146772146225,0.3400067985057831,-11.411741256713867
1745652283.3003385,0.047657810151576996,0.05629599839448929,0.06528487801551819,0.48474302887916565,0.31795522570610046,-9.199640274047852
1745652283.3040373,-0.03411506488919258,0.05247892811894417,0.0666685476899147,-0.2534313201904297,1.0550682544708252,-8.221114158630371
1745652283.3058476,-0.022809013724327087,0.04466814547777176,0.0551380030810833,0.22841782867908478,0.04491477459669113,-9.665186882019043
1745652283.3394291,0.0783085897564888,0.05783424526453018,0.026257742196321487,-0.27467530965805054,1.2429112195968628,-8.910042762756348
1745652283.3442495,0.11252395808696747,0.0370832234621048,0.029371649026870728,0.4794975817203522,0.31198349595069885,-10.541299819946289
1745652283.3480425,0.0899110808968544,0.042929649353027344,0.03344617038965225,0.6205812096595764,-0.012992585077881813,-11.005785942077637
1745652283.350345,0.08463242650032043,0.03153924271464348,0.03653749078512192,0.6057208180427551,0.24053320288658142,-9.686834335327148
1745652283.355215,0.02761099860072136,0.012236797250807285,0.03725137934088707,0.34784018993377686,0.25318264961242676,-9.100375175476074
1745652283.382768,0.03679657727479935,0.02244986966252327,0.021932171657681465,0.14000897109508514,1.1704360246658325,-9.797402381896973
1745652283.385696,0.020470192655920982,0.008104884997010231,0.00807582400739193,0.43785715103149414,0.7685444355010986,-10.486058235168457
1745652283.39109,0.01060762070119381,0.005745827220380306,0.0021941999439150095,-0.032713063061237335,0.6974010467529297,-9.962753295898438
1745652283.3972583,0.024582866579294205,0.005217689089477062,-0.0016432127449661493,-0.10383681952953339,0.6691250801086426,-9.23818302154541
1745652283.4248693,0.016624320298433304,-0.0014547930331900716,-0.0010617355583235621,-0.18768349289894104,0.7488234639167786,-9.650347709655762
1745652283.429437,0.04902306944131851,0.027554133906960487,-6.496170681202784e-05,-0.17573943734169006,0.834028422832489,-10.085232734680176
1745652283.4335868,0.06050116568803787,0.024456098675727844,0.0006219010101631284,0.2999931573867798,0.7327810525894165,-9.427064895629883
1745652283.4383698,0.06842638552188873,0.014350101351737976,0.0008821212686598301,0.24406477808952332,0.6130980253219604,-9.319558143615723
1745652283.4688601,0.0867372453212738,0.14544188976287842,-0.07464747130870819,0.2245469093322754,1.3787050247192383,-9.593162536621094
1745652283.4726827,0.10614490509033203,0.15584802627563477,-0.07889054715633392,0.2833598852157593,1.1221617460250854,-9.86052417755127
1745652283.4749382,0.11243387311697006,0.1602514535188675,-0.08059598505496979,0.4112495481967926,0.785997748374939,-9.71005916595459
1745652283.4763377,0.12673519551753998,0.15301497280597687,-0.08398469537496567,0.6600214838981628,0.36845487356185913,-9.434663772583008
1745652283.485258,0.0754544660449028,0.14473016560077667,-0.08338721096515656,0.6854654550552368,0.4370710253715515,-10.012356758117676
1745652283.5140746,0.06994704902172089,0.15080687403678894,-0.08584817498922348,0.6063157320022583,-0.08620207756757736,-10.418782234191895
1745652283.5168724,0.044100094586610794,0.15162643790245056,-0.08828780055046082,0.4756837785243988,0.7164903283119202,-9.498529434204102
1745652283.5215425,0.025358567014336586,0.14736828207969666,-0.091353639960289,0.3721086084842682,0.2328503131866455,-9.295434951782227
1745652283.525444,0.011213572695851326,0.13442984223365784,-0.09530588239431381,0.5124971270561218,0.6728827357292175,-9.688581466674805
1745652283.5567598,0.04223209619522095,0.1363934576511383,-0.09603726863861084,0.4280245900154114,0.566383421421051,-10.465824127197266
1745652283.5593421,0.026423126459121704,0.13047072291374207,-0.08958273380994797,0.3763742744922638,0.7735508680343628,-10.132304191589355
1745652283.57083,0.06848027557134628,0.1344330757856369,-0.08645065128803253,0.2584620714187622,0.5854703187942505,-9.455227851867676
1745652283.5717084,0.06800806522369385,0.14256635308265686,-0.09339721500873566,0.5220935344696045,1.136808156967163,-9.250313758850098
1745652283.5992086,0.07389498502016068,0.13241326808929443,-0.09647965431213379,0.6411245465278625,1.013183355331421,-9.607022285461426
1745652283.6034834,0.11713756620883942,0.14076164364814758,-0.10464663803577423,0.6085702776908875,0.8862770199775696,-9.973594665527344
1745652283.608532,0.08334865421056747,0.12386009842157364,-0.10620220005512238,0.670721173286438,0.6244345903396606,-10.030597686767578
1745652283.6115413,0.11190839856863022,0.11189568042755127,-0.09603562206029892,0.5717818737030029,0.1352650225162506,-10.181506156921387
1745652283.6158507,0.059608735144138336,0.11508877575397491,-0.09124235063791275,0.25802382826805115,0.46932053565979004,-10.096508979797363
1745652283.6396468,0.07257623970508575,0.1198589950799942,-0.09973414987325668,0.5212718844413757,0.5064589977264404,-9.370083808898926
1745652283.6420574,0.04040537029504776,0.10810408741235733,-0.10659414529800415,0.6420972347259521,1.0252405405044556,-9.084741592407227
1745652283.6444118,0.08770962804555893,0.12005624920129776,-0.11744128167629242,0.764241635799408,0.6284234523773193,-9.900764465332031
1745652283.645841,0.05853409692645073,0.1002674326300621,-0.12202601134777069,0.8192823529243469,1.0462154150009155,-10.125267028808594
1745652283.685513,0.13802559673786163,0.10265612602233887,-0.1228896751999855,0.7401070594787598,1.2831470966339111,-9.638792037963867
1745652283.6923747,0.1562562882900238,0.10402312129735947,-0.13587558269500732,0.7521406412124634,1.0514209270477295,-9.82604694366455
1745652283.6964014,0.14934253692626953,0.0895489901304245,-0.13944610953330994,0.8732105493545532,0.682326078414917,-10.057511329650879
1745652283.7003038,0.1491805613040924,0.09311612695455551,-0.13799405097961426,0.5488309860229492,0.5257042646408081,-10.03940200805664
1745652283.7343736,0.15715648233890533,0.09700477123260498,-0.13532578945159912,0.6361467242240906,0.21676330268383026,-9.64395809173584
1745652283.7344542,0.14961650967597961,0.09273761510848999,-0.1327897161245346,0.5984966158866882,0.9498254060745239,-9.399065017700195
1745652283.7345033,0.16569390892982483,0.08545932173728943,-0.13720595836639404,0.6675097942352295,0.8786431550979614,-9.786040306091309
1745652283.7345383,0.21196229755878448,0.08737693727016449,-0.14378789067268372,0.8112538456916809,1.0439817905426025,-9.881815910339355
1745652283.766793,0.21970781683921814,0.08819784224033356,-0.14836382865905762,0.26934510469436646,1.2256782054901123,-9.990734100341797
1745652283.770641,0.22194655239582062,0.07053227722644806,-0.15368793904781342,0.5214320421218872,0.21998362243175507,-9.865259170532227
1745652283.7742789,0.26248684525489807,0.08756168931722641,-0.15067283809185028,0.532401442527771,0.6737459301948547,-9.591922760009766
1745652283.7834814,0.2210623323917389,0.07822661101818085,-0.1482967883348465,0.5720226168632507,0.09731872379779816,-9.746896743774414
1745652283.7848454,0.2078203409910202,0.06468814611434937,-0.1534774899482727,0.7964769005775452,0.19125722348690033,-9.715322494506836
1745652283.8135462,0.21795351803302765,0.07687584310770035,-0.15426720678806305,0.9041997194290161,0.27986210584640503,-9.953965187072754
1745652283.817478,0.3103150725364685,-0.03778946399688721,-0.22000689804553986,0.5509827136993408,0.07146617770195007,-9.885472297668457
1745652283.8278966,0.30944257974624634,-0.03505681827664375,-0.22206167876720428,0.5746758580207825,0.01866224780678749,-9.796906471252441
1745652283.8279536,0.29221397638320923,-0.03961113095283508,-0.2203577756881714,0.6851439476013184,-0.08415235579013824,-9.802827835083008
1745652283.8543434,0.31019705533981323,-0.04252619668841362,-0.22512952983379364,0.6042980551719666,-0.02361365593969822,-9.835204124450684
1745652283.8584814,0.286222368478775,-0.041497670114040375,-0.22747966647148132,0.8172222375869751,-0.03933409973978996,-9.759246826171875
1745652283.8636944,0.2830924093723297,-0.046037621796131134,-0.22957296669483185,0.6426159143447876,-0.031300850212574005,-9.868314743041992
1745652283.8696287,0.28624966740608215,-0.05050647258758545,-0.2299421727657318,0.7811641693115234,-0.22409959137439728,-9.842792510986328
1745652283.8748147,0.2815796136856079,-0.05180123448371887,-0.23020963370800018,0.5255332589149475,0.11967752128839493,-9.859827041625977
1745652283.9028556,0.28152933716773987,-0.05323389917612076,-0.23000216484069824,0.5219017267227173,-0.22120139002799988,-9.872152328491211
1745652283.9050891,0.30185666680336,-0.056320976465940475,-0.23109623789787292,0.5665438175201416,0.1898452788591385,-9.633191108703613
1745652283.9099455,0.2940015196800232,-0.05245364457368851,-0.2328709065914154,0.45076602697372437,0.023622311651706696,-9.810555458068848
1745652283.9140055,0.30757009983062744,-0.06412865966558456,-0.23253881931304932,0.6652184128761292,-0.12140564620494843,-9.852315902709961
1745652283.9403696,0.30676892399787903,-0.05565476417541504,-0.23543722927570343,0.45844992995262146,-0.041624438017606735,-9.843851089477539
1745652283.9437387,0.30350416898727417,-0.061697714030742645,-0.2354632169008255,0.6931886672973633,-0.44902944564819336,-9.73581314086914
1745652283.9471178,0.2962372899055481,-0.06627754122018814,-0.23587295413017273,0.5847580432891846,-0.12898977100849152,-9.752143859863281
1745652283.9500175,0.2792678475379944,-0.05495478957891464,-0.23729343712329865,0.635884702205658,-0.5510334968566895,-9.91459846496582
1745652283.95457,0.2735194265842438,-0.07306040823459625,-0.23579657077789307,0.6417989730834961,-0.2074739634990692,-9.757258415222168
1745652283.9840229,0.26359838247299194,-0.06083722040057182,-0.2383798062801361,0.5397200584411621,-0.35361355543136597,-9.831149101257324
1745652283.9921246,0.2598748207092285,-0.07042129337787628,-0.24067310988903046,0.5665381550788879,-0.22167296707630157,-9.772477149963379
1745652283.9922273,0.26696354150772095,-0.06599545478820801,-0.24190136790275574,0.4625023305416107,-0.11325369775295258,-9.755151748657227
1745652283.9928672,0.2610098719596863,-0.06382095813751221,-0.2433435171842575,0.5717213153839111,-0.15514689683914185,-9.734150886535645
1745652284.0283513,0.2675999701023102,-0.07079832255840302,-0.2407815009355545,0.3674587309360504,-0.1867503821849823,-9.86842155456543
1745652284.0326645,0.2469775229692459,-0.06980482488870621,-0.24420598149299622,0.5766430497169495,-0.5679433345794678,-9.77075481414795
1745652284.0341034,0.2604416310787201,-0.07040159404277802,-0.24678416550159454,0.45543065667152405,-0.410471111536026,-9.660871505737305
1745652284.037633,0.22641876339912415,-0.06310099363327026,-0.24877282977104187,0.599997878074646,-0.4724927544593811,-9.789632797241211
1745652284.0754604,0.23325800895690918,-0.07201174646615982,-0.2489171326160431,0.42230814695358276,-0.4790878891944885,-9.883211135864258
1745652284.078699,0.2383095771074295,-0.06553824245929718,-0.24834707379341125,0.5481909513473511,-0.40197068452835083,-9.714669227600098
1745652284.082073,0.22566497325897217,-0.06341741979122162,-0.2471088171005249,0.45557650923728943,-0.3717806041240692,-9.772198677062988
1745652284.086845,0.24415826797485352,-0.0664517730474472,-0.24722528457641602,0.3563152253627777,-0.4080139100551605,-9.76156234741211
1745652284.0901344,0.2313271462917328,-0.06091715022921562,-0.24817779660224915,0.596563994884491,-0.38323599100112915,-9.632383346557617
1745652284.1154153,0.23543958365917206,-0.06169525533914566,-0.2469865381717682,0.3232758045196533,-0.42671719193458557,-9.859949111938477
1745652284.1169393,0.23469308018684387,-0.06514360010623932,-0.24749703705310822,0.5184383988380432,-0.6579044461250305,-9.804534912109375
1745652284.1188617,0.23216363787651062,-0.06017209216952324,-0.24835419654846191,0.4572097659111023,-0.37934666872024536,-9.737292289733887
1745652284.120723,0.21497461199760437,-0.05990690737962723,-0.24973472952842712,0.4933706223964691,-0.7352311611175537,-9.813131332397461
1745652284.1574233,0.21272778511047363,-0.06445217877626419,-0.24925851821899414,0.5112767815589905,-0.4873887002468109,-9.712814331054688
1745652284.1607547,0.20277456939220428,-0.05657149478793144,-0.25134846568107605,0.45097213983535767,-0.6978960633277893,-9.758000373840332
1745652284.1658423,0.06872101873159409,-0.012143072672188282,-0.2524290680885315,0.46615514159202576,-0.8137243390083313,-9.640378952026367
1745652284.167433,0.06061522290110588,-0.009704116731882095,-0.25208330154418945,0.31343361735343933,-0.8360967636108398,-9.707208633422852
1745652284.2007813,0.04617232456803322,-0.007065917365252972,-0.2515811622142792,0.5205438733100891,-0.9390478134155273,-9.776983261108398
1745652284.2029579,0.04826822876930237,-0.009498625062406063,-0.25218600034713745,0.3063776195049286,-0.6794373989105225,-9.783571243286133
1745652284.204104,0.028424743562936783,0.0010571250459179282,-0.2538987696170807,0.4570004940032959,-0.9335321187973022,-9.743284225463867
1745652284.2062204,0.028542017564177513,-0.007950430735945702,-0.2545134723186493,0.341383695602417,-0.69446861743927,-9.625228881835938
1745652284.2119644,0.03025764226913452,-0.0004253229999449104,-0.2521142363548279,0.3718476891517639,-0.835232138633728,-9.728927612304688
1745652284.2445135,0.021319713443517685,0.0031377046834677458,-0.2514050602912903,0.40568971633911133,-0.6367794275283813,-9.785972595214844
1745652284.2492075,0.03268866986036301,0.00016093775047920644,-0.25114506483078003,0.26797249913215637,-0.7285552024841309,-9.703102111816406
1745652284.2548146,0.021421531215310097,0.005167854018509388,-0.2526445984840393,0.5219208002090454,-0.6487531661987305,-9.582929611206055
1745652284.2598062,0.02811414934694767,0.002031490905210376,-0.25416529178619385,0.2942180335521698,-0.6932477355003357,-9.863998413085938
1745652284.285336,0.03199785202741623,0.007951198145747185,-0.2528921663761139,0.4609406590461731,-0.8311939239501953,-9.8302640914917
1745652284.2895918,0.015166697092354298,0.006122869439423084,-0.25275784730911255,0.3088464140892029,-0.7366135120391846,-9.646425247192383
1745652284.2940037,0.012109020724892616,0.005874350666999817,-0.25462770462036133,0.4707375168800354,-1.040154218673706,-9.674598693847656
1745652284.2988808,-0.00605247775092721,0.00850486196577549,-0.2519153952598572,0.4153609871864319,-0.7897757291793823,-9.818151473999023
1745652284.3009963,-0.006306478288024664,0.008826760575175285,-0.25238752365112305,0.33795979619026184,-0.9927965402603149,-9.86488151550293
1745652284.329422,-0.017744801938533783,0.011136837303638458,-0.24860963225364685,0.5120905637741089,-0.7761474847793579,-9.556045532226562
1745652284.3331192,-0.021572163328528404,0.008762777782976627,-0.2539094388484955,0.313772976398468,-0.7415725588798523,-9.73427677154541
1745652284.336239,-0.03241795301437378,0.009979665279388428,-0.25330251455307007,0.5323840975761414,-0.8689603805541992,-9.842350959777832
1745652284.3407083,-0.024447500705718994,0.012528292834758759,-0.254105806350708,0.2630278766155243,-0.6642748713493347,-9.840578079223633
1745652284.3708067,-0.026111692190170288,0.015095392242074013,-0.25191718339920044,0.40605664253234863,-0.7901147603988647,-9.569158554077148
1745652284.3729868,-0.03840099275112152,0.008806507103145123,-0.25234395265579224,0.4377496838569641,-0.6829332113265991,-9.613065719604492
1745652284.3759668,-0.050408147275447845,0.020527303218841553,-0.25222575664520264,0.43722590804100037,-0.9342187643051147,-9.818719863891602
1745652284.3786676,-0.04963073506951332,0.014062633737921715,-0.25171715021133423,0.4685233235359192,-0.6293540596961975,-9.582171440124512
1745652284.4146187,-0.057686250656843185,0.019060513004660606,-0.25153201818466187,0.3699489235877991,-0.8535704612731934,-9.822718620300293
1745652284.4172413,-0.059474699199199677,0.015668563544750214,-0.24988675117492676,0.49761658906936646,-0.6888766288757324,-9.836531639099121
1745652284.421562,-0.058032453060150146,0.020507682114839554,-0.25182151794433594,0.34740346670150757,-0.7127465605735779,-9.732248306274414
1745652284.425082,-0.0728033035993576,0.01531081460416317,-0.2477295696735382,0.5072128772735596,-0.8675132989883423,-9.644416809082031
1745652284.4284713,-0.06650696694850922,0.0174768827855587,-0.2491365373134613,0.38244351744651794,-0.6671377420425415,-9.77425479888916
1745652284.4586287,-0.07259346544742584,0.016975119709968567,-0.249421164393425,0.47280794382095337,-0.855401873588562,-9.826632499694824
1745652284.4632354,-0.08114214241504669,0.018185487017035484,-0.2490147352218628,0.443566232919693,-0.5740183591842651,-9.705721855163574
1745652284.4633043,-0.0830816775560379,0.01995774917304516,-0.24819187819957733,0.43267402052879333,-0.8476372957229614,-9.692205429077148
1745652284.4656715,-0.08406563848257065,0.010356169193983078,-0.24923130869865417,0.4968159794807434,-0.5777040719985962,-9.73145866394043
1745652284.5006964,-0.08548302203416824,0.020830657333135605,-0.2506764531135559,0.3848559856414795,-0.6565378904342651,-9.876249313354492
1745652284.503158,-0.09004069119691849,0.013544267043471336,-0.24989180266857147,0.527324914932251,-0.6728180646896362,-9.684907913208008
1745652284.5050092,-0.08444450795650482,0.016322899609804153,-0.25053054094314575,0.39386963844299316,-0.5252026319503784,-9.65110969543457
1745652284.5065322,-0.10004019737243652,0.00019107833213638514,-0.2394520789384842,0.535094141960144,-0.5779398679733276,-9.982892990112305
1745652284.5451663,-0.09503549337387085,0.0010285780299454927,-0.2376508265733719,0.5078123807907104,-0.23381634056568146,-9.62748908996582
1745652284.5481002,-0.09482487291097641,-0.00788071472197771,-0.23682984709739685,0.3970152735710144,-0.4728603959083557,-9.709308624267578
1745652284.551625,-0.07974143326282501,-0.00991054531186819,-0.23614439368247986,0.5877681374549866,-0.23508569598197937,-9.771120071411133
1745652284.553041,-0.07527503371238708,0.00151565030682832,-0.23665300011634827,0.34514328837394714,-0.2751527428627014,-9.933728218078613
1745652284.585375,-0.07449387013912201,-0.009753662161529064,-0.2344125211238861,0.4961901605129242,-0.44657978415489197,-9.723867416381836
1745652284.5896008,-0.06246284395456314,-0.006190813612192869,-0.23571591079235077,0.4687776565551758,-0.2943858504295349,-9.616813659667969
1745652284.5931401,-0.0702332854270935,-0.005284510552883148,-0.23477451503276825,0.5310003161430359,-0.5099808573722839,-9.895814895629883
1745652284.5981526,-0.0770019143819809,-0.011786354705691338,-0.23632068932056427,0.4475037157535553,-0.4089386463165283,-9.903371810913086
1745652284.5999131,-0.07302837073802948,-0.0035420418716967106,-0.23287424445152283,0.5300106406211853,-0.6530706882476807,-9.649670600891113
1745652284.630853,-0.08909069746732712,-0.010174740105867386,-0.23360541462898254,0.5252683162689209,-0.36250945925712585,-9.673833847045898
1745652284.633468,-0.08071990311145782,-0.008040497079491615,-0.23466436564922333,0.42595940828323364,-0.4536864757537842,-9.950729370117188
1745652284.6372335,-0.08529157936573029,-0.013505475595593452,-0.23318970203399658,0.6213730573654175,-0.404085248708725,-9.753715515136719
1745652284.6397052,-0.08057551085948944,-0.005769374314695597,-0.2329680472612381,0.31122010946273804,-0.23837490379810333,-9.723197937011719
1745652284.6704266,-0.08407150208950043,-0.012347464449703693,-0.23368224501609802,0.46171441674232483,-0.4312143921852112,-9.742712020874023
1745652284.6754081,-0.06268604844808578,-0.015774495899677277,-0.23171424865722656,0.4101148545742035,-0.23344330489635468,-9.751054763793945
1745652284.6769567,-0.06728552281856537,-0.0012410373892635107,-0.23187942802906036,0.4278267025947571,-0.30412933230400085,-9.91895580291748
1745652284.6789205,-0.06609730422496796,-0.02137133851647377,-0.22939357161521912,0.5198463201522827,-0.3045653700828552,-9.719507217407227
1745652284.6819963,-0.04846153035759926,-0.009698973968625069,-0.23156993091106415,0.4540073275566101,-0.28975871205329895,-9.694889068603516
1745652284.7185295,-0.06870503723621368,-0.011373418383300304,-0.2303745448589325,0.5631266832351685,-0.33042407035827637,-9.85029125213623
1745652284.722132,-0.047517456114292145,-0.02140996977686882,-0.22998134791851044,0.44214820861816406,-0.4130842685699463,-9.855321884155273
1745652284.722654,-0.06000388413667679,-0.012005912140011787,-0.22871904075145721,0.5765779614448547,-0.4235282838344574,-9.703315734863281
1745652284.726964,-0.06292561441659927,-0.016343647614121437,-0.22863176465034485,0.3972141742706299,-0.27232810854911804,-9.807391166687012
1745652284.7590854,-0.05329146981239319,-0.0214373841881752,-0.22962240874767303,0.46566909551620483,-0.2743559181690216,-9.838852882385254
1745652284.762501,-0.03541460633277893,-0.013884556479752064,-0.2280268669128418,0.44801345467567444,-0.33813950419425964,-9.688962936401367
1745652284.7663283,-0.053626663982868195,-0.013650973327457905,-0.2285594940185547,0.4668582081794739,-0.37663814425468445,-9.781816482543945
1745652284.770373,-0.031719647347927094,-0.024506811052560806,-0.2261802852153778,0.3767938017845154,-0.30360227823257446,-9.828689575195312
1745652284.779452,-0.034979432821273804,-0.010493973270058632,-0.22845721244812012,0.567143440246582,-0.2586262822151184,-9.741453170776367
1745652284.8014789,-0.044632814824581146,-0.021532278507947922,-0.22893953323364258,0.3846779465675354,-0.2934570908546448,-9.810123443603516
1745652284.8052332,-0.029150519520044327,-0.019623350352048874,-0.22851720452308655,0.5504156947135925,-0.3938016891479492,-9.70075511932373
1745652284.8089268,-0.05029967427253723,-0.018723754212260246,-0.22664180397987366,0.4725376069545746,-0.2603157162666321,-9.814339637756348
1745652284.8134573,-0.03062666952610016,-0.01582947187125683,-0.2313169538974762,0.3780480623245239,-0.3664465546607971,-9.909683227539062
1745652284.8513458,-0.03960169851779938,-0.022090990096330643,-0.2271217405796051,0.5372368097305298,-0.2842333912849426,-9.650117874145508
1745652284.8515155,-0.0327884666621685,-0.019852709025144577,-0.2273496687412262,0.3626386523246765,-0.27745309472084045,-9.730695724487305
1745652284.8552487,-0.03570304065942764,-0.019528154283761978,-0.22662854194641113,0.5741335153579712,-0.27810099720954895,-9.824803352355957
1745652284.8590431,-0.017410915344953537,-0.02238159254193306,-0.2264302521944046,0.34390726685523987,-0.14066672325134277,-9.851984024047852
1745652284.889421,0.01652308739721775,-0.028615862131118774,-0.22715196013450623,0.3682249188423157,-0.13444647192955017,-9.704962730407715
1745652284.8930278,0.021280528977513313,-0.010590252466499805,-0.22696594893932343,0.4414254128932953,-0.28498849272727966,-9.708439826965332
1745652284.8934531,0.020550180226564407,-0.01820330321788788,-0.22557571530342102,0.38452020287513733,-0.07630454003810883,-9.821361541748047
1745652284.8960304,0.0336720272898674,-0.019003473222255707,-0.2265278846025467,0.3460626006126404,-0.21537797152996063,-9.775229454040527
1745652284.930163,0.03463127464056015,-0.010506855323910713,-0.22600725293159485,0.5129860639572144,-0.24391169846057892,-9.70055103302002
1745652284.932524,0.04206980764865875,-0.017565330490469933,-0.22728607058525085,0.26933553814888,-0.1553608924150467,-9.832192420959473
1745652284.9331362,0.04452420771121979,-0.015664856880903244,-0.22737030684947968,0.48828262090682983,-0.36197468638420105,-9.773831367492676
1745652284.9355645,0.03654627129435539,-0.01396758109331131,-0.22628799080848694,0.4153207838535309,-0.2294756919145584,-9.702848434448242
1745652284.9441507,0.04006693512201309,-0.012908349744975567,-0.22659409046173096,0.41111594438552856,-0.47871676087379456,-9.807146072387695
1745652284.975584,0.025289487093687057,-0.021307211369276047,-0.22650504112243652,0.4458995461463928,-0.31485864520072937,-9.773351669311523
1745652284.9798036,0.03448934108018875,-0.009185662493109703,-0.22677583992481232,0.39042750000953674,-0.4136837422847748,-9.813776016235352
1745652284.983552,0.020423579961061478,-0.016790838912129402,-0.22314684092998505,0.46246832609176636,-0.3354952335357666,-9.743459701538086
1745652284.9867444,0.030555497854948044,-0.017702898010611534,-0.22464337944984436,0.2875833809375763,-0.35287436842918396,-9.757438659667969
1745652285.0165281,0.022524375468492508,-0.010981561616063118,-0.2234572172164917,0.5062114000320435,-0.3174532949924469,-9.778882026672363
1745652285.0184486,0.028706233948469162,-0.01657228171825409,-0.22585010528564453,0.2398526668548584,-0.23026247322559357,-9.84444808959961
1745652285.0215452,0.03514530882239342,-0.01266208104789257,-0.22754080593585968,0.4952823519706726,-0.32434654235839844,-9.664982795715332
1745652285.0247724,0.02598894014954567,-0.010369965806603432,-0.2234506905078888,0.4005559980869293,-0.15195392072200775,-9.715106010437012
1745652285.0259027,0.03624459356069565,-0.01612524315714836,-0.2261173278093338,0.3077913224697113,-0.35095658898353577,-9.9651460647583
1745652285.0612683,0.031675152480602264,-0.014169856905937195,-0.2265496701002121,0.5666851997375488,-0.24662837386131287,-9.700904846191406
1745652285.063339,0.04066431149840355,-0.00868208147585392,-0.22548194229602814,0.2644648551940918,-0.25405246019363403,-9.797815322875977
1745652285.0658033,0.03708641976118088,-0.014953108504414558,-0.22670157253742218,0.546629786491394,-0.28221166133880615,-9.695344924926758
1745652285.0689788,0.03849087655544281,-0.012689108960330486,-0.22582070529460907,0.35340452194213867,-0.1961040198802948,-9.757372856140137
1745652285.1091406,0.038717616349458694,-0.006895948201417923,-0.22722642123699188,0.3956736922264099,-0.45756545662879944,-9.855489730834961
1745652285.1092396,0.04529699310660362,-0.01123023685067892,-0.2259131371974945,0.2594147026538849,-0.4035641551017761,-9.748814582824707
1745652285.1102607,0.036271579563617706,-0.011453097686171532,-0.22527723014354706,0.5083789825439453,-0.41211456060409546,-9.612581253051758
1745652285.1143682,0.03655080869793892,-0.006205975078046322,-0.22443537414073944,0.302585244178772,-0.33715230226516724,-9.845252990722656
1745652285.1177278,0.028347080573439598,-0.012211021035909653,-0.22706370055675507,0.5140734910964966,-0.44415608048439026,-9.829347610473633
1745652285.1459515,0.028381716459989548,-0.008954198099672794,-0.2270636260509491,0.37564530968666077,-0.2807261049747467,-9.784399032592773
1745652285.150166,0.030382579192519188,-0.006740394048392773,-0.22847028076648712,0.36414918303489685,-0.4111969470977783,-9.715509414672852
1745652285.154009,0.023787617683410645,-0.014545219019055367,-0.22637541592121124,0.5064350366592407,-0.23052939772605896,-9.684885025024414
1745652285.157892,0.03461160510778427,-0.0020699219312518835,-0.22903624176979065,0.32942652702331543,-0.24709069728851318,-9.91624641418457
1745652285.1904263,0.029602667316794395,-0.011718633584678173,-0.22813749313354492,0.5481468439102173,-0.3357295095920563,-9.723051071166992
1745652285.1928005,0.040024686604738235,-0.005674346815794706,-0.2288142442703247,0.28819626569747925,-0.1547939032316208,-9.768031120300293
1745652285.1949944,0.03875644877552986,-0.01226167380809784,-0.23048584163188934,0.44624319672584534,-0.43887534737586975,-9.81966495513916
1745652285.1977935,0.056172020733356476,-0.01016126200556755,-0.22816801071166992,0.3353230357170105,-0.16598820686340332,-9.763284683227539
1745652285.2306054,0.03971131891012192,-0.004160896874964237,-0.22868533432483673,0.4254032075405121,-0.45709148049354553,-9.813316345214844
1745652285.2355475,0.013540856540203094,-0.0032950311433523893,-0.22972126305103302,0.4273327887058258,-0.5662351846694946,-9.711196899414062
1745652285.2394652,0.01828230731189251,-0.007334639318287373,-0.2261778861284256,0.28495174646377563,-0.30996960401535034,-9.7229642868042
1745652285.2430563,-0.0007897199830040336,-0.004230163060128689,-0.2306487113237381,0.47397851943969727,-0.511171281337738,-9.863484382629395
1745652285.2742915,0.01271732896566391,-0.005486506503075361,-0.23123399913311005,0.27498048543930054,-0.30863818526268005,-9.84131145477295
1745652285.2758386,0.006230488885194063,-0.0010145740816369653,-0.2298961579799652,0.37215474247932434,-0.4394022822380066,-9.650891304016113
1745652285.2851884,-0.0012600861955434084,-0.008599990978837013,-0.23237475752830505,0.5122947692871094,-0.36102351546287537,-9.61776351928711
1745652285.2877142,0.00418097572401166,-0.002179697621613741,-0.22776131331920624,0.2670692801475525,-0.38531193137168884,-9.975395202636719
1745652285.2919674,-0.0010902173817157745,-0.0046686530113220215,-0.22802555561065674,0.48555177450180054,-0.3461722135543823,-9.844512939453125
1745652285.3193324,0.016481667757034302,0.0024622741620987654,-0.2289828062057495,0.2147584706544876,-0.19586589932441711,-9.688457489013672
1745652285.3219807,0.013211781159043312,-0.0038037654012441635,-0.22674235701560974,0.470259428024292,-0.29945164918899536,-9.623590469360352
1745652285.3248546,0.022594228386878967,-0.007497196551412344,-0.22977595031261444,0.29035958647727966,-0.1400730311870575,-9.847661018371582
1745652285.3263326,0.019680533558130264,0.0015013362281024456,-0.23142333328723907,0.34505078196525574,-0.4593736529350281,-9.941368103027344
1745652285.3655293,0.0241069495677948,-0.004710763692855835,-0.22820790112018585,0.38476842641830444,-0.30396395921707153,-9.631671905517578
1745652285.3667204,0.018432248383760452,-0.0013576737837865949,-0.2290329933166504,0.29390501976013184,-0.5445704460144043,-9.752008438110352
1745652285.369534,0.01325371116399765,-0.004985762294381857,-0.2279248982667923,0.49940061569213867,-0.42864981293678284,-9.865137100219727
1745652285.3721733,0.015434098429977894,-0.001121282228268683,-0.22687318921089172,0.3058641254901886,-0.3751353919506073,-9.89351749420166
1745652285.3723943,0.0014313609572127461,-0.003996062092483044,-0.22681072354316711,0.444879949092865,-0.5421119332313538,-9.636016845703125
1745652285.4055893,0.009953883476555347,-0.006522829644382,-0.22740323841571808,0.37477564811706543,-0.30835774540901184,-9.699874877929688
1745652285.4089792,-0.0038346622604876757,-0.002858562860637903,-0.22665885090827942,0.3985126316547394,-0.46962323784828186,-9.936640739440918
1745652285.4126787,0.00010083364031743258,-0.0038987963926047087,-0.22726717591285706,0.34065312147140503,-0.3522818088531494,-9.832830429077148
1745652285.4161305,0.00440618209540844,0.00011173132952535525,-0.22694358229637146,0.28486377000808716,-0.3875630795955658,-9.646905899047852
1745652285.4491668,-0.0029588325414806604,-0.010248957201838493,-0.22610321640968323,0.4303116202354431,-0.313005268573761,-9.660516738891602
1745652285.4505832,0.014337326399981976,0.0016294412780553102,-0.22784194350242615,0.2980075776576996,-0.279868483543396,-9.9238920211792
1745652285.457281,0.006077826954424381,-0.004248999059200287,-0.2297837734222412,0.44261759519577026,-0.4947335124015808,-9.75926685333252
1745652285.4592013,0.021107744425535202,-0.006763721816241741,-0.22469381988048553,0.32176002860069275,-0.26265671849250793,-9.886820793151855
1745652285.4925392,0.010282402858138084,0.002531685633584857,-0.2247614562511444,0.3363913595676422,-0.4077729284763336,-9.827705383300781
1745652285.4957097,0.009835883043706417,-0.009610104374587536,-0.22612234950065613,0.4464496076107025,-0.37802648544311523,-9.577593803405762
1745652285.498885,0.012149772606790066,0.0015410573687404394,-0.22496017813682556,0.2867204546928406,-0.3770065903663635,-9.763193130493164
1745652285.5034437,0.004019777290523052,-0.008175693452358246,-0.22698131203651428,0.4833856523036957,-0.44251805543899536,-9.859289169311523
1745652285.534497,0.014698488637804985,-0.0020110211335122585,-0.22533516585826874,0.2823079526424408,-0.3585488498210907,-9.853734016418457
1745652285.5373278,0.003117680549621582,-0.0031349000055342913,-0.2255769968032837,0.43401020765304565,-0.5069968700408936,-9.658452987670898
1745652285.5380309,0.0037167402915656567,-0.009508507326245308,-0.22618086636066437,0.28542155027389526,-0.3104303777217865,-9.793790817260742
1745652285.5391827,0.006495222449302673,-0.00017091279732994735,-0.22658054530620575,0.34842199087142944,-0.4706537127494812,-9.818799018859863
1745652285.5405414,-0.004205453209578991,-0.007005827035754919,-0.2268395721912384,0.4340593218803406,-0.31531304121017456,-9.707629203796387
1745652285.5914757,0.003771935123950243,0.00035022402880713344,-0.2294723093509674,0.2621947228908539,-0.43915024399757385,-9.814720153808594
1745652285.5915747,-0.015407455153763294,-0.0104783084243536,-0.22666454315185547,0.4290188252925873,-0.5032336115837097,-9.796187400817871
1745652285.595454,0.009717972949147224,-0.011341412551701069,-0.2173072099685669,0.24196156859397888,-0.25112617015838623,-9.577615737915039
1745652285.6038806,-0.00029860081849619746,0.004991438705474138,-0.21754121780395508,0.4164840579032898,-0.2960328757762909,-9.630831718444824
1745652285.6180623,0.0016642871778458357,-0.011209712363779545,-0.2176155298948288,0.31311360001564026,-0.2737657129764557,-9.920722961425781
1745652285.6211824,0.022555695846676826,-0.0014940464170649648,-0.21762454509735107,0.4127882421016693,-0.41063395142555237,-9.895036697387695
1745652285.6248257,0.0033534145914018154,-0.0015894010430201888,-0.21561789512634277,0.43934306502342224,-0.22143253684043884,-9.666299819946289
1745652285.6258779,0.01693679951131344,-0.008835384622216225,-0.21785394847393036,0.41418948769569397,-0.5029894709587097,-9.695206642150879
1745652285.62721,0.00628100847825408,-0.00640778848901391,-0.21475395560264587,0.5187678337097168,-0.33340027928352356,-9.793920516967773
1745652285.6635346,0.01430322416126728,-0.0036674600560218096,-0.21461379528045654,0.3296869397163391,-0.351042777299881,-9.960195541381836
1745652285.6668053,0.010744404047727585,-0.00712160300463438,-0.21481280028820038,0.428104966878891,-0.4166252017021179,-9.725927352905273
1745652285.6669548,0.011123450472950935,-0.008341575972735882,-0.21561114490032196,0.2971387505531311,-0.299151211977005,-9.632524490356445
1745652285.6687427,0.00342416949570179,-0.004333780612796545,-0.21766188740730286,0.41598302125930786,-0.47133320569992065,-9.846680641174316
1745652285.7055032,0.010704346932470798,-0.00896529946476221,-0.21579961478710175,0.34096550941467285,-0.3216336965560913,-9.913694381713867
1745652285.7084112,0.0110494839027524,-0.0021200031042099,-0.21722480654716492,0.41491150856018066,-0.39161401987075806,-9.702624320983887
1745652285.7097425,-0.003045437391847372,-0.007904763333499432,-0.21552987396717072,0.4639657437801361,-0.46279335021972656,-9.618208885192871
1745652285.7132509,0.010953407734632492,-0.01110757328569889,-0.21553950011730194,0.30208250880241394,-0.3917074203491211,-9.885751724243164
1745652285.748588,-0.0025916267186403275,-0.005015268921852112,-0.21258553862571716,0.5879629254341125,-0.45912808179855347,-9.904901504516602
1745652285.7535808,0.006985519081354141,-0.007359662558883429,-0.21530041098594666,0.22304733097553253,-0.3017992079257965,-9.786079406738281
1745652285.7557578,0.008379116654396057,-0.005440319888293743,-0.21299755573272705,0.446272075176239,-0.340025395154953,-9.562864303588867
1745652285.756697,-0.001583147794008255,-0.009922323748469353,-0.21516212821006775,0.3151994049549103,-0.1657029539346695,-9.727309226989746
1745652285.7599442,0.013928818516433239,-0.0020408194977790117,-0.21461614966392517,0.313552588224411,-0.44315996766090393,-9.967028617858887
1745652285.7968605,0.011400306597352028,-0.004673819988965988,-0.21468329429626465,0.47998395562171936,-0.21518108248710632,-9.682147979736328
1745652285.7991304,0.014526590704917908,-0.006278336048126221,-0.2141421139240265,0.25445592403411865,-0.43375569581985474,-9.77468204498291
1745652285.8013096,0.015413904562592506,-0.006621534936130047,-0.21488888561725616,0.4941796660423279,-0.37922579050064087,-9.724191665649414
1745652285.8047771,0.006874381098896265,-0.0016691675409674644,-0.21044674515724182,0.33745989203453064,-0.4141271710395813,-9.82555103302002
1745652285.8372126,0.003513755276799202,-0.01022839080542326,-0.2131098508834839,0.3508985936641693,-0.41945281624794006,-9.823018074035645
1745652285.8373382,0.01448427326977253,-0.00430383300408721,-0.21249738335609436,0.3396698832511902,-0.37796202301979065,-9.710142135620117
1745652285.839863,0.0008922104607336223,-0.006202888675034046,-0.21168844401836395,0.48834460973739624,-0.36872008442878723,-9.763761520385742
1745652285.840584,0.01091290544718504,-0.0093269944190979,-0.2132096290588379,0.2519170343875885,-0.25353047251701355,-9.912786483764648
1745652285.8768137,0.005549138877540827,-0.006570847239345312,-0.21132533252239227,0.5374742746353149,-0.5052511096000671,-9.68748950958252
1745652285.8806133,0.006362987216562033,-0.0038827266544103622,-0.21043352782726288,0.28784698247909546,-0.16930373013019562,-9.731595993041992
1745652285.8832734,0.007903659716248512,-0.00994735024869442,-0.21062453091144562,0.4087822437286377,-0.5560404062271118,-9.893293380737305
1745652285.8876572,0.022604119032621384,-0.011226934380829334,-0.2076655626296997,0.4407879710197449,-0.11527085304260254,-9.710203170776367
1745652285.893019,0.00592444371432066,0.0013006937224417925,-0.20863816142082214,0.2417590618133545,-0.41515153646469116,-9.867454528808594
1745652285.9205732,0.015395669266581535,-0.01710616983473301,-0.21031150221824646,0.4811668395996094,-0.37250953912734985,-9.606571197509766
1745652285.9225328,0.015859093517065048,-0.003771549556404352,-0.20757213234901428,0.25720730423927307,-0.31785306334495544,-9.779266357421875
1745652285.9249287,0.00950526725500822,-0.0028439254965633154,-0.20999093353748322,0.468705952167511,-0.4809126853942871,-9.884805679321289
1745652285.93396,0.01406917441636324,-0.013808414340019226,-0.2037193328142166,0.3290460705757141,-0.33323830366134644,-9.670146942138672
1745652285.9654787,0.014661192893981934,-0.006181652657687664,-0.20319876074790955,0.4272083342075348,-0.4046364724636078,-9.737899780273438
1745652285.9684203,0.004678098950535059,-0.01592854969203472,-0.20375096797943115,0.3969131410121918,-0.3198542296886444,-9.894302368164062
1745652285.9723456,0.016575057059526443,-0.005864995531737804,-0.20276060700416565,0.33278220891952515,-0.45146089792251587,-9.816423416137695
1745652285.975859,0.007802819367498159,-0.013392681255936623,-0.20372262597084045,0.4427832067012787,-0.2981846034526825,-9.611640930175781
1745652286.0079236,0.019010502845048904,-0.008423897437751293,-0.20251362025737762,0.3223315477371216,-0.3051036596298218,-9.75412368774414
1745652286.0104241,0.01215430349111557,-0.005754014477133751,-0.20393021404743195,0.4818342328071594,-0.32844218611717224,-9.834308624267578
1745652286.0149426,0.015176558867096901,-0.015216460451483727,-0.2035248577594757,0.3391372561454773,-0.2613724172115326,-9.806595802307129
1745652286.0187635,0.017157424241304398,-0.0026617373805493116,-0.20377512276172638,0.4096287786960602,-0.45919832587242126,-9.738627433776855
1745652286.0222418,0.01759335771203041,-0.014391249045729637,-0.20068523287773132,0.36539173126220703,-0.30933645367622375,-9.695158004760742
1745652286.0511138,0.02674570307135582,-0.0043266997672617435,-0.20173212885856628,0.29290956258773804,-0.39142483472824097,-9.88859748840332
1745652286.0534375,0.012028979137539864,-0.012354528531432152,-0.20348310470581055,0.45379939675331116,-0.3692582845687866,-9.75592041015625
1745652286.0550518,0.024984994903206825,-0.010317820124328136,-0.19951602816581726,0.3099978566169739,-0.3798810839653015,-9.705109596252441
1745652286.0577419,0.00445237522944808,-0.00908863265067339,-0.20101633667945862,0.42667850852012634,-0.4523859918117523,-9.776948928833008
1745652286.0995326,0.020155776292085648,-0.016892794519662857,-0.20205135643482208,0.3443407118320465,-0.3916938006877899,-9.844339370727539
1745652286.099637,0.00588781526312232,-0.004266258329153061,-0.19916465878486633,0.41105976700782776,-0.5155318379402161,-9.80382251739502
1745652286.099713,0.0017686758656054735,-0.015554824844002724,-0.19861850142478943,0.33770477771759033,-0.4116736352443695,-9.737935066223145
1745652286.0997863,0.00635504862293601,-0.011293504387140274,-0.19873765110969543,0.4487394690513611,-0.44673818349838257,-9.738398551940918
1745652286.0998828,0.004310700111091137,-0.010320832952857018,-0.19840745627880096,0.36701250076293945,-0.2618837058544159,-9.791074752807617
1745652286.138571,0.000994421076029539,-0.012779663316905499,-0.2007148563861847,0.2999376356601715,-0.3381575345993042,-9.83661937713623
1745652286.1386235,0.0074453772976994514,-0.008965726010501385,-0.1979634165763855,0.4671618342399597,-0.35396480560302734,-9.633560180664062
1745652286.1418204,0.012308316305279732,-0.011017169803380966,-0.19905194640159607,0.22228293120861053,-0.25597602128982544,-9.818892478942871
1745652286.1424894,0.01324426382780075,-0.009728060103952885,-0.1978534758090973,0.43488240242004395,-0.36267510056495667,-9.828818321228027
1745652286.1815088,0.03152841329574585,-0.008772201836109161,-0.19862955808639526,0.36203962564468384,-0.4652341902256012,-9.833447456359863
1745652286.1837025,0.0030938838608562946,-0.0036935019306838512,-0.19784973561763763,0.49149829149246216,-0.32425135374069214,-9.798741340637207
1745652286.1852312,0.012361803092062473,-0.019557800143957138,-0.19918057322502136,0.22386614978313446,-0.5641540288925171,-9.883331298828125
1745652286.189629,0.007323327008634806,-0.004975956864655018,-0.19538100063800812,0.4938479959964752,-0.39091575145721436,-9.605570793151855
1745652286.221005,-0.006575277540832758,-0.010021642781794071,-0.19545191526412964,0.2450103759765625,-0.38217052817344666,-9.802477836608887
1745652286.2229657,0.005087939091026783,-0.010497834533452988,-0.19741281867027283,0.390632688999176,-0.4874526858329773,-9.838484764099121
1745652286.2256954,-0.0032529074233025312,-0.0115787573158741,-0.19620050489902496,0.4277820587158203,-0.29604846239089966,-9.687156677246094
1745652286.2293286,0.00012584347859956324,-0.007278771139681339,-0.19524714350700378,0.269447386264801,-0.39255842566490173,-9.903121948242188
1745652286.2327805,-0.0042068748734891415,-0.013119110837578773,-0.1953522264957428,0.4025290906429291,-0.3595799207687378,-9.819740295410156
1745652286.271964,0.011685396544635296,-0.011022007092833519,-0.19588340818881989,0.29243409633636475,-0.3014585077762604,-9.59895133972168
1745652286.2744787,-0.005594161339104176,-0.0021886341273784637,-0.19274547696113586,0.45346301794052124,-0.3394390344619751,-9.709671974182129
1745652286.2762854,0.006534930318593979,-0.012639375403523445,-0.19543147087097168,0.24563631415367126,-0.2276383936405182,-9.920625686645508
1745652286.2797534,0.007024125661700964,-0.009430473670363426,-0.1951679289340973,0.5029866099357605,-0.43713274598121643,-9.70650863647461
1745652286.3161714,0.0017802525544539094,-0.005650812294334173,-0.1968197524547577,0.41676369309425354,-0.23666150867938995,-9.683210372924805
1745652286.316471,-0.0032091825269162655,-0.0003608299302868545,-0.19548103213310242,0.23105037212371826,-0.36164602637290955,-9.874640464782715
1745652286.3201845,-0.00018316991918254644,-0.0031957910396158695,-0.1956978440284729,0.4080887734889984,-0.4613547921180725,-9.820627212524414
1745652286.3228865,0.004814731422811747,-0.0004695078241638839,-0.1949625462293625,0.2688726484775543,-0.2722690999507904,-9.759559631347656
1745652286.352801,-0.012262391857802868,-0.00579491164535284,-0.19518014788627625,0.40923556685447693,-0.5531025528907776,-9.779170036315918
1745652286.35651,-0.0008953781798481941,-0.004466948565095663,-0.19546616077423096,0.2634747624397278,-0.2277802675962448,-9.769571304321289
1745652286.3616421,-0.018295254558324814,-0.0005812195595353842,-0.19507230818271637,0.34011170268058777,-0.5193119049072266,-9.790818214416504
1745652286.367036,-0.010005312971770763,-0.005617015995085239,-0.19616113603115082,0.3602660894393921,-0.2951129674911499,-9.707438468933105
1745652286.3729084,-0.015119115822017193,0.0002971395442727953,-0.19638776779174805,0.3131122291088104,-0.3838821053504944,-9.841292381286621
1745652286.398553,-0.021530834957957268,-0.005892121233046055,-0.19535145163536072,0.44720959663391113,-0.40080052614212036,-9.842020034790039
1745652286.3986428,-0.0004082582890987396,0.0004365875502116978,-0.19562067091464996,0.20998556911945343,-0.24097678065299988,-9.79405403137207
1745652286.3995833,-0.01980552263557911,-0.00261758198030293,-0.19485393166542053,0.48603925108909607,-0.3865290880203247,-9.659358024597168
1745652286.4029086,-0.005044166464358568,-0.0034168343991041183,-0.19545260071754456,0.28131207823753357,-0.1702011376619339,-9.736637115478516
1745652286.4407334,-0.010224941186606884,-0.0006155219161882997,-0.19598045945167542,0.38268211483955383,-0.3296073079109192,-9.944494247436523
1745652286.4447947,0.0013005967484787107,-0.004054735880345106,-0.1949063092470169,0.3855155110359192,-0.1716700792312622,-9.834450721740723
1745652286.4486947,0.004210314247757196,0.0031804959289729595,-0.1963619440793991,0.248160719871521,-0.30207881331443787,-9.712099075317383
1745652286.4519682,0.002354282420128584,-0.007936479523777962,-0.1979995220899582,0.47455549240112305,-0.2321656048297882,-9.621519088745117
1745652286.4812772,0.005003856960684061,-0.0011890735477209091,-0.19891571998596191,0.24689026176929474,-0.23801317811012268,-9.8848876953125
1745652286.4849114,-0.0041459714993834496,-0.004166610073298216,-0.19676585495471954,0.3526061177253723,-0.49018794298171997,-9.922070503234863
1745652286.488793,0.012644861824810505,-0.0016377018764615059,-0.20035114884376526,0.25879937410354614,-0.2351795881986618,-9.627903938293457
1745652286.4907866,-0.010639645159244537,-0.006065807305276394,-0.19959744811058044,0.37111178040504456,-0.6013326644897461,-9.759806632995605
1745652286.5006192,5.168737698113546e-05,-0.004616979509592056,-0.19834822416305542,0.2752627432346344,-0.29222220182418823,-9.896069526672363
1745652286.5259602,-0.005995272193104029,0.00771596422418952,-0.193837970495224,0.2494129240512848,-0.1328381896018982,-9.972088813781738
1745652286.5274806,-0.016030743718147278,-0.0014523041900247335,-0.19577153027057648,0.3736429214477539,-0.21974149346351624,-9.509614944458008
1745652286.5288072,-0.0054011354222893715,-0.006855596788227558,-0.19599679112434387,0.45838579535484314,-0.059221863746643066,-9.48523998260498
1745652286.5304518,0.006900588981807232,0.0024169893004000187,-0.1978544294834137,0.3827369213104248,-0.03729066252708435,-10.139369010925293
1745652286.5694299,-0.00010298637062078342,-0.0059725260362029076,-0.20018155872821808,0.31436803936958313,-0.24108386039733887,-10.090812683105469
1745652286.5729523,0.03267152979969978,0.00372067978605628,-0.19883909821510315,0.2511695921421051,-0.1629045605659485,-9.466339111328125
1745652286.5766826,0.012690350413322449,-0.004511488135904074,-0.19837097823619843,0.5532894134521484,-0.2070029079914093,-9.483931541442871
1745652286.5775554,0.03878401964902878,-0.008798989467322826,-0.19895011186599731,0.3022589683532715,-0.2795499265193939,-10.182737350463867
1745652286.6090262,0.017466619610786438,-0.0008918411913327873,-0.19655422866344452,0.4377072751522064,-0.45455652475357056,-9.955503463745117
1745652286.6135924,0.030302520841360092,0.00036178651498630643,-0.19455301761627197,0.29023662209510803,-0.44434624910354614,-9.462313652038574
1745652286.6166172,0.009318261407315731,-0.006323632784187794,-0.19528667628765106,0.3637755215167999,-0.5766441226005554,-9.569334983825684
1745652286.6190865,0.0063155340030789375,-0.009007126092910767,-0.1928776651620865,0.4174099862575531,-0.5117537379264832,-10.134200096130371
1745652286.6234756,0.0015853068325668573,0.0040678586810827255,-0.19496041536331177,0.2763252258300781,-0.44027337431907654,-9.999227523803711
1745652286.656591,0.036743972450494766,-0.009045243263244629,-0.18585321307182312,0.39248642325401306,-0.5614416599273682,-9.68289566040039
1745652286.6611075,0.004979242570698261,-0.0033948265481740236,-0.1836293786764145,0.4980855882167816,-0.34592264890670776,-9.753747940063477
1745652286.6658,0.008456019684672356,-0.014521281234920025,-0.18523666262626648,0.22044166922569275,-0.426570326089859,-10.026089668273926
1745652286.697221,0.018229197710752487,-0.006903291679918766,-0.1879328489303589,0.45180851221084595,-0.31103071570396423,-9.635408401489258
1745652286.7016234,0.00835573859512806,-0.009427035227417946,-0.18774887919425964,0.26968902349472046,-0.14439429342746735,-9.594404220581055
1745652286.7036126,0.01578286662697792,-0.0049537168815732,-0.1896602064371109,0.3910430073738098,-0.3209550082683563,-9.835748672485352
1745652286.7072706,0.014240805990993977,-0.015562367625534534,-0.188054159283638,0.38892754912376404,-0.18504598736763,-9.811617851257324
1745652286.710214,0.027018671855330467,0.0012750278692692518,-0.1886204183101654,0.3260105550289154,-0.3005160689353943,-9.784833908081055
1745652286.7420194,0.01635054685175419,-0.00608355225995183,-0.18722668290138245,0.36848825216293335,-0.2219199389219284,-9.73009967803955
1745652286.7430904,0.04377952963113785,-0.014378833584487438,-0.186947762966156,0.3451584279537201,-0.2801210582256317,-9.748916625976562
1745652286.7462366,0.0311430636793375,0.0008516591042280197,-0.1866769939661026,0.44360560178756714,-0.2090734988451004,-9.779093742370605
1745652286.7513478,0.03069431148469448,-0.010867034085094929,-0.18768620491027832,0.22674402594566345,-0.34300869703292847,-9.861944198608398
1745652286.781537,0.04298665374517441,-0.009402364492416382,-0.18748566508293152,0.4868694245815277,-0.41517987847328186,-9.634222030639648
1745652286.783891,0.022001923993229866,-0.008002121932804585,-0.18870563805103302,0.29961827397346497,-0.3623170852661133,-9.823861122131348
1745652286.7861788,0.030298825353384018,-0.006756170187145472,-0.1856091320514679,0.34314078092575073,-0.5544260740280151,-9.966938972473145
1745652286.7909849,0.015508925542235374,-0.014063174836337566,-0.18696017563343048,0.4412417411804199,-0.4127492904663086,-9.65539836883545
1745652286.791111,0.014958483166992664,-0.005499311722815037,-0.18544532358646393,0.32214632630348206,-0.5199418067932129,-9.689741134643555
1745652286.827577,-0.00012075402628397569,-0.0097505496814847,-0.18528538942337036,0.5098078846931458,-0.41384148597717285,-9.83983039855957
1745652286.8284009,0.012369800359010696,-0.016301454976201057,-0.1858498603105545,0.2547496259212494,-0.3243735432624817,-9.887974739074707
1745652286.8323917,0.0037601334042847157,-0.0014947153395041823,-0.1840292364358902,0.48269057273864746,-0.39509573578834534,-9.713203430175781
1745652286.833736,0.0028547795955091715,-0.0156443789601326,-0.18620078265666962,0.18547619879245758,-0.21904797852039337,-9.743643760681152
1745652286.8731587,0.020950186997652054,-0.01034428458660841,-0.18511131405830383,0.39943620562553406,-0.35371655225753784,-9.721813201904297
1745652286.8839293,0.02689523994922638,-0.006795910187065601,-0.18767960369586945,0.4420763850212097,-0.4622684419155121,-9.908638954162598
1745652286.885848,0.01717972755432129,-0.011334305629134178,-0.18607187271118164,0.31912094354629517,-0.28632399439811707,-9.713079452514648
1745652286.9115956,0.02196482941508293,-0.007404514588415623,-0.18691062927246094,0.4156656861305237,-0.5251474380493164,-9.681379318237305
1745652286.9144123,0.008486093021929264,-0.0110850278288126,-0.18484656512737274,0.2972695827484131,-0.26086562871932983,-9.819270133972168
1745652286.9176936,0.01662537083029747,-0.010160024277865887,-0.18614237010478973,0.3396131098270416,-0.5446902513504028,-9.828327178955078
1745652286.923337,0.007319229654967785,-0.005314353853464127,-0.18775346875190735,0.42449140548706055,-0.33569812774658203,-9.725054740905762
1745652286.925816,0.005405778530985117,-0.008829434402287006,-0.1840353012084961,0.21979551017284393,-0.44493216276168823,-9.882299423217773
1745652286.9599104,0.00015945881023071706,-0.01567642204463482,-0.18762549757957458,0.5514013767242432,-0.45050549507141113,-9.722082138061523
1745652286.9599528,0.005886732134968042,-0.0043329037725925446,-0.18640878796577454,0.23270340263843536,-0.29672741889953613,-9.827221870422363
1745652286.9599838,-0.00013514942838810384,-0.008773760870099068,-0.18467557430267334,0.42381125688552856,-0.4263715147972107,-9.725178718566895
1745652286.962684,-0.00015883558080531657,-0.012483475729823112,-0.186161071062088,0.40508943796157837,-0.25207942724227905,-9.680970191955566
1745652286.9964278,-0.0004992035101167858,-0.0039835283532738686,-0.18881073594093323,0.2858000099658966,-0.3579881191253662,-9.921250343322754
1745652286.9985452,-0.0008806817349977791,-0.013290813192725182,-0.18805427849292755,0.4794192910194397,-0.27828919887542725,-9.784092903137207
1745652287.0024576,-0.009578341618180275,0.0008866476127877831,-0.18586260080337524,0.40143537521362305,-0.3079233467578888,-9.84235668182373
1745652287.0027993,-0.0004940487560816109,-0.012769314460456371,-0.18681246042251587,0.26049426198005676,-0.36186346411705017,-9.938227653503418
1745652287.03975,0.008900980465114117,0.0035706073977053165,-0.18698106706142426,0.4669835567474365,-0.3656947910785675,-9.64818000793457
1745652287.0414371,-0.012993057258427143,-0.00863907765597105,-0.18471238017082214,0.29580196738243103,-0.3131040334701538,-9.758662223815918
1745652287.0434456,0.0067933350801467896,-0.0074868639931082726,-0.1861208975315094,0.3269134759902954,-0.4258851110935211,-9.857726097106934
1745652287.050531,-0.011776220984756947,-0.003902362659573555,-0.18656566739082336,0.40894660353660583,-0.3425598740577698,-9.727338790893555
1745652287.0830567,-0.0026688450016081333,-0.0020188833586871624,-0.18308278918266296,0.23227429389953613,-0.4074588716030121,-9.762969017028809
1745652287.0856256,-0.011713752523064613,-0.007536137010902166,-0.18358655273914337,0.4570067524909973,-0.4129489064216614,-9.699461936950684
1745652287.086932,-0.010361949913203716,-0.00901858415454626,-0.18434783816337585,0.2980533540248871,-0.25519827008247375,-9.826987266540527
1745652287.090129,-0.013110416941344738,0.004175380803644657,-0.18461580574512482,0.38230180740356445,-0.3981780409812927,-9.916903495788574
1745652287.093467,-0.012763088569045067,-0.010987822897732258,-0.1853424608707428,0.29521116614341736,-0.19201083481311798,-9.641836166381836
1745652287.1282017,-0.004724898841232061,-0.0029294313862919807,-0.18538036942481995,0.4389175772666931,-0.4064631462097168,-9.665643692016602
1745652287.133859,-0.014494265429675579,-0.0020612296648323536,-0.18568155169487,0.32937270402908325,-0.092230424284935,-9.902565956115723
1745652287.136185,-0.0004053093434777111,-0.009545033797621727,-0.18550710380077362,0.3140904903411865,-0.38079744577407837,-9.903428077697754
1745652287.1408043,-0.00550551014021039,-0.0004333457036409527,-0.18294492363929749,0.4461580812931061,-0.21644525229930878,-9.581130981445312
1745652287.1695383,0.0036734838504344225,-0.005217389203608036,-0.18653860688209534,0.22301876544952393,-0.2509777545928955,-9.795160293579102
1745652287.1735651,0.012369824573397636,-0.006320455111563206,-0.18399301171302795,0.4102896749973297,-0.3051208555698395,-9.880205154418945
1745652287.1761396,0.002190579893067479,-0.005956457927823067,-0.1841006875038147,0.2961153984069824,-0.23122355341911316,-9.744816780090332
1745652287.1794395,0.013979129493236542,0.00023078527010511607,-0.1850547194480896,0.38818415999412537,-0.44629502296447754,-9.66695785522461
1745652287.1835873,-0.006002433598041534,-0.010684730485081673,-0.1829962581396103,0.32899028062820435,-0.32185518741607666,-9.730855941772461
1745652287.2164292,0.00810923520475626,-0.005213399883359671,-0.18464946746826172,0.34662145376205444,-0.4645013213157654,-9.925202369689941
1745652287.2165163,-0.006885608192533255,-0.0002337746846023947,-0.18430419266223907,0.3784966468811035,-0.31688958406448364,-9.76695728302002
1745652287.2185519,-0.008096180856227875,-0.009817789308726788,-0.18366798758506775,0.23144003748893738,-0.45721617341041565,-9.685415267944336
1745652287.2210217,-0.00958163570612669,-0.006536364555358887,-0.1834079772233963,0.30716148018836975,-0.1352674514055252,-9.60499095916748
1745652287.255142,-0.007508663926273584,-0.005871400237083435,-0.1838395595550537,0.308673232793808,-0.346543550491333,-9.783495903015137
1745652287.2571993,-0.0007978589273989201,-0.006600188557058573,-0.18530181050300598,0.4328893721103668,-0.1441219449043274,-9.846075057983398
1745652287.2591896,0.0019866314250975847,-0.0042835744097828865,-0.18397970497608185,0.23878970742225647,-0.22399553656578064,-9.783842086791992
1745652287.2612748,0.0004207093152217567,-0.00134138367138803,-0.1836763173341751,0.46290746331214905,-0.2588314116001129,-9.623592376708984
1745652287.264622,0.006137554999440908,-0.01139347068965435,-0.18628597259521484,0.2857499122619629,-0.1899539828300476,-9.834848403930664
1745652287.2997112,0.013846851885318756,-0.0022620682138949633,-0.18475356698036194,0.3975658416748047,-0.4043542444705963,-9.959463119506836
1745652287.3005304,0.003785907058045268,-0.009282318875193596,-0.18609663844108582,0.287087619304657,-0.21031928062438965,-9.738555908203125
1745652287.302605,0.006849800702184439,-0.008684705942869186,-0.18531307578086853,0.3893616795539856,-0.5038760900497437,-9.652486801147461
1745652287.304137,-0.003785759210586548,-0.008127632550895214,-0.18648067116737366,0.3695427477359772,-0.2985345721244812,-9.774003028869629
1745652287.3432662,-0.002828892320394516,-0.008118937723338604,-0.18513961136341095,0.23803606629371643,-0.4624679982662201,-9.91236686706543
1745652287.344607,-0.0077811540104448795,-0.005256628151983023,-0.18390056490898132,0.4660119414329529,-0.35707178711891174,-9.630322456359863
1745652287.3468995,-0.009160378947854042,-0.008886340074241161,-0.1851172149181366,0.2439776360988617,-0.2973291277885437,-9.727468490600586
1745652287.3496058,0.004643009044229984,-0.0007206326117739081,-0.19012391567230225,0.33628126978874207,-0.3785613179206848,-9.943422317504883
1745652287.3861318,0.0020281930919736624,-0.009112019091844559,-0.19414564967155457,0.40552863478660583,-0.16993394494056702,-9.760175704956055
1745652287.388212,0.00932090263813734,0.002940632402896881,-0.19336600601673126,0.2066381424665451,-0.35678377747535706,-9.772825241088867
1745652287.39358,0.00894164014607668,-0.008881578221917152,-0.19257304072380066,0.4255288541316986,-0.2203717678785324,-9.635379791259766
1745652287.3962016,0.01821790635585785,0.00027042595320381224,-0.19512274861335754,0.22879162430763245,-0.2051955908536911,-9.89012622833252
1745652287.4258516,0.01921539008617401,-0.004210404120385647,-0.1947213113307953,0.4159098267555237,-0.32712826132774353,-9.823083877563477
1745652287.4281113,0.015692342072725296,-0.0007513565360568464,-0.1956598311662674,0.22553999722003937,-0.1879233717918396,-9.64787483215332
1745652287.4301872,0.011473527178168297,-0.0001202240600832738,-0.19572637975215912,0.3282734453678131,-0.46514201164245605,-9.699024200439453
1745652287.4373605,0.011972439475357533,-0.0011804723180830479,-0.19407348334789276,0.3363773822784424,-0.32127588987350464,-9.8695707321167
1745652287.4414983,0.014919362962245941,0.004916648846119642,-0.19013965129852295,0.503821074962616,-0.44578877091407776,-9.895180702209473
1745652287.473035,0.007890812121331692,-0.004448716528713703,-0.1926509290933609,0.4722001552581787,-0.30801358819007874,-9.814181327819824
1745652287.4770038,0.011140203103423119,0.004478616174310446,-0.19300638139247894,0.24443447589874268,-0.23678874969482422,-9.742042541503906
1745652287.4801733,0.002745316829532385,-0.004925495479255915,-0.19069965183734894,0.5746898055076599,-0.27796652913093567,-9.594160079956055
1745652287.4856753,0.020519593730568886,-0.0021803746931254864,-0.19372986257076263,0.3374192714691162,0.005793860647827387,-9.976107597351074
1745652287.5134828,0.013173150829970837,-0.00010024085349868983,-0.19499321281909943,0.3301735520362854,-0.4146333634853363,-10.04656982421875
1745652287.5158274,0.028901979327201843,-0.0038511306047439575,-0.19473496079444885,0.2529388666152954,-0.026923511177301407,-9.499011039733887
1745652287.518009,0.02087654545903206,0.006118762772530317,-0.19420751929283142,0.3364276885986328,-0.36303454637527466,-9.60411548614502
1745652287.5208786,0.03578845039010048,-0.00800623930990696,-0.1972794383764267,0.4375012516975403,-0.20268580317497253,-9.966832160949707
1745652287.5212321,0.03385922685265541,0.0034956284798681736,-0.19360442459583282,0.32203859090805054,-0.3508669435977936,-9.98310375213623
1745652287.5577197,0.03210834413766861,0.0028956544119864702,-0.19284865260124207,0.43935614824295044,-0.4105956554412842,-9.617271423339844
1745652287.567799,0.03266005590558052,-0.004877758678048849,-0.19396838545799255,0.29590803384780884,-0.3424081802368164,-9.572233200073242
1745652287.5706246,0.013336753472685814,0.003510220441967249,-0.1924099624156952,0.4809044301509857,-0.5352881550788879,-9.95977783203125
1745652287.598182,0.0002248425007564947,0.002024505753070116,-0.19596999883651733,0.3718596398830414,-0.192269966006279,-10.014974594116211
1745652287.6002748,0.015516486950218678,0.0023494872730225325,-0.1938798874616623,0.25865256786346436,-0.38002079725265503,-9.706868171691895
1745652287.6023924,0.020250990986824036,0.0035044997930526733,-0.19345633685588837,0.5176199078559875,-0.2127775400876999,-9.409971237182617
