timestamp,angular_vel_x,angular_vel_y,angular_vel_z,linear_acc_x,linear_acc_y,linear_acc_z
1745665452.9160864,-0.012647879309952259,-0.00015609245747327805,0.3235090970993042,1.0453239679336548,0.5741758346557617,-9.6775484085083
1745665452.9161248,-0.01548928301781416,-0.009435128420591354,0.3223799169063568,0.7829627990722656,0.44129520654678345,-10.202205657958984
1745665452.934111,-0.010971112176775932,-0.002465446013957262,0.3246884346008301,0.5720487833023071,0.41157859563827515,-9.9312105178833
1745665452.9514155,-0.01859263703227043,-0.013305346481502056,0.3260037302970886,0.8332988619804382,0.32429736852645874,-9.445463180541992
1745665452.9581559,-0.021084070205688477,-0.015044626779854298,0.33063605427742004,0.7157005071640015,0.5894111394882202,-9.708060264587402
1745665452.960505,-0.02001762017607689,-0.024189546704292297,0.3347891867160797,1.0685808658599854,0.08689138293266296,-10.125061988830566
1745665452.9802558,-0.021214652806520462,-0.02509196661412716,0.33966344594955444,1.0098352432250977,0.5491299033164978,-9.841720581054688
1745665453.0028954,-0.04160214215517044,-0.02102898433804512,0.3425503373146057,0.9511455297470093,0.001985180424526334,-9.650331497192383
1745665453.014148,-0.033566754311323166,-0.03814667835831642,0.34998613595962524,0.9266964197158813,0.5009254217147827,-9.581893920898438
1745665453.0340707,-0.04875786602497101,-0.03254498541355133,0.35369977355003357,0.9025393724441528,0.2825080454349518,-9.965133666992188
1745665453.0343142,-0.007512207143008709,-0.037915218621492386,0.37243548035621643,0.8925105333328247,0.15561127662658691,-9.71377182006836
1745665453.0594237,0.006288749165832996,-0.03810366988182068,0.3742592930793762,0.8198214769363403,0.4067012369632721,-9.80078411102295
1745665453.0627506,-0.017931023612618446,-0.033054038882255554,0.3804629445075989,0.9658203125,0.33824747800827026,-9.798046112060547
1745665453.0673,-0.017071915790438652,-0.04022178426384926,0.37915611267089844,0.7171769738197327,0.482839971780777,-9.855401039123535
1745665453.0813107,-0.02496957778930664,-0.04676993191242218,0.3773115277290344,0.9523147344589233,0.337608277797699,-9.785715103149414
1745665453.0814226,-0.031018028035759926,-0.05317332595586777,0.37986963987350464,0.8793796300888062,0.4797861576080322,-9.921295166015625
1745665453.0819125,-0.044755514711141586,-0.04444718733429909,0.3819436728954315,0.6915752291679382,0.26699745655059814,-10.01109790802002
1745665453.0851927,-0.04680648446083069,-0.059205155819654465,0.38406702876091003,0.871712327003479,0.305580735206604,-9.569687843322754
1745665453.0916297,-0.04400894045829773,-0.05320615693926811,0.3913852870464325,0.8619558215141296,0.5719836950302124,-9.574488639831543
1745665453.0936422,-0.05553768202662468,-0.06072871759533882,0.39403262734413147,0.9102271199226379,0.42939329147338867,-10.12808609008789
1745665453.1152403,-0.0251933541148901,-0.06279633939266205,0.3941516578197479,0.770601749420166,0.7840389609336853,-9.976901054382324
1745665453.11741,-0.032289184629917145,-0.052242934703826904,0.39795222878456116,0.8402341604232788,0.6543240547180176,-9.500401496887207
1745665453.1204336,-0.022348251193761826,-0.06442154198884964,0.3962048292160034,0.5789653062820435,0.6557362079620361,-9.596092224121094
1745665453.1223836,-0.008606252260506153,-0.059719014912843704,0.3986144959926605,0.6605886816978455,0.6487282514572144,-9.82291030883789
1745665453.1632445,-0.02217699959874153,-0.055813003331422806,0.399166464805603,0.7768641710281372,0.5687574148178101,-9.82120132446289
1745665453.1681046,-0.07704748213291168,-0.051960982382297516,0.431110680103302,0.6864040493965149,0.5957330465316772,-9.756307601928711
1745665453.1702693,-0.061651505529880524,-0.05049207806587219,0.4325891137123108,0.6122987866401672,0.5105482339859009,-9.746979713439941
1745665453.1741598,-0.0660824403166771,-0.06001819297671318,0.4343241751194,0.7587803602218628,0.5700821876525879,-9.778623580932617
1745665453.2023253,-0.06506407260894775,-0.047315407544374466,0.43570810556411743,0.5945093631744385,0.6326040029525757,-9.90587329864502
1745665453.2074692,-0.055797893553972244,-0.054570816457271576,0.435383141040802,0.7484744787216187,0.6186075210571289,-9.738653182983398
1745665453.207542,-0.06944750249385834,-0.054992400109767914,0.43621334433555603,0.4684065878391266,0.6065999269485474,-9.798408508300781
1745665453.2115936,-0.0510089211165905,-0.04696294665336609,0.43758535385131836,0.6747044920921326,0.4992050528526306,-9.733381271362305
1745665453.2129798,-0.08152402937412262,-0.04788869619369507,0.43552103638648987,0.5321062207221985,0.6548072099685669,-9.628889083862305
1745665453.2530375,-0.06533975899219513,-0.0474228635430336,0.43576106429100037,0.6293461918830872,0.41270074248313904,-9.718154907226562
1745665453.2531576,-0.07390981167554855,-0.04994264990091324,0.4382307529449463,0.7796180844306946,0.6147753000259399,-9.777486801147461
1745665453.2532396,-0.0807584747672081,-0.036391645669937134,0.43776148557662964,0.501362144947052,0.6095937490463257,-9.938957214355469
1745665453.2533226,-0.06848017126321793,-0.04569927603006363,0.4406192898750305,0.7331861257553101,0.5591694712638855,-9.569817543029785
1745665453.287269,-0.0808243602514267,-0.03849988058209419,0.44028592109680176,0.5468666553497314,0.6761835217475891,-9.590171813964844
1745665453.2914686,-0.06747221946716309,-0.03496589511632919,0.44519180059432983,0.6381149888038635,0.5050863027572632,-9.901947021484375
1745665453.2915437,-0.07518212497234344,-0.042529456317424774,0.44244328141212463,0.5328539609909058,0.846561074256897,-9.82345962524414
1745665453.2929177,-0.06077535077929497,-0.03342380374670029,0.4437490403652191,0.6153969168663025,0.6421343684196472,-9.725300788879395
1745665453.298347,-0.06525585800409317,-0.03755974769592285,0.4411858022212982,0.6528205871582031,0.7140148878097534,-9.718597412109375
1745665453.3341434,-0.07301604002714157,-0.03694993257522583,0.4404383599758148,0.5396541357040405,0.5989609956741333,-9.886236190795898
1745665453.3342226,-0.06432430446147919,-0.040024079382419586,0.44110649824142456,0.805192768573761,0.45281586050987244,-9.740185737609863
1745665453.3379438,-0.08444751799106598,-0.0333106629550457,0.44327807426452637,0.5119534730911255,0.6509991884231567,-9.79487419128418
1745665453.34126,-0.08420392870903015,-0.039517518132925034,0.4452831745147705,0.749943733215332,0.31002718210220337,-9.84278392791748
1745665453.3763986,-0.0771150141954422,-0.024683626368641853,0.4516170024871826,0.6203208565711975,0.499847412109375,-9.799190521240234
1745665453.37877,-0.07043777406215668,-0.03119366429746151,0.4513121545314789,0.7027159929275513,0.6770349144935608,-9.884454727172852
1745665453.381839,-0.07194472849369049,-0.0165522750467062,0.4503142237663269,0.6178065538406372,0.7905224561691284,-9.760812759399414
1745665453.383539,-0.07718553394079208,-0.026960009709000587,0.45063838362693787,0.5620893239974976,0.512458860874176,-9.631973266601562
1745665453.4174135,-0.06747899949550629,-0.025195518508553505,0.45065489411354065,0.46360287070274353,0.791260838508606,-9.578573226928711
1745665453.4206288,-0.0812896341085434,-0.020249349996447563,0.45379871129989624,0.6930189728736877,0.4937001168727875,-9.827760696411133
1745665453.420695,-0.0724421888589859,-0.02233285643160343,0.4528576731681824,0.48146122694015503,0.8348991274833679,-9.816086769104004
1745665453.422423,-0.07824283838272095,-0.0217119213193655,0.45292559266090393,0.643955647945404,0.6042932868003845,-9.761520385742188
1745665453.4244096,-0.07046789675951004,-0.02543938159942627,0.45322901010513306,0.6262558698654175,0.6872393488883972,-9.770194053649902
1745665453.4633782,-0.07794973254203796,-0.01768026128411293,0.45338186621665955,0.6015949249267578,0.7863472104072571,-9.766664505004883
1745665453.464774,-0.08354262262582779,-0.030925864353775978,0.4530978202819824,0.6803113222122192,0.4489423334598541,-9.752996444702148
1745665453.4670265,-0.07075824588537216,-0.01849968731403351,0.45391973853111267,0.5974255800247192,0.8297188878059387,-9.659832000732422
1745665453.46873,-0.09542880207300186,-0.02153477445244789,0.4558278024196625,0.6189821362495422,0.5733019113540649,-9.774170875549316
1745665453.5049493,-0.07399698346853256,-0.024884311482310295,0.45669522881507874,0.5039385557174683,0.8284174203872681,-9.747103691101074
1745665453.5100338,-0.07658937573432922,-0.01825847662985325,0.4566531181335449,0.7481346726417542,0.7735038995742798,-9.651718139648438
1745665453.510123,-0.041734497994184494,-0.01850326918065548,0.4560790956020355,0.6500133275985718,0.6918991804122925,-9.674395561218262
1745665453.513008,-0.0457780621945858,-0.024987533688545227,0.45600032806396484,0.5667546987533569,0.8480091094970703,-9.46833610534668
1745665453.514192,-0.03739708289504051,-0.012934151105582714,0.4580644965171814,0.6199312210083008,0.7617244124412537,-9.832967758178711
1745665453.54716,-0.04545589163899422,-0.02447386272251606,0.455252468585968,0.6340463161468506,0.9146674871444702,-9.93397045135498
1745665453.5478268,-0.03167383372783661,-0.02118735946714878,0.45545822381973267,0.5401839017868042,0.8995044827461243,-9.760366439819336
1745665453.5501986,-0.02952565625309944,-0.02233102172613144,0.45475149154663086,0.6578935980796814,0.8156963586807251,-9.606072425842285
1745665453.5530238,-0.041675325483083725,-0.02030200883746147,0.4502561092376709,0.4274095892906189,0.901960015296936,-9.74622917175293
1745665453.5886855,-0.028355944901704788,-0.02697698399424553,0.45282238721847534,0.7330555319786072,0.615226149559021,-9.70142650604248
1745665453.5937269,-0.041959501802921295,-0.022205810993909836,0.4518870711326599,0.5232248306274414,0.9151052236557007,-9.772493362426758
1745665453.5948286,-0.035920094698667526,-0.019684547558426857,0.4525081217288971,0.5474609136581421,0.7211042642593384,-9.8377046585083
1745665453.596478,-0.03717074543237686,-0.02949024736881256,0.44938117265701294,0.5754424929618835,0.8430584669113159,-9.604925155639648
1745665453.6323028,-0.027278129011392593,-0.01453400682657957,0.4522450566291809,0.5440167188644409,0.9074042439460754,-9.606589317321777
1745665453.6354303,-0.03634463623166084,-0.026537034660577774,0.4519815444946289,0.6088762283325195,0.7076302766799927,-9.818418502807617
1745665453.6379952,-0.026316866278648376,-0.02294190414249897,0.44983047246932983,0.4742945730686188,0.9849902987480164,-9.812540054321289
1745665453.6380842,-0.02414027415215969,-0.021259604021906853,0.45272397994995117,0.6427326202392578,0.7248826026916504,-9.70115852355957
1745665453.639749,-0.03051411174237728,-0.020825328305363655,0.44905930757522583,0.4288509786128998,0.9412708282470703,-9.705077171325684
1745665453.6789067,-0.032498277723789215,-0.022333402186632156,0.4492565095424652,0.6377120018005371,0.6003943085670471,-9.750726699829102
1745665453.6811225,-0.02766406536102295,-0.02763712964951992,0.4476650655269623,0.6514700651168823,0.8947423100471497,-9.678502082824707
1745665453.6829689,-0.0388525016605854,-0.018425991758704185,0.4465230405330658,0.4939635396003723,0.8465970754623413,-9.883760452270508
1745665453.690696,-0.03453321009874344,-0.03349369019269943,0.44567734003067017,0.667762279510498,0.7084633111953735,-9.799127578735352
1745665453.7190664,-0.022474132478237152,-0.021389808505773544,0.4467572569847107,0.5697115659713745,0.9967046976089478,-9.635096549987793
1745665453.7215855,-0.034702368080616,-0.028398770838975906,0.4449881613254547,0.6300203800201416,0.8784980773925781,-9.775215148925781
1745665453.7265258,0.02769351564347744,-0.019626397639513016,0.40856632590293884,-0.05151651054620743,0.7668497562408447,-9.406713485717773
1745665453.7302773,-0.0029712729156017303,-0.050739578902721405,0.40861231088638306,0.3793953061103821,-0.1290549337863922,-9.457231521606445
1745665453.7615173,0.011640327051281929,-0.04058469086885452,0.41068920493125916,0.47047820687294006,0.45997005701065063,-9.90263557434082
1745665453.7639408,-0.05046217516064644,-0.029600000008940697,0.4067065715789795,0.3859987258911133,0.19680282473564148,-10.349478721618652
1745665453.7658088,-0.046971503645181656,-0.04872474446892738,0.40302547812461853,0.365825891494751,0.45434412360191345,-9.557083129882812
1745665453.7674878,-0.06598515808582306,-0.041309110820293427,0.39680296182632446,0.44421491026878357,0.7702029943466187,-9.26054573059082
1745665453.8048434,-0.08310187608003616,-0.056928910315036774,0.3923341631889343,0.3160070776939392,0.7756595015525818,-10.056258201599121
1745665453.8073778,-0.0678243562579155,-0.04266780987381935,0.3854297697544098,0.21157541871070862,1.1911346912384033,-10.12509822845459
1745665453.808229,-0.050561852753162384,-0.04886248707771301,0.3818506598472595,0.3232969641685486,1.1267979145050049,-9.374320983886719
1745665453.8091586,-0.02483913116157055,-0.054298143833875656,0.3778221011161804,0.30577564239501953,1.5616815090179443,-9.3373441696167
1745665453.8304162,0.011046111583709717,-0.06256172806024551,0.3765721023082733,0.5501627922058105,1.157212734222412,-10.257954597473145
1745665453.84992,0.04455123096704483,-0.05132639408111572,0.37488359212875366,0.21827542781829834,1.4365729093551636,-10.260683059692383
1745665453.8525186,0.06550682336091995,-0.05235428735613823,0.3714865446090698,0.3699060082435608,0.9221199154853821,-9.407279014587402
1745665453.8573453,0.12487803399562836,-0.04812171310186386,0.20649106800556183,0.4044272005558014,0.8371021151542664,-10.727697372436523
1745665453.8902686,0.14707022905349731,-0.03318561241030693,0.19986970722675323,0.409111887216568,0.5635315775871277,-10.556962966918945
1745665453.8927586,0.1504872739315033,-0.022897984832525253,0.19403454661369324,0.6291226148605347,0.9180157780647278,-8.807222366333008
1745665453.894461,0.14763513207435608,-0.046410076320171356,0.18804392218589783,0.6838893890380859,0.38055986166000366,-9.313929557800293
1745665453.896987,0.14723968505859375,-0.048737507313489914,0.1863861083984375,0.5290234684944153,0.515866219997406,-10.731962203979492
1745665453.8987424,0.16171608865261078,-0.005339902825653553,0.17720521986484528,0.20866508781909943,0.5856056213378906,-10.51792049407959
1745665453.9356678,0.1346435248851776,-0.02644246257841587,0.17096339166164398,0.04859631508588791,0.45368942618370056,-8.88057804107666
1745665453.9395666,0.14558862149715424,-0.032537054270505905,0.16206064820289612,0.26387494802474976,0.6217309236526489,-8.796002388000488
1745665453.9438257,0.1377851516008377,-0.02491866610944271,0.15158000588417053,0.38617056608200073,0.8007988929748535,-10.550591468811035
1745665453.947481,0.14040927588939667,-0.007684655487537384,0.14059892296791077,0.14145010709762573,0.5128064155578613,-10.713961601257324
1745665453.9757867,0.15414676070213318,-0.0033243433572351933,0.13877864181995392,0.6595004200935364,0.5218968391418457,-8.886648178100586
1745665453.9804084,0.12777552008628845,-0.02125108614563942,0.1341969221830368,0.4971393644809723,0.38813748955726624,-9.124107360839844
1745665453.9865823,0.16236720979213715,-0.013073137030005455,0.13568636775016785,0.3927668333053589,0.5123838782310486,-10.536832809448242
1745665453.9910517,0.14504002034664154,0.00841259490698576,0.1325574368238449,0.3547537922859192,0.6141365170478821,-10.238725662231445
1745665453.9956167,0.18815232813358307,0.012142178602516651,0.12668263912200928,0.21649160981178284,0.9782015085220337,-8.969931602478027
1745665454.0195873,0.17199084162712097,-0.012063461355865002,0.11537470668554306,0.3693999648094177,0.9662157893180847,-9.194623947143555
1745665454.0205736,0.20199842751026154,0.0023250519298017025,0.10408337414264679,0.07715243101119995,0.9546440839767456,-10.6448335647583
1745665454.0227222,0.22076544165611267,0.014564876444637775,0.09308431297540665,0.3168979585170746,0.6947308778762817,-10.203622817993164
1745665454.0265186,0.20670394599437714,0.007948397658765316,0.09181464463472366,0.2743684649467468,0.3270365595817566,-9.067255020141602
1745665454.0627906,0.20679278671741486,0.006509368307888508,0.09006219357252121,0.5629091262817383,0.21269580721855164,-9.357091903686523
1745665454.0664907,0.18919627368450165,0.003276105271652341,0.08840985596179962,0.6195840835571289,0.03648173063993454,-10.45115852355957
1745665454.0692306,0.20131775736808777,0.026540031656622887,0.08373413234949112,0.457813024520874,0.4625510573387146,-10.190564155578613
1745665454.0766938,0.18813537061214447,0.018557699397206306,0.07575708627700806,0.7986484169960022,0.31394949555397034,-9.120935440063477
1745665454.0767367,0.2131839245557785,0.03198469430208206,0.054096948355436325,0.12046714127063751,0.4582120478153229,-9.892210006713867
1745665454.1072404,0.20078322291374207,0.036101073026657104,0.04916536062955856,0.3855508863925934,0.3425418734550476,-8.862253189086914
1745665454.1087065,0.20885959267616272,0.022140052169561386,0.04240258038043976,0.44244202971458435,0.42172184586524963,-9.434951782226562
1745665454.1125174,0.21047380566596985,0.03327393904328346,0.036034826189279556,0.5194383859634399,0.6087251901626587,-10.45455551147461
1745665454.1137273,0.20927438139915466,0.042366717010736465,0.02681012824177742,0.6340714693069458,0.29530414938926697,-10.254056930541992
1745665454.1507602,0.22963401675224304,0.03894028067588806,0.021279271692037582,0.5529364347457886,0.47458773851394653,-9.219880104064941
1745665454.154153,0.21422581374645233,0.030030732974410057,0.019090060144662857,0.7532050013542175,0.06999267637729645,-9.459671020507812
1745665454.158459,0.21907778084278107,0.03553934022784233,0.017467262223362923,0.3613142967224121,0.42011165618896484,-10.212383270263672
1745665454.1597881,0.2285870611667633,0.05112382769584656,0.01224956288933754,0.4124225676059723,0.16811704635620117,-9.876042366027832
1745665454.1915867,0.21641607582569122,0.04295521229505539,0.005890698172152042,0.3961082100868225,0.43447741866111755,-9.248284339904785
1745665454.1955822,0.23590657114982605,0.03921134024858475,-0.0021370979957282543,0.40569430589675903,0.4208529591560364,-9.660616874694824
1745665454.1998293,0.23256035149097443,0.038429439067840576,-0.009744826704263687,0.5024789571762085,0.33131012320518494,-10.239826202392578
1745665454.2008455,0.24015316367149353,0.05548590421676636,-0.017844097688794136,0.4560282230377197,0.2697731554508209,-9.90639877319336
1745665454.2474744,0.17704184353351593,0.029584821313619614,-0.1424805372953415,0.5881959795951843,-0.13354086875915527,-9.56615924835205
1745665454.2476144,0.15568684041500092,0.02018490433692932,-0.1435488760471344,0.7140911817550659,-0.5571275353431702,-9.674644470214844
1745665454.2476873,0.1653010994195938,0.02085452526807785,-0.14647570252418518,0.5229580998420715,-0.3093872666358948,-9.935338020324707
1745665454.2477345,0.14714044332504272,0.01818104274570942,-0.14715760946273804,0.7195213437080383,-0.6055136322975159,-9.958027839660645
1745665454.2494116,0.14962252974510193,0.018502088263630867,-0.1477995663881302,0.4860813617706299,-0.11029203236103058,-9.588510513305664
1745665454.2792203,0.14386513829231262,0.015440462157130241,-0.14889495074748993,0.6424363851547241,-0.529208779335022,-9.532125473022461
1745665454.2832766,0.15035417675971985,0.013342773541808128,-0.1560279279947281,0.48324766755104065,-0.029108908027410507,-9.687440872192383
1745665454.2867496,0.13668814301490784,0.02058154158294201,-0.15720942616462708,0.5727885961532593,-0.2577943801879883,-9.875351905822754
1745665454.2891252,0.15589255094528198,0.009853256866335869,-0.1608184278011322,0.4808068871498108,-0.4047263264656067,-9.748509407043457
1745665454.3217826,0.15143196284770966,0.013373914174735546,-0.16221210360527039,0.46272748708724976,-0.14368337392807007,-9.627415657043457
1745665454.323913,0.14670738577842712,0.008207079954445362,-0.163880854845047,0.6300978660583496,-0.6423335075378418,-9.814906120300293
1745665454.3252225,0.1570923626422882,0.01251823641359806,-0.16418039798736572,0.4865477681159973,-0.1922178566455841,-9.719236373901367
1745665454.3272681,0.1371680051088333,0.009847087785601616,-0.16655001044273376,0.7667585611343384,-0.5274349451065063,-9.573741912841797
1745665454.3644867,0.13508765399456024,0.005768734496086836,-0.16932114958763123,0.5266496539115906,-0.37363237142562866,-9.807992935180664
1745665454.3720338,0.13239867985248566,0.007563062943518162,-0.1718292236328125,0.614881157875061,-0.49460187554359436,-9.960670471191406
1745665454.374291,0.12465576082468033,0.0030010626651346684,-0.1745195835828781,0.5825501680374146,-0.3740641176700592,-9.738836288452148
1745665454.3753579,0.11775900423526764,0.005445676390081644,-0.17813165485858917,0.46391114592552185,-0.47101956605911255,-9.6558256149292
1745665454.3772247,0.12715734541416168,-0.002579390536993742,-0.18030884861946106,0.6077035069465637,-0.4378611147403717,-9.622320175170898
1745665454.4096322,0.10837550461292267,0.006057108752429485,-0.1819966733455658,0.45796799659729004,-0.18657374382019043,-9.791038513183594
1745665454.4110465,0.12604311108589172,0.003356895875185728,-0.18290869891643524,0.6357857584953308,-0.6461113691329956,-9.840899467468262
1745665454.4137375,0.12422390282154083,-0.004435007460415363,-0.1858377307653427,0.503535270690918,-0.10172639042139053,-9.664118766784668
1745665454.4151132,0.12129245698451996,0.0010732768569141626,-0.1853996217250824,0.6579660177230835,-0.6233237981796265,-9.930575370788574
1745665454.448596,0.12914049625396729,-0.0072835469618439674,-0.18747183680534363,0.5450295805931091,-0.425593763589859,-9.837038040161133
1745665454.4524715,0.10926729440689087,-0.00923888199031353,-0.1904284954071045,0.6476971507072449,-0.6506141424179077,-9.653589248657227
1745665454.4557736,0.10342119634151459,-0.006307381205260754,-0.19114895164966583,0.4671946167945862,-0.4386524260044098,-9.880314826965332
1745665454.4603744,0.10720013082027435,-0.008047007955610752,-0.192912295460701,0.6944459080696106,-0.5477842092514038,-9.851594924926758
1745665454.4931686,0.08360284566879272,-0.010028406046330929,-0.1966220885515213,0.4070318639278412,-0.40219998359680176,-9.778949737548828
1745665454.4951375,0.11499633640050888,-0.0091145820915699,-0.2004828155040741,0.5986912846565247,-0.532701313495636,-9.660160064697266
1745665454.4984674,0.09174498170614243,-0.013409538194537163,-0.20165899395942688,0.519339919090271,-0.23262393474578857,-9.65234375
1745665454.5020437,0.10405071079730988,-0.002008573617786169,-0.2013314664363861,0.5758251547813416,-0.6075895428657532,-9.84864330291748
1745665454.5051284,0.11131037771701813,-0.012097783386707306,-0.20344869792461395,0.5810796618461609,-0.32692375779151917,-9.6994047164917
1745665454.5381782,0.09994619339704514,-0.007501488085836172,-0.2035401314496994,0.45498886704444885,-0.486685574054718,-9.877303123474121
1745665454.5413706,0.1151304841041565,-0.011643681675195694,-0.20344993472099304,0.6173245906829834,-0.5934141278266907,-9.863840103149414
1745665454.5440824,0.10086923837661743,-0.013098051771521568,-0.20680856704711914,0.41198229789733887,-0.35039010643959045,-9.770445823669434
1745665454.5459208,0.10823366791009903,-0.011117488145828247,-0.20834064483642578,0.6189597249031067,-0.6474809646606445,-9.668008804321289
1745665454.5800345,0.08559230715036392,-0.01669931411743164,-0.20923154056072235,0.49606895446777344,-0.41018223762512207,-9.722867965698242
1745665454.5839527,0.06586797535419464,-0.012070792727172375,-0.2423960268497467,0.6397377252578735,-0.5901544690132141,-9.697009086608887
1745665454.5878148,0.07796791195869446,-0.015423962846398354,-0.24302181601524353,0.49307018518447876,-0.7772895693778992,-9.789411544799805
1745665454.5916872,0.08871479332447052,-0.011561460793018341,-0.24301424622535706,0.5354160070419312,-0.42943206429481506,-9.742902755737305
1745665454.622026,0.06876775622367859,-0.018887925893068314,-0.2414415180683136,0.5275476574897766,-0.8429800868034363,-9.93523120880127
1745665454.6246176,0.09746215492486954,-0.011013610288500786,-0.24026457965373993,0.42643657326698303,-0.5121017694473267,-9.79312515258789
1745665454.626494,0.07944343984127045,-0.019355546683073044,-0.24138078093528748,0.6171748042106628,-0.7311553359031677,-9.652044296264648
1745665454.6289208,0.08764560520648956,-0.013472321443259716,-0.24095818400382996,0.41802769899368286,-0.5448117256164551,-9.790618896484375
1745665454.6306174,0.0770941898226738,-0.014402580447494984,-0.24355533719062805,0.6002097129821777,-0.7454399466514587,-9.795446395874023
1745665454.6664183,0.08804140985012054,-0.01584983430802822,-0.24428315460681915,0.42782002687454224,-0.5338427424430847,-9.684442520141602
1745665454.669326,0.06984150409698486,-0.009415710344910622,-0.24531514942646027,0.5209181904792786,-0.7093029022216797,-9.758749008178711
1745665454.6710865,0.08007905632257462,-0.020111799240112305,-0.24605806171894073,0.5587536096572876,-0.7803918123245239,-9.902336120605469
1745665454.6721642,0.08728978782892227,-0.010647548362612724,-0.24754014611244202,0.4843805730342865,-0.45055827498435974,-9.72901725769043
1745665454.710383,0.06419207900762558,-0.01500540692359209,-0.24734368920326233,0.617963433265686,-0.9089667201042175,-9.688977241516113
1745665454.7122114,0.0987798348069191,-0.00891310628503561,-0.24623923003673553,0.38066720962524414,-0.3944559097290039,-9.658563613891602
1745665454.7132576,0.07386365532875061,-0.013977831229567528,-0.24722814559936523,0.629213273525238,-0.7957252264022827,-9.785725593566895
1745665454.7153556,0.09193752706050873,-0.012166348285973072,-0.24748726189136505,0.41213005781173706,-0.6085699796676636,-9.879972457885742
1745665454.7525396,0.09035737812519073,-0.013418003916740417,-0.24774065613746643,0.5421902537345886,-0.7206088304519653,-9.808749198913574
1745665454.7554858,0.08271297067403793,-0.01652684435248375,-0.2480432093143463,0.46196961402893066,-0.7376788854598999,-9.734525680541992
1745665454.7581415,0.08581601083278656,-0.010107268579304218,-0.24839691817760468,0.4833310544490814,-0.6366048455238342,-9.684382438659668
1745665454.7614856,0.08357960730791092,-0.017053907737135887,-0.24928736686706543,0.6080843210220337,-0.8381986618041992,-9.685779571533203
1745665454.7635963,0.08169296383857727,-0.008622130379080772,-0.249339297413826,0.46388235688209534,-0.4654056131839752,-9.676031112670898
1745665454.7949522,0.07318739593029022,-0.011843660846352577,-0.2500271201133728,0.650651216506958,-0.953044056892395,-9.94532299041748
1745665454.7968404,0.0997973084449768,-0.013288316316902637,-0.25009071826934814,0.3658226430416107,-0.46540650725364685,-9.834218978881836
1745665454.797885,0.09514017403125763,-0.014945274218916893,-0.2518285810947418,0.4701078534126282,-0.7185130715370178,-9.712148666381836
1745665454.837842,0.08731067180633545,-0.00892586912959814,-0.25134772062301636,0.5135132074356079,-0.6203306913375854,-9.707879066467285
1745665454.843037,0.0803714245557785,-0.014378574676811695,-0.25155243277549744,0.5698168873786926,-0.7930072546005249,-9.780019760131836
1745665454.8452907,0.09380163252353668,-0.009973703883588314,-0.25243449211120605,0.4767293930053711,-0.6810088157653809,-9.790063858032227
1745665454.8490186,0.08239126950502396,-0.01635034568607807,-0.25218889117240906,0.6357012987136841,-0.9020146131515503,-9.833331108093262
1745665454.8537066,0.08315695077180862,-0.012379629537463188,-0.252639502286911,0.41118621826171875,-0.580101490020752,-9.79370403289795
1745665454.8831913,0.0832332968711853,-0.0120560796931386,-0.25304535031318665,0.5542355179786682,-0.9953476190567017,-9.70945930480957
1745665454.8866546,0.0882708728313446,-0.013229504227638245,-0.252240926027298,0.4675363004207611,-0.5067169666290283,-9.483095169067383
1745665454.8888986,0.06380770355463028,-0.009827353060245514,-0.2557232975959778,0.6147340536117554,-0.8488316535949707,-9.82091999053955
1745665454.9016109,0.09242884814739227,-0.015709932893514633,-0.25563687086105347,0.4940943717956543,-0.7207038402557373,-9.935304641723633
1745665454.9227605,0.07645398378372192,-0.010588450357317924,-0.25675392150878906,0.4465186595916748,-0.5789409875869751,-9.76725959777832
1745665454.9258995,0.08330144733190536,-0.014625586569309235,-0.2564222812652588,0.5638295412063599,-0.9215995073318481,-9.662275314331055
1745665454.9279656,0.0424906387925148,-0.01431354321539402,-0.2556103765964508,0.48718753457069397,-0.9930583834648132,-9.949850082397461
1745665454.9311788,0.027993103489279747,-0.019657732918858528,-0.25645047426223755,0.5405946373939514,-0.7536735534667969,-9.548139572143555
1745665454.973709,0.033576738089323044,-0.018602725118398666,-0.2565905451774597,0.43251103162765503,-1.0647892951965332,-9.7150297164917
1745665454.9738476,0.0356849804520607,-0.021539729088544846,-0.25417158007621765,0.6196991205215454,-0.7308896780014038,-9.6947660446167
1745665454.973939,0.017655305564403534,-0.015561478212475777,-0.25622233748435974,0.49955710768699646,-0.9516250491142273,-9.895734786987305
1745665454.976627,0.04836804419755936,-0.013110943138599396,-0.25384521484375,0.5294179916381836,-0.9032310247421265,-9.643755912780762
1745665454.9800768,0.02617645263671875,-0.021819163113832474,-0.2548709809780121,0.3885892927646637,-0.6362792253494263,-9.620780944824219
1745665455.010014,0.047195110470056534,-0.014732800424098969,-0.25312694907188416,0.515789270401001,-0.9314579963684082,-9.885173797607422
1745665455.0123732,0.0353592112660408,-0.019290555268526077,-0.2536729872226715,0.4609488844871521,-0.6862930655479431,-9.800474166870117
1745665455.0138109,0.04519788920879364,-0.016411030665040016,-0.25446435809135437,0.4792819917201996,-0.9424816370010376,-9.62405776977539
1745665455.0157254,0.02714187279343605,-0.02130630798637867,-0.2546042501926422,0.6095525622367859,-0.9681159853935242,-9.644086837768555
1745665455.0527287,0.030693715438246727,-0.017527444288134575,-0.2548038363456726,0.44284892082214355,-0.9762784838676453,-9.905807495117188
1745665455.057082,0.022818978875875473,-0.015577122569084167,-0.2519214451313019,0.6573828458786011,-0.9341829419136047,-9.747840881347656
1745665455.0681791,0.007397582288831472,-0.018718166276812553,-0.25250107049942017,0.3938262462615967,-0.9415227174758911,-9.693618774414062
1745665455.0683515,0.03506357967853546,-0.015485970303416252,-0.2519221901893616,0.5263515114784241,-0.9004486799240112,-9.645339965820312
1745665455.0684397,0.0044394126161932945,-0.024775143712759018,-0.25492483377456665,0.47534459829330444,-0.6298030614852905,-9.752440452575684
1745665455.0956352,0.029412904754281044,-0.012681549414992332,-0.25430557131767273,0.4855082631111145,-0.9984029531478882,-9.902798652648926
1745665455.0997093,0.02669142559170723,-0.01985831744968891,-0.25428155064582825,0.5064129829406738,-0.5786482691764832,-9.597855567932129
1745665455.1036139,0.028315573930740356,-0.016502762213349342,-0.25323420763015747,0.43423932790756226,-0.9978891611099243,-9.723947525024414
1745665455.1069996,0.029090318828821182,-0.018453190103173256,-0.2531856894493103,0.5805922746658325,-0.8674497604370117,-9.726085662841797
1745665455.1390073,0.03021494671702385,-0.02132800593972206,-0.2523422837257385,0.45513802766799927,-0.9380553960800171,-9.899224281311035
1745665455.1420958,0.01805339753627777,-0.015904439613223076,-0.2495761215686798,0.5942288041114807,-1.017828345298767,-9.765685081481934
1745665455.1441147,0.014268848113715649,-0.020950816571712494,-0.24939365684986115,0.4662160277366638,-0.8459022641181946,-9.60669994354248
1745665455.1469727,0.026122692972421646,-0.016764674335718155,-0.2518923878669739,0.5183128118515015,-0.9558399319648743,-9.627506256103516
1745665455.182505,-0.0033798080403357744,-0.020855708047747612,-0.25147905945777893,0.5499655604362488,-0.7802588939666748,-9.799369812011719
1745665455.187038,0.02167903073132038,-0.014879444614052773,-0.2525862157344818,0.41079527139663696,-0.9848417043685913,-9.940382957458496
1745665455.1905289,0.012295106425881386,-0.022008052095770836,-0.25299540162086487,0.49552059173583984,-0.6992608308792114,-9.605937004089355
1745665455.1957417,0.007169933523982763,-0.02022092230618,-0.25305941700935364,0.40964192152023315,-0.9753468632698059,-9.674518585205078
1745665455.2000368,0.02350764535367489,-0.016608567908406258,-0.25282400846481323,0.6002724170684814,-0.8491474390029907,-9.741802215576172
1745665455.2324862,0.005702223163098097,-0.02396385930478573,-0.2488775998353958,0.5133611559867859,-0.9491745829582214,-9.873698234558105
1745665455.2325447,0.0196305550634861,-0.01497785747051239,-0.24829614162445068,0.5389885306358337,-0.9009626507759094,-9.758779525756836
1745665455.2325854,0.0084694167599082,-0.022590195760130882,-0.24744102358818054,0.4911840856075287,-0.9479317665100098,-9.68140983581543
1745665455.2326293,0.015387624502182007,-0.020600777119398117,-0.24590334296226501,0.4662432074546814,-0.9020757675170898,-9.744513511657715
1745665455.2680988,-0.004602603614330292,-0.025772666558623314,-0.2484939843416214,0.5856319069862366,-0.8207850456237793,-9.810222625732422
1745665455.2713912,0.017217455431818962,-0.021432645618915558,-0.24953898787498474,0.3743818998336792,-0.9437888860702515,-9.84853744506836
1745665455.2752252,0.0011645287740975618,-0.018138591200113297,-0.25064006447792053,0.5535684823989868,-0.7276366949081421,-9.492743492126465
1745665455.278911,-0.04015291854739189,-0.028646931052207947,-0.25321558117866516,0.5372692346572876,-0.9284318089485168,-9.695745468139648
1745665455.3110347,-0.0022818264551460743,-0.01774289645254612,-0.2553277909755707,0.4094792306423187,-0.7082073092460632,-9.950840950012207
1745665455.3132145,-0.033168669790029526,-0.0220833458006382,-0.2556549310684204,0.5982615351676941,-0.8969365358352661,-9.731578826904297
1745665455.314721,-0.017081603407859802,-0.024222105741500854,-0.2544148564338684,0.42717427015304565,-0.850594699382782,-9.56663990020752
1745665455.318381,-0.028266513720154762,-0.01891668327152729,-0.25089341402053833,0.5591920614242554,-0.9242235422134399,-9.722919464111328
1745665455.3201165,-0.027858396992087364,-0.026610445231199265,-0.2513428330421448,0.4302222728729248,-0.8378693461418152,-9.974841117858887
1745665455.3575141,-0.025837060064077377,-0.017491647973656654,-0.25263142585754395,0.4401196539402008,-0.708844006061554,-9.746034622192383
1745665455.3590562,-0.033510807901620865,-0.026529770344495773,-0.2529202997684479,0.4475095272064209,-0.9938596487045288,-9.63365364074707
1745665455.36494,-0.017628293484449387,-0.022873351350426674,-0.25457674264907837,0.3945750892162323,-0.5934776067733765,-9.610998153686523
1745665455.3711617,-0.049101583659648895,-0.021927447989583015,-0.2572588324546814,0.6042978763580322,-0.9779313206672668,-9.90218734741211
1745665455.398739,-0.012628470547497272,-0.017100226134061813,-0.253964900970459,0.330100417137146,-0.6879677772521973,-9.815793991088867
1745665455.4017017,-0.03560418635606766,-0.01853950135409832,-0.2557830810546875,0.5497446060180664,-0.7854533791542053,-9.594766616821289
1745665455.4051118,-0.029715225100517273,-0.027879685163497925,-0.2526070773601532,0.4629634916782379,-0.9355815052986145,-9.79578971862793
1745665455.406698,-0.022572418674826622,-0.0208630058914423,-0.2515321969985962,0.459774911403656,-0.7300161719322205,-9.904550552368164
1745665455.4396672,-0.03620735928416252,-0.025062287226319313,-0.2529902160167694,0.4797944128513336,-0.8971999287605286,-9.790397644042969
1745665455.441564,-0.023678792640566826,-0.01841120794415474,-0.2533799707889557,0.38404160737991333,-0.6485395431518555,-9.543169975280762
1745665455.444641,-0.0369807705283165,-0.02529984712600708,-0.2513815760612488,0.5671371817588806,-0.9223841428756714,-9.667590141296387
1745665455.446168,-0.02323905937373638,-0.02349041774868965,-0.25555163621902466,0.34126436710357666,-0.5127555131912231,-9.889810562133789
1745665455.449669,-0.043364424258470535,-0.017247414216399193,-0.25569406151771545,0.45810842514038086,-1.02150559425354,-9.966856002807617
1745665455.4835386,-0.013052579946815968,-0.02355840615928173,-0.2532448172569275,0.3464706540107727,-0.6870404481887817,-9.550613403320312
1745665455.4854724,-0.04027879238128662,-0.025178056210279465,-0.255193293094635,0.5565323829650879,-0.7677735686302185,-9.592260360717773
1745665455.4870121,-0.02914457581937313,-0.024023089557886124,-0.25350889563560486,0.5107062458992004,-0.9731305241584778,-9.948980331420898
1745665455.4884853,-0.016831517219543457,-0.012829547747969627,-0.25400227308273315,0.35428935289382935,-0.45241498947143555,-9.776168823242188
1745665455.5262666,-0.029354998841881752,-0.024226529523730278,-0.25390487909317017,0.5222564339637756,-0.8692407608032227,-10.001529693603516
1745665455.528327,-0.024481574073433876,-0.02215009182691574,-0.2553322911262512,0.3299559950828552,-0.7220896482467651,-9.906851768493652
1745665455.5293758,-0.0308176688849926,-0.0167657770216465,-0.2558448016643524,0.4899788796901703,-0.8417229652404785,-9.472663879394531
1745665455.5318913,-0.023641327396035194,-0.026479771360754967,-0.255607545375824,0.49227339029312134,-0.7523419857025146,-9.440585136413574
1745665455.5700479,-0.03792182356119156,-0.016617830842733383,-0.2541760802268982,0.43461379408836365,-0.7021753787994385,-9.974006652832031
1745665455.5754015,-0.026193538680672646,-0.01811322197318077,-0.2567458152770996,0.5455999374389648,-0.9515091180801392,-10.074090003967285
1745665455.5754466,-0.01572277396917343,-0.020480159670114517,-0.25594863295555115,0.3024551570415497,-0.4481796324253082,-9.568748474121094
1745665455.5765693,-0.03206075355410576,-0.024001142010092735,-0.2533579468727112,0.5461185574531555,-0.9685242772102356,-9.553364753723145
1745665455.579962,-0.008962147869169712,-0.020206674933433533,-0.25414353609085083,0.325073778629303,-0.49605727195739746,-9.844114303588867
1745665455.612061,-0.022838052362203598,-0.01702263206243515,-0.25408902764320374,0.49130940437316895,-0.809100329875946,-9.894556045532227
1745665455.6133215,-0.011513585224747658,-0.018614795058965683,-0.25627824664115906,0.4260717034339905,-0.6598443388938904,-9.556989669799805
1745665455.6152625,-0.014052105136215687,-0.017537886276841164,-0.2560048997402191,0.46194690465927124,-0.7319031953811646,-9.673002243041992
1745665455.6190052,-0.015859169885516167,-0.02648600935935974,-0.25381189584732056,0.5560964345932007,-0.8752453923225403,-9.986932754516602
1745665455.6648197,0.011148713529109955,-0.014988976530730724,-0.25819849967956543,0.5197226405143738,-0.8526149988174438,-9.738032341003418
1745665455.6676638,-0.017714673653244972,-0.01856149174273014,-0.2591538727283478,0.3910447061061859,-0.6288290023803711,-9.639785766601562
1745665455.671558,-0.004093163646757603,-0.012301524169743061,-0.2571754455566406,0.41515007615089417,-0.903128445148468,-9.793343544006348
1745665455.6746347,0.0020526773296296597,-0.021445851773023605,-0.2589915096759796,0.4443976879119873,-0.5747405290603638,-9.730749130249023
1745665455.700439,-0.015249691903591156,-0.013750811107456684,-0.26023417711257935,0.3141649067401886,-0.6685966849327087,-9.856460571289062
1745665455.7039294,0.01508170086890459,-0.014560794457793236,-0.25896579027175903,0.559329628944397,-0.6671420931816101,-9.693094253540039
1745665455.7075233,-0.009504994377493858,-0.018344992771744728,-0.2624800205230713,0.347914457321167,-0.5688883066177368,-9.666206359863281
1745665455.7123575,0.00907402765005827,-0.01364157348871231,-0.2590145468711853,0.5318247079849243,-0.825767993927002,-9.72762680053711
1745665455.7421668,-0.008725723251700401,-0.01971198059618473,-0.26133784651756287,0.36993634700775146,-0.7098469734191895,-9.816056251525879
1745665455.745305,0.006280887871980667,-0.01109931617975235,-0.25899380445480347,0.4186321198940277,-0.8155946731567383,-9.833409309387207
1745665455.7474008,-0.011716584675014019,-0.021024581044912338,-0.25688377022743225,0.4781303405761719,-0.6105669140815735,-9.648755073547363
1745665455.7502463,0.001265222206711769,-0.016124073415994644,-0.2602265775203705,0.331784725189209,-0.7851698994636536,-9.833559036254883
1745665455.750568,0.008759863674640656,-0.016405925154685974,-0.26126784086227417,0.519082248210907,-0.5230679512023926,-9.641396522521973
1745665455.794538,-0.015410562045872211,-0.015445059165358543,-0.26309001445770264,0.38068610429763794,-0.6959969997406006,-9.771604537963867
1745665455.797408,0.01969044841825962,-0.01278997678309679,-0.2616787850856781,0.46295565366744995,-0.7768252491950989,-9.719222068786621
1745665455.8011036,-0.013234066776931286,-0.020886559039354324,-0.2617751955986023,0.3617102801799774,-0.5773705244064331,-9.773755073547363
1745665455.802601,0.010549877770245075,-0.01062951609492302,-0.2611927390098572,0.4307318329811096,-0.8718324899673462,-9.878660202026367
1745665455.8269649,-0.0037701590918004513,-0.01924850419163704,-0.2596198618412018,0.43503299355506897,-0.6598692536354065,-9.643280029296875
1745665455.8305202,0.005946834571659565,-0.014526858925819397,-0.26151618361473083,0.3926700949668884,-0.68915855884552,-9.666595458984375
1745665455.8329892,-0.0047721657902002335,-0.018793683499097824,-0.260591059923172,0.5483869314193726,-0.7714282274246216,-9.807428359985352
1745665455.8366942,-0.001401609624736011,-0.01214693859219551,-0.26085853576660156,0.31214872002601624,-0.6732712984085083,-9.876269340515137
1745665455.8394504,0.011170787736773491,-0.013084633275866508,-0.26138317584991455,0.5107152462005615,-0.5588990449905396,-9.527666091918945
1745665455.8766317,0.020257556810975075,-0.00837179459631443,-0.2614061236381531,0.41918087005615234,-0.8015292882919312,-9.71108341217041
1745665455.8806388,0.013709718361496925,-0.017584064975380898,-0.26132169365882874,0.5134462118148804,-0.6193944215774536,-9.602954864501953
1745665455.8828194,0.006450366228818893,-0.013527827337384224,-0.2610522210597992,0.3192470073699951,-0.791019856929779,-9.937692642211914
1745665455.9136815,0.01709260419011116,-0.012554665096104145,-0.2591216266155243,0.49584633111953735,-0.7224718332290649,-9.80502700805664
1745665455.91504,0.005449066869914532,-0.01817830093204975,-0.26204007863998413,0.3700745701789856,-0.6797019839286804,-9.692154884338379
1745665455.9150968,0.011041024699807167,-0.014173361472785473,-0.25903400778770447,0.49495333433151245,-0.7218255400657654,-9.699919700622559
1745665455.9176545,-0.00645711924880743,-0.02207809127867222,-0.26239684224128723,0.44611120223999023,-0.7645166516304016,-9.859572410583496
1745665455.9263449,0.022769227623939514,-0.009485973976552486,-0.2608003616333008,0.3955923914909363,-0.6481536030769348,-9.777046203613281
1745665455.9594374,-0.012062900699675083,-0.01555260457098484,-0.26323604583740234,0.4893034100532532,-0.753883421421051,-9.63857650756836
1745665455.964751,0.013694988563656807,-0.015311451628804207,-0.26079505681991577,0.3330923020839691,-0.6948983073234558,-9.745010375976562
1745665455.9669688,0.0168963223695755,-0.016367413103580475,-0.261355459690094,0.5070268511772156,-0.5363180041313171,-9.769693374633789
1745665455.9714453,0.001968143042176962,-0.013730769976973534,-0.2626497149467468,0.34211164712905884,-0.6596361994743347,-9.85710334777832
1745665455.9977078,0.035964496433734894,-0.011104295030236244,-0.26331013441085815,0.498584121465683,-0.6003998517990112,-9.665914535522461
1745665456.0021703,-0.004388483241200447,-0.01849602535367012,-0.26207560300827026,0.47248736023902893,-0.8825456500053406,-9.83601188659668
1745665456.004668,0.02666754089295864,-0.012171715497970581,-0.26177558302879333,0.2713610529899597,-0.4619232714176178,-9.694132804870605
1745665456.0077999,0.010385419242084026,-0.019089650362730026,-0.26315927505493164,0.5020095109939575,-0.7461022138595581,-9.685816764831543
1745665456.040677,0.01610410585999489,-0.01973142847418785,-0.2646856904029846,0.3166908323764801,-0.6248109340667725,-9.918645858764648
1745665456.0450327,0.009068001993000507,-0.018307143822312355,-0.2670722007751465,0.501990020275116,-0.7175610661506653,-9.825296401977539
1745665456.0487282,0.013494494371116161,-0.022291773930191994,-0.26461321115493774,0.4258560538291931,-0.892071545124054,-9.678247451782227
1745665456.0510485,0.008522984571754932,-0.012597978115081787,-0.26532962918281555,0.38699889183044434,-0.5837582349777222,-9.575010299682617
1745665456.0521257,-0.010706929489970207,-0.02120947651565075,-0.2633095383644104,0.5268453359603882,-0.9773697853088379,-9.841987609863281
1745665456.0927246,0.02195136807858944,-0.015847032889723778,-0.2634202539920807,0.2947904169559479,-0.4758874475955963,-9.864234924316406
1745665456.0944066,-0.01075476873666048,-0.021762823686003685,-0.26298952102661133,0.519980251789093,-0.7953019142150879,-9.826478958129883
1745665456.0982964,0.023371007293462753,-0.01741301640868187,-0.2646239399909973,0.2917677164077759,-0.515062153339386,-9.714164733886719
1745665456.100843,0.010286050848662853,-0.0164200346916914,-0.26716768741607666,0.43921923637390137,-0.6876868009567261,-9.638689994812012
1745665456.1287496,0.012845834717154503,-0.02304702438414097,-0.26199835538864136,0.35089313983917236,-0.7247733473777771,-9.711618423461914
1745665456.1311376,0.016897980123758316,-0.014209615997970104,-0.2642156481742859,0.411660760641098,-0.7169800996780396,-9.849386215209961
1745665456.1331513,0.0038521033711731434,-0.021956216543912888,-0.26277631521224976,0.4595761299133301,-0.8710392117500305,-9.886736869812012
1745665456.1362827,0.012093143537640572,-0.013914741575717926,-0.26333287358283997,0.3376327157020569,-0.47799643874168396,-9.66810131072998
1745665456.1386616,-0.004393140319734812,-0.02222759649157524,-0.264350950717926,0.5318495631217957,-0.9924405217170715,-9.734822273254395
1745665456.181727,0.019989466294646263,-0.019233431667089462,-0.26434996724128723,0.3051382601261139,-0.43847888708114624,-9.710065841674805
1745665456.1828308,-0.008496387861669064,-0.01665416732430458,-0.2633167803287506,0.5206433534622192,-0.7788323760032654,-9.821447372436523
1745665456.1846354,0.018495600670576096,-0.014277820475399494,-0.26339074969291687,0.28989988565444946,-0.6407824754714966,-9.724173545837402
1745665456.1846726,0.01049203984439373,-0.015861041843891144,-0.2651275098323822,0.37907329201698303,-0.4865814745426178,-9.58554744720459
1745665456.215143,0.008446531370282173,-0.023114677518606186,-0.26525604724884033,0.4026544690132141,-0.839324951171875,-9.88444995880127
1745665456.2172177,0.02594638429582119,-0.01595180109143257,-0.26365864276885986,0.3078387379646301,-0.49712783098220825,-9.912192344665527
1745665456.2225134,0.017467157915234566,-0.01680148020386696,-0.2647373378276825,0.3028314709663391,-0.5574108362197876,-9.793048858642578
1745665456.2246618,-0.0068084015510976315,-0.009373841807246208,-0.26368075609207153,0.3840959668159485,-0.8250409960746765,-9.846491813659668
1745665456.2587452,0.014467611908912659,-0.021208427846431732,-0.2634340524673462,0.39227455854415894,-0.6507138013839722,-9.697671890258789
1745665456.263101,0.008265906013548374,-0.01566123776137829,-0.26746997237205505,0.3447520136833191,-0.40997201204299927,-9.689190864562988
1745665456.2643354,0.002993254456669092,-0.018446749076247215,-0.2679368853569031,0.48822736740112305,-0.8571195602416992,-9.861932754516602
1745665456.2673874,0.02803664840757847,-0.01072651892900467,-0.26755279302597046,0.2996278405189514,-0.36046716570854187,-9.66908073425293
1745665456.2696285,0.007723233662545681,-0.01772991381585598,-0.26630231738090515,0.5749872922897339,-0.9048353433609009,-9.72728443145752
1745665456.3025324,0.022327059879899025,-0.019116636365652084,-0.26370739936828613,0.31677380204200745,-0.5930078625679016,-9.821707725524902
1745665456.304818,0.01631915010511875,-0.01443408988416195,-0.2645048499107361,0.4438456594944,-0.8006258010864258,-9.899052619934082
1745665456.3070774,0.012660493142902851,-0.02048824168741703,-0.2615876793861389,0.3639043867588043,-0.6854318380355835,-9.759428024291992
1745665456.310346,0.014082198031246662,-0.013722604140639305,-0.2639429271221161,0.3844452500343323,-0.6138274073600769,-9.605969429016113
1745665456.3505065,0.020587865263223648,-0.02391711249947548,-0.2662428915500641,0.4630209505558014,-0.7542792558670044,-9.689214706420898
1745665456.3505795,0.011909779161214828,-0.011034728959202766,-0.2684510350227356,0.31297263503074646,-0.4486907124519348,-9.792558670043945
1745665456.3521376,0.014565425924956799,-0.013407084159553051,-0.2703067660331726,0.49293583631515503,-0.9086107015609741,-9.869775772094727
1745665456.3561916,0.013601966202259064,-0.022003261372447014,-0.2712632715702057,0.2968732416629791,-0.44848233461380005,-9.628232955932617
1745665456.3896067,-7.043788355076686e-05,-0.015518007799983025,-0.27251139283180237,0.398822546005249,-0.8903886675834656,-9.833745956420898
1745665456.3930933,0.018529724329710007,-0.018108684569597244,-0.27028214931488037,0.3875407874584198,-0.6557595729827881,-9.768402099609375
1745665456.396502,0.004466102458536625,-0.011160001158714294,-0.26930975914001465,0.3856436610221863,-0.7564776539802551,-9.614845275878906
1745665456.4004495,0.005649080965667963,-0.020959919318556786,-0.26970911026000977,0.5512581467628479,-0.75666344165802,-9.613840103149414
1745665456.4038553,0.0028360493015497923,-0.01715371571481228,-0.2687697112560272,0.3542206883430481,-0.6216464042663574,-9.986839294433594
1745665456.4309044,0.008020913228392601,-0.017716601490974426,-0.2685510814189911,0.47995954751968384,-0.8306794166564941,-9.972513198852539
1745665456.4322534,-0.00553069356828928,-0.017370425164699554,-0.2701380252838135,0.26524418592453003,-0.4486268162727356,-9.5805082321167
1745665456.4339046,0.011850095354020596,-0.015892911702394485,-0.26881903409957886,0.3917539417743683,-0.9100255966186523,-9.596879959106445
1745665456.4363825,0.008667132817208767,-0.021562375128269196,-0.2699269652366638,0.37532052397727966,-0.4042377471923828,-9.667803764343262
1745665456.473448,-0.0006510160746984184,-0.009923441335558891,-0.27086788415908813,0.4344243109226227,-0.6991502046585083,-9.94792652130127
1745665456.474814,0.02670789696276188,-0.015739714726805687,-0.26938363909721375,0.4544992446899414,-0.6967360377311707,-9.738761901855469
1745665456.4788241,0.006739478558301926,-0.01600886508822441,-0.27078524231910706,0.3453126549720764,-0.524207592010498,-9.704575538635254
1745665456.4793973,0.02448904886841774,-0.020372409373521805,-0.270004540681839,0.526398241519928,-0.8925528526306152,-9.871098518371582
1745665456.5161738,0.013120681047439575,-0.015805324539542198,-0.26826542615890503,0.2665853798389435,-0.5585061311721802,-9.766786575317383
1745665456.5213501,0.018120478838682175,-0.012006564065814018,-0.26973915100097656,0.49678850173950195,-0.8482503890991211,-9.60738468170166
1745665456.5227783,0.007560986094176769,-0.01988302730023861,-0.270059198141098,0.362393856048584,-0.6159220933914185,-9.680008888244629
1745665456.5269845,0.013586570508778095,-0.013241490349173546,-0.2681010365486145,0.40626993775367737,-0.7744625806808472,-9.947857856750488
1745665456.5293126,0.012422765605151653,-0.01596761867403984,-0.270791620016098,0.44015997648239136,-0.5206547379493713,-9.761330604553223
1745665456.5596616,-0.001617450499907136,-0.013108937069773674,-0.2714160084724426,0.2892380952835083,-0.7929272651672363,-9.722765922546387
1745665456.5613065,0.025197496637701988,-0.020853260532021523,-0.2721216082572937,0.5045675039291382,-0.7166326642036438,-9.671197891235352
1745665456.564502,0.018373558297753334,-0.01979188062250614,-0.26800990104675293,0.35692518949508667,-0.5463670492172241,-9.878206253051758
1745665456.5660017,0.01688307523727417,-0.013104254379868507,-0.2712562680244446,0.31550660729408264,-0.6946354508399963,-9.823394775390625
1745665456.6030352,0.01397340465337038,-0.020668571814894676,-0.27062690258026123,0.5062943696975708,-0.7858222723007202,-9.589510917663574
1745665456.605383,-0.0017345240339636803,-0.018423905596137047,-0.27033406496047974,0.3262755274772644,-0.7457818388938904,-9.767642974853516
1745665456.6076722,0.019481895491480827,-0.019269239157438278,-0.27088695764541626,0.5145136713981628,-0.873063862323761,-9.827332496643066
1745665456.6099837,-0.01899108849465847,-0.01528931874781847,-0.27145716547966003,0.305452436208725,-0.6284476518630981,-9.792256355285645
1745665456.6465833,0.010135490447282791,-0.015427472069859505,-0.26762306690216064,0.47557908296585083,-0.8772188425064087,-9.73297119140625
1745665456.648131,0.0014417875790968537,-0.026090895757079124,-0.268005907535553,0.36248666048049927,-0.4347134530544281,-9.653696060180664
1745665456.6502862,-0.001010434702038765,-0.016250204294919968,-0.27129822969436646,0.31702113151550293,-0.7664034962654114,-9.915940284729004
1745665456.652531,0.023305699229240417,-0.01672033779323101,-0.2700619101524353,0.43960729241371155,-0.521337628364563,-9.67462158203125
1745665456.68994,0.003009659703820944,-0.014844986610114574,-0.27038511633872986,0.3052798807621002,-0.6431753635406494,-9.67028522491455
1745665456.6900637,0.02030455879867077,-0.0184006430208683,-0.27116140723228455,0.49025121331214905,-0.774288535118103,-9.714802742004395
1745665456.691673,0.0032306164503097534,-0.01884915493428707,-0.26733165979385376,0.3130856156349182,-0.6946060061454773,-9.92431640625
1745665456.6942947,0.015362258069217205,-0.015830127522349358,-0.26661595702171326,0.463320255279541,-0.8449026942253113,-9.861017227172852
1745665456.6957877,0.010062037035822868,-0.018590359017252922,-0.2668878436088562,0.3601774573326111,-0.6778112649917603,-9.660910606384277
1745665456.7334342,0.024264920502901077,-0.014320527203381062,-0.2678702771663666,0.3955085277557373,-0.6989873647689819,-9.71633529663086
1745665456.7379854,0.0018492540111765265,-0.021786991506814957,-0.26923078298568726,0.45721545815467834,-0.6633538007736206,-9.860428810119629
1745665456.7383409,0.023066628724336624,-0.010865367017686367,-0.26997804641723633,0.2703567147254944,-0.7703321576118469,-9.81483268737793
1745665456.741847,0.00871993787586689,-0.014926391653716564,-0.27045103907585144,0.5153549313545227,-0.6118201017379761,-9.46148681640625
1745665456.772576,-0.0031428069341927767,-0.015324441716074944,-0.2683975398540497,0.3576776385307312,-0.774402916431427,-9.76871109008789
1745665456.77558,0.027497339993715286,-0.013610322959721088,-0.27107447385787964,0.4353521764278412,-0.6322120428085327,-9.929899215698242
1745665456.7793403,-0.006521542556583881,-0.015037374570965767,-0.26907044649124146,0.3405587673187256,-0.6419104337692261,-9.898725509643555
1745665456.7833843,0.03411377593874931,-0.009394627995789051,-0.26880231499671936,0.4180157780647278,-0.6764527559280396,-9.601893424987793
1745665456.7873304,0.007274494972079992,-0.01915680430829525,-0.268018901348114,0.4041633605957031,-0.6459654569625854,-9.558185577392578
1745665456.8203692,0.023158147931098938,-0.010335286147892475,-0.26851731538772583,0.31171175837516785,-0.5920683741569519,-9.863482475280762
1745665456.822908,0.014850826933979988,-0.011667598970234394,-0.2697339951992035,0.47698974609375,-0.7176746726036072,-9.858560562133789
1745665456.8261924,0.02004900388419628,-0.011596646159887314,-0.27007442712783813,0.2863081693649292,-0.6585707068443298,-9.70677375793457
1745665456.8295598,0.01826777122914791,-0.013186151161789894,-0.2704201340675354,0.5338588953018188,-0.582123875617981,-9.606382369995117
1745665456.8624697,0.0013601150130853057,-0.018389848992228508,-0.27040156722068787,0.3421945571899414,-0.869839072227478,-10.037702560424805
1745665456.8648386,0.03936566039919853,-0.008548087440431118,-0.2719044089317322,0.38178107142448425,-0.5369530320167542,-9.758424758911133
1745665456.867245,-0.007352528162300587,-0.0146291209384799,-0.27091091871261597,0.5072717070579529,-0.7821926474571228,-9.563096046447754
1745665456.878001,0.032308779656887054,-0.010693235322833061,-0.26931479573249817,0.36470118165016174,-0.7834237813949585,-9.710939407348633
1745665456.8816924,0.012300057336688042,-0.015396887436509132,-0.269447386264801,0.46081289649009705,-0.5641319155693054,-9.885104179382324
1745665456.9033222,0.018552720546722412,-0.00884192157536745,-0.2681078314781189,0.21884174644947052,-0.6748279333114624,-9.97609806060791
1745665456.904626,0.02967124804854393,-0.010822798125445843,-0.26993614435195923,0.4257332682609558,-0.6450021862983704,-9.518478393554688
1745665456.9047241,0.014285802841186523,-0.018710879608988762,-0.270473837852478,0.36418065428733826,-0.6936310529708862,-9.574848175048828
1745665456.9064307,0.010435720905661583,-0.011248847469687462,-0.2700187861919403,0.4769043028354645,-0.49386709928512573,-9.909029960632324
1745665456.947003,0.009622178971767426,-0.013243414461612701,-0.2689748704433441,0.3170605003833771,-0.7129119634628296,-9.707079887390137
1745665456.9480789,0.03838798776268959,-0.01065109483897686,-0.2683038115501404,0.4020577073097229,-0.46125349402427673,-9.48936653137207
1745665456.952778,0.009741554036736488,-0.01853349432349205,-0.2687513530254364,0.3965647220611572,-0.8293279409408569,-9.855040550231934
1745665456.9528463,0.04024254530668259,-0.00672267097979784,-0.2634345293045044,0.35193270444869995,-0.5654383897781372,-9.89754581451416
1745665456.992049,0.031958840787410736,-0.01908915489912033,-0.25623664259910583,0.20925495028495789,-0.9626764059066772,-9.765288352966309
1745665456.9952767,0.049436964094638824,-0.015820898115634918,-0.24940013885498047,-0.31977808475494385,-0.7288143038749695,-9.581483840942383
1745665456.996637,-0.00023287181102205068,-0.020403068512678146,-0.24265679717063904,0.2399294376373291,-1.3397071361541748,-9.685319900512695
1745665456.9976292,-0.0036391406320035458,-0.04400566220283508,-0.2329741269350052,-0.5742394924163818,-1.0358470678329468,-10.241739273071289
1745665456.9994757,-0.038660772144794464,-0.002329860348254442,-0.236100435256958,-0.19461853802204132,-0.6744246482849121,-9.42216682434082
1745665457.0328326,-0.041016530245542526,-0.026706567034125328,-0.2364034354686737,-0.30000680685043335,-0.5624945163726807,-9.063989639282227
1745665457.0364268,-0.062144339084625244,-0.04710042104125023,-0.23347410559654236,0.4174700677394867,-0.7473244667053223,-9.665461540222168
1745665457.0392535,-0.05539428070187569,-0.040163882076740265,-0.22458124160766602,0.4218694567680359,-0.8173268437385559,-11.003373146057129
1745665457.0409346,-0.0549335703253746,-0.041239719837903976,-0.21127620339393616,-0.35024264454841614,-0.945853054523468,-10.44983196258545
1745665457.0821054,-0.04627039283514023,-0.020195484161376953,-0.0857289656996727,-0.05262116342782974,-1.1415833234786987,-11.691965103149414
1745665457.0821848,-0.08183783292770386,-0.015107219107449055,-0.08848078548908234,-0.3047308325767517,-0.5084360837936401,-7.899651527404785
1745665457.0831513,-0.11748690903186798,-0.0647984966635704,-0.09257027506828308,0.1517292559146881,-0.8450803756713867,-7.9256086349487305
1745665457.086789,-0.1385754644870758,-0.0583149679005146,-0.09891055524349213,0.40666550397872925,-0.24054798483848572,-11.501517295837402
1745665457.1179647,-0.1341448873281479,-0.015438792295753956,-0.10079453885555267,0.1675349622964859,-0.851893424987793,-11.989847183227539
1745665457.1211278,-0.11950536072254181,-0.0246493611484766,-0.09005658328533173,0.09151016920804977,-0.4536001682281494,-8.209657669067383
1745665457.1244068,-0.12972424924373627,-0.0463436134159565,-0.07028261572122574,0.1525973379611969,-0.7718229293823242,-7.858788967132568
1745665457.1270337,-0.09975969046354294,-0.031638890504837036,-0.0535954050719738,0.4599967896938324,-0.7437291145324707,-11.073923110961914
1745665457.1306412,-0.0814642533659935,-0.012965318746864796,-0.04316886514425278,0.12315265834331512,0.09132303297519684,-11.471429824829102
1745665457.1626887,-0.05531490966677666,-0.006019418127834797,-0.04258305951952934,0.3005395531654358,-0.20082800090312958,-8.811457633972168
1745665457.1654253,-0.05167853832244873,-0.024910226464271545,-0.04175189882516861,0.2689794898033142,0.2273988425731659,-8.307195663452148
1745665457.1754918,-0.07637067884206772,-0.02732231095433235,-0.042875196784734726,0.5258262753486633,-0.6247669458389282,-10.750001907348633
1745665457.1756592,-0.08024575561285019,-0.011006748303771019,-0.041048165410757065,0.7947046756744385,-0.7117670178413391,-11.084742546081543
1745665457.2060943,-0.11938180029392242,0.014325758442282677,-0.03139243647456169,0.4215049743652344,-0.9950615763664246,-9.214237213134766
1745665457.209763,-0.14150573313236237,-0.01181026641279459,-0.016099553555250168,0.8207162022590637,-0.8034124374389648,-8.392725944519043
1745665457.2109244,-0.1605030745267868,-0.021410958841443062,-0.004881255328655243,0.9051241874694824,-0.316409170627594,-10.327800750732422
1745665457.2122228,-0.11608289182186127,0.011904642917215824,0.0008239660528488457,0.7528640031814575,0.01705382578074932,-11.38703727722168
1745665457.2139273,-0.09360970556735992,0.011460011824965477,0.007023283280432224,0.12223111093044281,0.43489041924476624,-9.469225883483887
1745665457.249742,-0.0453922413289547,0.0011599684366956353,0.008659832179546356,0.07222971320152283,0.2661342918872833,-8.320802688598633
1745665457.2545164,-0.03790095075964928,0.0048302761279046535,0.016747301444411278,0.17339542508125305,0.21320021152496338,-9.765962600708008
1745665457.2570674,0.005754430778324604,0.02303760126233101,0.018237946555018425,0.003773745847865939,-0.22665397822856903,-11.052957534790039
1745665457.2644126,-0.004319736734032631,0.03024594858288765,0.02596738375723362,0.2391723394393921,-0.4240623116493225,-9.632673263549805
1745665457.2940347,-0.20109935104846954,0.03745005279779434,0.06932772696018219,0.17626182734966278,-0.7489742636680603,-9.505691528320312
1745665457.297847,-0.2104208916425705,0.04253018647432327,0.07289183139801025,0.4246254861354828,-0.13805854320526123,-10.244155883789062
1745665457.3019826,-0.18384580314159393,0.04984237253665924,0.07110185921192169,0.17034530639648438,0.28773564100265503,-10.15369701385498
1745665457.3034718,-0.1489122211933136,0.04756049066781998,0.07460115104913712,0.2777939438819885,0.3990241289138794,-9.397819519042969
1745665457.3404331,-0.12423650175333023,0.04173136502504349,0.07602974772453308,0.3225356638431549,0.34819212555885315,-9.524168014526367
1745665457.3405793,-0.08526666462421417,0.0523526594042778,0.08486128598451614,0.538330614566803,-0.015027999877929688,-10.142452239990234
1745665457.3419642,-0.08656112849712372,0.046699408441782,0.09143701195716858,0.4788818359375,-0.13167668879032135,-10.116674423217773
1745665457.344271,-0.06367605179548264,0.057778000831604004,0.09918797016143799,0.38973870873451233,-0.3351895213127136,-9.471181869506836
1745665457.3446891,-0.0864432081580162,0.05461837723851204,0.10800009965896606,0.5762518048286438,-0.3232062757015228,-9.365888595581055
1745665457.3826914,-0.08838766813278198,0.04998068884015083,0.10561851412057877,0.5219187140464783,-0.24406032264232635,-10.002740859985352
1745665457.3881707,-0.10672318935394287,0.049740441143512726,0.10566850006580353,0.642251193523407,-0.4181981682777405,-10.202917098999023
1745665457.3905594,-0.12427961826324463,0.05690031498670578,0.10454051196575165,0.20227399468421936,-0.3727171719074249,-9.754255294799805
1745665457.3953707,-0.14072152972221375,0.06126450374722481,0.10844242572784424,0.24941368401050568,-0.6056080460548401,-9.227129936218262
1745665457.419773,-0.15710823237895966,0.051264625042676926,0.11684707552194595,0.41970372200012207,-0.45599308609962463,-9.51171588897705
1745665457.4211597,-0.1377197802066803,0.026633450761437416,0.21506500244140625,0.5524884462356567,-0.08149538934230804,-9.881768226623535
1745665457.42429,-0.1599520444869995,0.023668497800827026,0.21891097724437714,0.6216330528259277,-0.17820900678634644,-9.568929672241211
1745665457.425111,-0.16474783420562744,0.02451516129076481,0.22096729278564453,0.36467456817626953,-0.005812607705593109,-9.586739540100098
1745665457.4621196,-0.18030762672424316,0.015959981828927994,0.22376635670661926,0.5468874573707581,-0.11547402292490005,-9.75003433227539
1745665457.4659379,-0.17662084102630615,0.020667074248194695,0.22553983330726624,0.3591861128807068,0.1603042334318161,-9.748915672302246
1745665457.4714656,-0.1772235482931137,0.028591131791472435,0.22858095169067383,0.40941762924194336,0.15595822036266327,-9.636341094970703
1745665457.475338,-0.1710444688796997,0.010535761713981628,0.23013095557689667,0.46070632338523865,0.36848148703575134,-9.517690658569336
1745665457.4791837,-0.15663127601146698,0.016505476087331772,0.23193788528442383,0.5528527498245239,0.2135481834411621,-9.902222633361816
1745665457.5075626,-0.1590004712343216,0.017032179981470108,0.2329483926296234,0.5025180578231812,0.22462062537670135,-9.97297477722168
1745665457.5107143,-0.15056857466697693,0.016806311905384064,0.2364662140607834,0.29580849409103394,0.16705182194709778,-9.553297996520996
1745665457.515144,-0.16168765723705292,0.010022534057497978,0.23830494284629822,0.6191002130508423,0.10136141628026962,-9.322429656982422
1745665457.5183673,-0.1596408188343048,0.009424437768757343,0.2427576780319214,0.5150337815284729,0.23994269967079163,-9.912142753601074
1745665457.5504756,-0.1644565612077713,0.006782834418118,0.2420654594898224,0.6126161813735962,0.17863111197948456,-10.148138046264648
1745665457.5535626,-0.16917534172534943,0.003887662198394537,0.24170348048210144,0.4435350000858307,0.2601966857910156,-9.647287368774414
1745665457.5562832,-0.16400878131389618,0.009570194408297539,0.2428193986415863,0.461495578289032,0.2766544222831726,-9.39219856262207
1745665457.5577083,-0.17279580235481262,-0.006859152112156153,0.24564549326896667,0.5424908995628357,0.18683619797229767,-9.822908401489258
1745665457.560616,-0.1591838300228119,-0.00486780796200037,0.24559006094932556,0.4549541473388672,0.3462525010108948,-10.040559768676758
1745665457.5925992,-0.16334113478660583,0.0007397325825877488,0.25057876110076904,0.5236266851425171,0.19251812994480133,-9.6935453414917
1745665457.5950594,-0.1523219347000122,-0.0054059335961937904,0.25285086035728455,0.255454957485199,0.3911049962043762,-9.492761611938477
1745665457.597183,-0.1547621488571167,-0.008888601325452328,0.2564981281757355,0.5679578185081482,0.1529989242553711,-9.686136245727539
1745665457.5992744,-0.153219074010849,-0.008693142794072628,0.25460636615753174,0.4799575209617615,0.4100140631198883,-9.952609062194824
1745665457.634113,-0.1517188549041748,-0.00353037565946579,0.2568989396095276,0.44175729155540466,0.1633210927248001,-9.906768798828125
1745665457.6363122,-0.16409099102020264,-0.019464394077658653,0.26670727133750916,0.4197354316711426,0.5459377765655518,-9.760249137878418
1745665457.6379087,-0.161839559674263,-0.016491319984197617,0.26815906167030334,0.46094027161598206,0.4102557301521301,-10.070259094238281
1745665457.6434872,-0.15795551240444183,-0.018584180623292923,0.26815739274024963,0.37846359610557556,0.4018447995185852,-9.80254077911377
1745665457.6785936,-0.14619849622249603,-0.01656586304306984,0.2744843065738678,0.3694887161254883,0.4497002065181732,-9.408679962158203
1745665457.6832078,-0.15736211836338043,-0.024225367233157158,0.27380847930908203,0.4897843301296234,0.33507293462753296,-9.701081275939941
1745665457.6862936,-0.1444879174232483,-0.022475186735391617,0.2770518660545349,0.46344107389450073,0.3896549344062805,-10.174824714660645
1745665457.688813,-0.15261094272136688,-0.019320430234074593,0.27736997604370117,0.6066151261329651,0.3239724338054657,-9.874451637268066
1745665457.6932428,-0.15626849234104156,-0.025981208309531212,0.2786651849746704,0.3618847727775574,0.39884239435195923,-9.538607597351074
1745665457.7225342,-0.15802901983261108,-0.028634384274482727,0.2788863778114319,0.5462137460708618,0.22823460400104523,-9.653505325317383
1745665457.7249455,-0.17308536171913147,-0.026403883472085,0.28369587659835815,0.5046277642250061,0.3204701840877533,-10.014409065246582
1745665457.7274404,-0.16112734377384186,-0.020648544654250145,0.28518855571746826,0.42139071226119995,0.4348238408565521,-9.903284072875977
1745665457.732105,-0.1748119294643402,-0.033486317843198776,0.28614485263824463,0.4516693949699402,0.40273362398147583,-9.614282608032227
1745665457.7665086,-0.1561208814382553,-0.02723347581923008,0.28692299127578735,0.38854339718818665,0.6738458871841431,-9.696966171264648
1745665457.7691796,-0.1654193103313446,-0.02607252076268196,0.28714796900749207,0.49689221382141113,0.5667575001716614,-9.878239631652832
1745665457.7736325,-0.13996270298957825,-0.03520321100950241,0.31675606966018677,0.4539526402950287,0.5253933668136597,-10.003994941711426
1745665457.7787597,-0.12960509955883026,-0.037728261202573776,0.3160269260406494,0.39214468002319336,0.8208389282226562,-9.905158042907715
1745665457.8137393,-0.1324785053730011,-0.025459494441747665,0.31745636463165283,0.42009010910987854,0.7045385241508484,-9.629499435424805
1745665457.8157094,-0.13477613031864166,-0.04047657921910286,0.31968486309051514,0.36393794417381287,0.600713312625885,-9.612249374389648
1745665457.8200374,-0.12235138565301895,-0.034379564225673676,0.3199123740196228,0.31397849321365356,0.8076570630073547,-9.824426651000977
1745665457.82342,-0.13251784443855286,-0.03056093119084835,0.32193970680236816,0.48614591360092163,0.5756545066833496,-9.936296463012695
1745665457.8512077,-0.11740446090698242,-0.02941647730767727,0.3217149078845978,0.26663678884506226,0.9829978942871094,-9.70976734161377
1745665457.8537076,-0.12573044002056122,-0.03177553042769432,0.3231770396232605,0.45106834173202515,0.6586211323738098,-9.678749084472656
1745665457.8560376,-0.11709244549274445,-0.03170980513095856,0.32008394598960876,0.3525698482990265,0.8263728022575378,-9.841653823852539
1745665457.8577175,-0.1263551265001297,-0.02439451403915882,0.3217974305152893,0.45453423261642456,0.7565566897392273,-9.820297241210938
1745665457.8589973,-0.13044920563697815,-0.037852413952350616,0.31966671347618103,0.41933107376098633,0.5778315663337708,-9.730327606201172
1745665457.8930383,-0.11860700696706772,-0.027221674099564552,0.3217500150203705,0.4108647406101227,0.8512738943099976,-9.688726425170898
1745665457.895649,-0.14148549735546112,-0.028436725959181786,0.32357698678970337,0.4326924681663513,0.6113026738166809,-9.872171401977539
1745665457.897293,-0.11996559798717499,-0.032242052257061005,0.32507362961769104,0.3151002526283264,0.8811303973197937,-9.768084526062012
1745665457.9020565,-0.12535300850868225,-0.02898728847503662,0.3258790373802185,0.5358556509017944,0.744817852973938,-9.646599769592285
1745665457.9378107,-0.12009523808956146,-0.02645028568804264,0.32762616872787476,0.30149930715560913,0.9149377942085266,-9.831059455871582
1745665457.9404497,-0.10779861360788345,-0.02902674302458763,0.32812008261680603,0.467729389667511,0.9359259605407715,-9.795419692993164
1745665457.9432826,-0.11696206033229828,-0.03305495157837868,0.32634395360946655,0.34397372603416443,0.785688042640686,-9.8518705368042
1745665457.9461572,-0.0977523997426033,-0.024583641439676285,0.32646530866622925,0.34759193658828735,0.8699120283126831,-9.7271146774292
1745665457.947885,-0.12703749537467957,-0.0278557687997818,0.32708248496055603,0.3970178961753845,0.6889315843582153,-9.673833847045898
1745665457.979202,-0.10630711168050766,-0.03267960995435715,0.325430691242218,0.34995701909065247,0.7911320328712463,-9.667716979980469
1745665457.9812164,-0.12379191815853119,-0.027548443526029587,0.32842832803726196,0.5497461557388306,0.7203367948532104,-9.819578170776367
1745665457.9834838,-0.1263047456741333,-0.02717524766921997,0.32722651958465576,0.25706061720848083,0.7851740717887878,-9.917170524597168
1745665457.9870427,-0.12550139427185059,-0.029389163479208946,0.33017295598983765,0.4285101890563965,0.8678826093673706,-9.733480453491211
1745665458.022387,-0.10550843179225922,-0.019544625654816628,0.33214443922042847,0.35969647765159607,1.0190861225128174,-9.603446960449219
1745665458.0234196,-0.11670033633708954,-0.02391677163541317,0.331297367811203,0.4658328890800476,0.9228216409683228,-9.771425247192383
1745665458.0252688,-0.11518695205450058,-0.027406487613916397,0.3315187692642212,0.3038470149040222,0.8935741186141968,-9.906405448913574
1745665458.0255117,-0.10032764822244644,-0.020700396969914436,0.33163776993751526,0.5744641423225403,0.8516112565994263,-9.642095565795898
1745665458.0270782,-0.12323474884033203,-0.024581899866461754,0.33041438460350037,0.314494788646698,0.949898898601532,-9.681763648986816
1745665458.0689723,-0.10607800632715225,-0.02887107990682125,0.3315002918243408,0.48096662759780884,0.7563773393630981,-9.785345077514648
1745665458.0732563,-0.11468388140201569,-0.027135368436574936,0.33273613452911377,0.4926956295967102,0.9060018658638,-9.755881309509277
1745665458.076045,-0.10780495405197144,-0.015940066426992416,0.33169206976890564,0.31915825605392456,0.9719043970108032,-9.762042045593262
1745665458.0783086,-0.10872380435466766,-0.030839204788208008,0.3351201117038727,0.4470742642879486,0.8310200572013855,-9.61494255065918
1745665458.1092143,-0.1050310730934143,-0.026254039257764816,0.33297523856163025,0.35495835542678833,1.045607566833496,-9.704405784606934
1745665458.1116168,-0.09750066697597504,-0.02076851762831211,0.3326526880264282,0.47852078080177307,0.8573964834213257,-9.854519844055176
1745665458.1147776,-0.1080562025308609,-0.024057794362306595,0.33167317509651184,0.19912144541740417,1.0357404947280884,-9.7966947555542
1745665458.1185849,-0.07365594804286957,-0.031178748235106468,0.3244205117225647,0.26798099279403687,1.0115234851837158,-9.872288703918457
1745665458.1511252,-0.06863315403461456,-0.02912813425064087,0.3268323838710785,0.5887278318405151,0.9876082539558411,-9.625373840332031
1745665458.1535707,-0.0771012082695961,-0.023854052647948265,0.32530856132507324,0.31331896781921387,1.1958842277526855,-9.651716232299805
1745665458.156674,-0.06233026832342148,-0.029630690813064575,0.3273361325263977,0.4476169943809509,1.0545375347137451,-9.731239318847656
1745665458.1610496,-0.0667991191148758,-0.03626250475645065,0.3255385458469391,0.40872153639793396,1.237731695175171,-9.729269981384277
1745665458.2005677,-0.043354764580726624,-0.022221500054001808,0.3264002799987793,0.4148927628993988,1.2278798818588257,-9.733331680297852
1745665458.200694,-0.06054069474339485,-0.031361572444438934,0.32526859641075134,0.357581228017807,1.1274969577789307,-9.732528686523438
1745665458.2007437,-0.04229980707168579,-0.029816975817084312,0.3251686692237854,0.3563919961452484,1.1058435440063477,-9.636746406555176
1745665458.2040484,-0.044611163437366486,-0.029856795445084572,0.32599642872810364,0.5452677011489868,1.0309456586837769,-9.635554313659668
1745665458.2061157,-0.05820004269480705,-0.02717955969274044,0.3236475884914398,0.23174729943275452,1.1587202548980713,-9.916956901550293
1745665458.2388074,-0.04150984436273575,-0.03345353528857231,0.3239787220954895,0.5579800009727478,0.9366899728775024,-9.755219459533691
1745665458.240893,-0.05228682607412338,-0.02931584045290947,0.32391977310180664,0.4265618920326233,1.132330298423767,-9.562227249145508
1745665458.2427044,-0.04880192130804062,-0.02535947598516941,0.3248586058616638,0.35137999057769775,0.9924020767211914,-9.75342845916748
1745665458.2440245,-0.05213574320077896,-0.04008744657039642,0.32468312978744507,0.4125438630580902,1.0027382373809814,-9.79504680633545
1745665458.2842777,-0.04789691045880318,-0.02446761168539524,0.32446473836898804,0.39081424474716187,1.1310886144638062,-9.694048881530762
1745665458.2947526,-0.04826625436544418,-0.031940631568431854,0.32609108090400696,0.4985647201538086,1.056311845779419,-9.6583890914917
1745665458.2949176,-0.04994470998644829,-0.033936597406864166,0.3234216868877411,0.23952075839042664,1.28595769405365,-9.822468757629395
1745665458.295006,-0.03935810178518295,-0.031868670135736465,0.32320553064346313,0.5123248100280762,0.9943210482597351,-9.77466106414795
1745665458.295085,-0.04732079058885574,-0.029728848487138748,0.3221465051174164,0.3497423231601715,1.2826673984527588,-9.575427055358887
1745665458.327181,-0.040828637778759,-0.03380785137414932,0.3218032717704773,0.40909871459007263,0.9494272470474243,-9.714197158813477
1745665458.3272898,-0.04144883528351784,-0.03822541981935501,0.32256555557250977,0.4964253008365631,1.117246389389038,-9.808511734008789
1745665458.3291616,-0.03790079429745674,-0.023784790188074112,0.32365381717681885,0.3618167042732239,1.1948875188827515,-9.835658073425293
1745665458.3305507,-0.04079373553395271,-0.033431872725486755,0.3247930705547333,0.46065711975097656,0.9975787401199341,-9.607114791870117
1745665458.3705144,-0.034590862691402435,-0.027796680107712746,0.32603925466537476,0.5189539790153503,1.0168172121047974,-9.871469497680664
1745665458.37291,-0.028406456112861633,-0.029522201046347618,0.322605699300766,0.2754487991333008,1.3027591705322266,-9.851258277893066
1745665458.3772063,-0.02399992011487484,-0.03126152232289314,0.32163578271865845,0.38030320405960083,1.0726596117019653,-9.607589721679688
1745665458.3802664,-0.024465594440698624,-0.035668522119522095,0.3242320418357849,0.38553905487060547,1.093753457069397,-9.631988525390625
1745665458.411193,-0.026654500514268875,-0.02543935738503933,0.3201926648616791,0.35555922985076904,1.1899375915527344,-9.813957214355469
1745665458.415537,-0.03034045360982418,-0.036685504019260406,0.321706622838974,0.4558568596839905,0.9256834983825684,-9.810258865356445
1745665458.4179533,-0.01758304238319397,-0.028042223304510117,0.32153886556625366,0.40451496839523315,1.2527410984039307,-9.589678764343262
1745665458.423206,-0.033422648906707764,-0.030969947576522827,0.32005220651626587,0.47333985567092896,0.9583736658096313,-9.727684020996094
1745665458.4607115,-0.025475818663835526,-0.03418954461812973,0.320645272731781,0.2641175389289856,1.1655371189117432,-9.860295295715332
1745665458.460838,-0.018325701355934143,-0.025497321039438248,0.32284387946128845,0.47555842995643616,1.0589171648025513,-9.656693458557129
1745665458.4628806,-0.028780508786439896,-0.029021304100751877,0.3218509256839752,0.3072306513786316,1.1131858825683594,-9.65340805053711
1745665458.4663396,-0.014277766458690166,-0.03132963925600052,0.32123199105262756,0.38121137022972107,1.2269158363342285,-9.657041549682617
1745665458.4692738,-0.021502619609236717,-0.035940054804086685,0.32095906138420105,0.4980250895023346,1.0776413679122925,-9.872879981994629
1745665458.495659,0.016378095373511314,-0.023138081654906273,0.31426769495010376,0.3590519428253174,1.0668323040008545,-9.986642837524414
1745665458.496822,0.015283172950148582,-0.030009135603904724,0.31637805700302124,0.411104291677475,0.9766885042190552,-9.937675476074219
1745665458.5011427,0.027597302570939064,-0.02139914408326149,0.3155971169471741,0.35036951303482056,1.2006237506866455,-9.445425033569336
1745665458.5034988,0.01691354252398014,-0.025743801146745682,0.3176999092102051,0.41674572229385376,0.9696650505065918,-9.552067756652832
1745665458.5393002,0.02449658513069153,-0.028261562809348106,0.31847214698791504,0.2351563721895218,1.2490050792694092,-9.922195434570312
1745665458.5425303,0.02866223081946373,-0.02272544801235199,0.3154778480529785,0.4884391725063324,0.9996272921562195,-9.91285514831543
1745665458.545618,0.02811623550951481,-0.023277778178453445,0.31648316979408264,0.32576054334640503,1.1904715299606323,-9.602388381958008
1745665458.5481966,0.025904584676027298,-0.02440662495791912,0.3150726854801178,0.3716180920600891,1.0373477935791016,-9.5955228805542
1745665458.5500507,0.025466999039053917,-0.03443436324596405,0.31429538130760193,0.4312461018562317,0.9236900210380554,-9.801076889038086
1745665458.5847085,0.029188115149736404,-0.01705801859498024,0.313802033662796,0.3552856147289276,1.1414520740509033,-9.824061393737793
1745665458.58835,0.015236884355545044,-0.02744392678141594,0.3186602294445038,0.41042080521583557,0.835879921913147,-9.696606636047363
1745665458.5908394,0.029438024386763573,-0.029270270839333534,0.31553229689598083,0.31860074400901794,1.1523255109786987,-9.583784103393555
1745665458.5937874,0.022348672151565552,-0.021799391135573387,0.3205723166465759,0.5256260633468628,0.9627836346626282,-9.76482105255127
1745665458.6261742,0.02239457331597805,-0.025790879502892494,0.31711235642433167,0.2506069540977478,1.1196852922439575,-9.918756484985352
1745665458.6333983,0.030696526169776917,-0.025418583303689957,0.31753984093666077,0.46748191118240356,1.08529531955719,-9.58597183227539
1745665458.634292,0.027926843613386154,-0.032696522772312164,0.3160756230354309,0.4037817120552063,1.0437886714935303,-9.624944686889648
1745665458.6376104,0.0341603085398674,-0.018308868631720543,0.31732407212257385,0.29724958539009094,1.1598498821258545,-9.872956275939941
1745665458.666737,0.019004976376891136,-0.030436616390943527,0.3153606653213501,0.42044997215270996,0.857018768787384,-9.787155151367188
1745665458.6691144,0.04005555063486099,-0.025249164551496506,0.3154786229133606,0.37294548749923706,1.181711196899414,-9.499588012695312
1745665458.67344,0.017547184601426125,-0.0246750321239233,0.31578329205513,0.4571975767612457,0.9752869606018066,-9.754512786865234
1745665458.6771286,0.024781592190265656,-0.03251989558339119,0.31434163451194763,0.3027791678905487,1.0394597053527832,-9.939043045043945
1745665458.6797948,0.04045414179563522,-0.021831300109624863,0.316430926322937,0.51198410987854,1.0083794593811035,-9.59675407409668
1745665458.7111123,0.020243065431714058,-0.02482217736542225,0.31905919313430786,0.32579246163368225,1.0355618000030518,-9.594247817993164
1745665458.7136717,0.038251232355833054,-0.02836700715124607,0.3178854286670685,0.3243010938167572,1.0069116353988647,-9.790140151977539
1745665458.7161098,0.026238035410642624,-0.029193837195634842,0.31914234161376953,0.49678152799606323,1.023956060409546,-9.758356094360352
1745665458.7182086,0.043421149253845215,-0.02047315612435341,0.3172364830970764,0.29341864585876465,1.2226890325546265,-9.743879318237305
1745665458.754629,0.03246310353279114,-0.026650428771972656,0.3170127272605896,0.40979376435279846,0.9809013605117798,-9.729185104370117
1745665458.7563932,0.03621334582567215,-0.029787380248308182,0.3157551884651184,0.30311819911003113,1.0443490743637085,-9.710626602172852
1745665458.75999,0.04429670423269272,-0.0240649301558733,0.3155636191368103,0.5167343616485596,0.9522275924682617,-9.622237205505371
1745665458.7679982,0.01866191066801548,-0.027779247611761093,0.3141394257545471,0.2573140263557434,0.9450098276138306,-9.840405464172363
1745665458.7974906,0.04112052544951439,-0.027313971891999245,0.31773966550827026,0.44490212202072144,0.935070812702179,-9.792694091796875
1745665458.7989233,0.025246575474739075,-0.0274395439773798,0.31720656156539917,0.47930479049682617,0.9741894602775574,-9.648993492126465
1745665458.801365,0.03322532773017883,-0.021133681759238243,0.3176998496055603,0.2415289431810379,1.0549988746643066,-9.728172302246094
1745665458.8049736,0.03339695185422897,-0.03408951312303543,0.3197031021118164,0.4539638161659241,0.8929996490478516,-9.682626724243164
1745665458.8070064,0.03186221793293953,-0.02579599618911743,0.318729966878891,0.3267489969730377,1.0989000797271729,-9.716431617736816
1745665458.8412702,0.042040932923555374,-0.023146577179431915,0.3191363513469696,0.4574486315250397,1.0216004848480225,-9.744010925292969
1745665458.8441718,0.018607063218951225,-0.030588552355766296,0.3171829581260681,0.3676780164241791,0.7927142381668091,-9.711124420166016
1745665458.846927,0.032096851617097855,-0.027481231838464737,0.31851726770401,0.3260164260864258,0.9465192556381226,-9.798943519592285
1745665458.8495247,0.024022694677114487,-0.021630873903632164,0.3215104937553406,0.5079785585403442,0.7590078115463257,-9.74413776397705
1745665458.8847542,0.01858752965927124,-0.023355728015303612,0.3219143748283386,0.23055192828178406,0.9313064813613892,-9.67916488647461
1745665458.8870695,0.02828935720026493,-0.030813414603471756,0.3221464455127716,0.48886775970458984,0.7799752950668335,-9.678357124328613
1745665458.8887296,0.01307662297040224,-0.02718993090093136,0.32340899109840393,0.37592190504074097,0.9321066737174988,-9.79405403137207
1745665458.8917642,0.029578786343336105,-0.02107476256787777,0.32106849551200867,0.35500675439834595,0.9897164106369019,-9.797208786010742
1745665458.9255583,0.012999455444514751,-0.0298972986638546,0.3214036822319031,0.34891554713249207,0.9278057813644409,-9.737492561340332
1745665458.9288292,0.028778010979294777,-0.02584199048578739,0.31996801495552063,0.33209341764450073,0.9362157583236694,-9.69582462310791
1745665458.9299347,0.0207722969353199,-0.026095110923051834,0.3219722509384155,0.4903660714626312,0.8979055285453796,-9.700761795043945
1745665458.941232,0.015181067399680614,-0.02538810297846794,0.3205415904521942,0.17389854788780212,0.9051789045333862,-9.842453002929688
1745665458.9413147,0.030870597809553146,-0.029181648045778275,0.32161521911621094,0.5395925045013428,0.8051424026489258,-9.655863761901855
1745665458.9697795,0.014835851266980171,-0.022281169891357422,0.32298657298088074,0.3230295479297638,1.0094010829925537,-9.75331974029541
1745665458.9723005,0.02808019518852234,-0.022315816953778267,0.3232836127281189,0.34130406379699707,0.7885487675666809,-9.847650527954102
1745665458.97392,0.023247092962265015,-0.034187112003564835,0.32382580637931824,0.4197263717651367,0.8989847302436829,-9.624053955078125
1745665458.9755116,0.026129845529794693,-0.01749247871339321,0.32413607835769653,0.3524271845817566,0.9239019155502319,-9.72333812713623
1745665459.0125268,0.018475499004125595,-0.02812967821955681,0.3239324390888214,0.40872707962989807,0.8066509366035461,-9.83665657043457
1745665459.0157406,0.019746992737054825,-0.026973847299814224,0.3236681818962097,0.2156917154788971,0.9160584211349487,-9.777830123901367
1745665459.0168514,0.023836929351091385,-0.026211481541395187,0.3225119709968567,0.5335625410079956,0.7598949670791626,-9.594937324523926
1745665459.0194151,0.005042458418756723,-0.026340302079916,0.3224150240421295,0.30254024267196655,0.9821869134902954,-9.71766471862793
1745665459.021377,0.017171096056699753,-0.02782185934484005,0.3233277201652527,0.43855875730514526,0.7137799859046936,-9.897790908813477
1745665459.0587611,0.008320329710841179,-0.027644168585538864,0.32150158286094666,0.41635578870773315,0.9216117858886719,-9.725064277648926
1745665459.0614686,0.006756276823580265,-0.01984572410583496,0.32414668798446655,0.32276925444602966,0.8331219553947449,-9.629399299621582
1745665459.0685134,0.005330466665327549,-0.020140036940574646,0.32758355140686035,0.4158686697483063,0.7680419087409973,-9.782841682434082
1745665459.0973387,0.009979605674743652,-0.025112327188253403,0.3256146013736725,0.2899405360221863,1.0985357761383057,-9.63566780090332
1745665459.1012213,0.01568092778325081,-0.026075515896081924,0.3239894509315491,0.5035771727561951,0.7694718241691589,-9.786548614501953
1745665459.1048892,0.011725395917892456,-0.02187982387840748,0.3243066370487213,0.29942744970321655,0.9637187123298645,-9.876005172729492
1745665459.1087582,0.007149067707359791,-0.0184745192527771,0.32259127497673035,0.36213311553001404,0.7598212957382202,-9.72582721710205
1745665459.1192045,0.004647066816687584,-0.03039730153977871,0.3234162926673889,0.4670475423336029,0.7375878691673279,-9.521608352661133
1745665459.1455505,0.003018601331859827,-0.01786208152770996,0.3267691731452942,0.34166693687438965,0.9240989685058594,-9.79739761352539
1745665459.1491106,-0.010642534121870995,-0.02626168727874756,0.32617151737213135,0.39027154445648193,0.6713672876358032,-10.015592575073242
1745665459.152989,0.007021197583526373,-0.022414736449718475,0.3253549039363861,0.3178485035896301,1.008499026298523,-9.649334907531738
1745665459.1559508,-0.0011115713277831674,-0.019672106951475143,0.3282465636730194,0.5067806243896484,0.7696296572685242,-9.497036933898926
1745665459.1905224,-0.0006209923885762691,-0.024692976847290993,0.3275115489959717,0.23568220436573029,0.877788245677948,-9.877840995788574
1745665459.190636,0.00646480405703187,-0.02423817105591297,0.3294611871242523,0.4467586576938629,0.873153805732727,-9.862081527709961
1745665459.1915355,0.002233223058283329,-0.02576485648751259,0.3279859721660614,0.38382047414779663,0.893039882183075,-9.678876876831055
1745665459.195477,-0.005989572964608669,-0.035470254719257355,0.3367081582546234,0.5078476667404175,0.6735743284225464,-9.79267692565918
1745665459.1996639,-0.0021452424116432667,-0.022976811975240707,0.33616119623184204,0.3358127474784851,1.0233551263809204,-9.742362976074219
1745665459.227138,-0.01933734491467476,-0.02707548998296261,0.3354741930961609,0.42985254526138306,0.6506869196891785,-9.757936477661133
1745665459.2301483,-0.008743762969970703,-0.03482366353273392,0.33635932207107544,0.3262553811073303,0.9363617897033691,-9.692623138427734
1745665459.231818,-0.010324138216674328,-0.024829180911183357,0.33699533343315125,0.4970792829990387,0.8167511224746704,-9.71557903289795
1745665459.2330248,-0.017006458714604378,-0.0270797461271286,0.3364813029766083,0.29508376121520996,0.882917046546936,-9.870100975036621
1745665459.270351,-0.0013056667521595955,-0.029612358659505844,0.3374647796154022,0.35750892758369446,0.9667648077011108,-9.649531364440918
1745665459.2770631,-0.006462845019996166,-0.03391953557729721,0.3389217257499695,0.47280874848365784,0.8699081540107727,-9.629790306091309
1745665459.2836425,0.004982622340321541,-0.021958738565444946,0.33805224299430847,0.3027818500995636,1.0778770446777344,-9.847444534301758
1745665459.2837315,-0.004837272223085165,-0.032408107072114944,0.3376390337944031,0.44326409697532654,0.7387779951095581,-9.85790729522705
1745665459.2849262,0.012508261017501354,-0.030503999441862106,0.3373144268989563,0.31959033012390137,1.0220320224761963,-9.621603012084961
1745665459.3145976,-0.0013677111128345132,-0.024249259382486343,0.3368180990219116,0.44261258840560913,0.7795705795288086,-9.665384292602539
1745665459.3167346,-0.008848248049616814,-0.03589293360710144,0.33696284890174866,0.3117949068546295,0.7408062219619751,-9.820096969604492
1745665459.319157,0.004427401814609766,-0.027938256040215492,0.33697015047073364,0.47589927911758423,0.7853783965110779,-9.701696395874023
1745665459.3216512,-0.01743869110941887,-0.025284696370363235,0.33948802947998047,0.36837732791900635,0.7727073431015015,-9.709424018859863
1745665459.3583193,-0.0029399150516837835,-0.027683865278959274,0.3394918739795685,0.2909383773803711,0.8378161191940308,-9.737767219543457
1745665459.3598852,-0.015342459082603455,-0.03432389721274376,0.33951395750045776,0.5615325570106506,0.7366738319396973,-9.69366455078125
1745665459.362602,0.0002364734245929867,-0.025084111839532852,0.33962392807006836,0.2982290983200073,1.0228567123413086,-9.81403923034668
1745665459.3637452,-0.01003681868314743,-0.024449190124869347,0.340928852558136,0.3838498592376709,0.8569368124008179,-9.835176467895508
1745665459.399494,-0.0064468071796,-0.03259999305009842,0.33729279041290283,0.2577049136161804,0.8788310289382935,-9.65757942199707
1745665459.4018483,0.006207981146872044,-0.027555828914046288,0.33676302433013916,0.48188358545303345,0.9225888252258301,-9.517032623291016
1745665459.405389,-0.017465945333242416,-0.031292472034692764,0.3386487066745758,0.2525886595249176,0.8216089010238647,-9.945913314819336
1745665459.4077792,0.009425906464457512,-0.0278990026563406,0.33817359805107117,0.3644487261772156,0.858914852142334,-9.897052764892578
1745665459.4103518,-0.003010870423167944,-0.03587498888373375,0.3416915535926819,0.49649953842163086,0.7016168832778931,-9.84773063659668
1745665459.4487686,-0.008892735466361046,-0.02153264544904232,0.341854065656662,0.3117222785949707,0.8864138722419739,-9.854473114013672
1745665459.4488182,0.0012558639282360673,-0.02343425340950489,0.3433505892753601,0.43790873885154724,0.8299692869186401,-9.588943481445312
1745665459.448852,-0.01531078852713108,-0.03496626764535904,0.342811644077301,0.23102407157421112,0.9084680676460266,-9.756272315979004
1745665459.4507654,0.00592071283608675,-0.023659011349081993,0.3395621180534363,0.41516414284706116,0.7998483777046204,-9.823648452758789
1745665459.488017,-0.016263004392385483,-0.026549000293016434,0.3413357436656952,0.39011725783348083,0.9197911024093628,-9.677239418029785
1745665459.4911315,-0.009872627444565296,-0.028564056381583214,0.34119510650634766,0.265506386756897,0.8232935070991516,-9.684873580932617
1745665459.4959445,-0.004206002689898014,-0.03381932154297829,0.3384398818016052,0.5405369997024536,0.787972092628479,-9.716416358947754
1745665459.49834,-0.01564939133822918,-0.019872894510626793,0.34131044149398804,0.24926786124706268,0.9994350671768188,-9.873373031616211
1745665459.5293477,-0.006003674119710922,-0.027398521080613136,0.34299373626708984,0.4394255578517914,0.7141038775444031,-9.69196605682373
1745665459.5309548,-0.0063849082216620445,-0.032232653349637985,0.34214359521865845,0.3558197021484375,0.9780130386352539,-9.560465812683105
1745665459.5334544,0.0002276377781527117,-0.017648473381996155,0.3444441258907318,0.399100124835968,0.8535033464431763,-9.802629470825195
1745665459.534765,-0.008092198520898819,-0.028734955936670303,0.34324759244918823,0.3285999894142151,0.9871377944946289,-9.842119216918945
1745665459.5388489,0.022446345537900925,-0.04432157054543495,0.25987890362739563,0.02521349862217903,1.4171416759490967,-10.01326847076416
1745665459.572916,0.028959453105926514,-0.05997539311647415,0.25601476430892944,0.3745132088661194,1.0731251239776611,-9.380826950073242
1745665459.5772223,0.053562991321086884,-0.054042018949985504,0.25493571162223816,-0.10901732742786407,1.3288637399673462,-9.761678695678711
1745665459.580581,0.05527696758508682,-0.05520017072558403,0.24649353325366974,0.06692184507846832,1.0925681591033936,-10.019248962402344
1745665459.583988,0.07768521457910538,-0.05607127025723457,0.2376139909029007,0.019790053367614746,1.0778993368148804,-9.740102767944336
1745665459.6145518,0.061015091836452484,-0.04622231051325798,0.22748832404613495,0.45508116483688354,1.09517502784729,-9.384841918945312
1745665459.6175547,0.06294175237417221,-0.06731744110584259,0.2182958573102951,0.22589826583862305,0.7928157448768616,-10.01335334777832
1745665459.6212635,0.0803748071193695,-0.05593614652752876,0.21380750834941864,0.21867838501930237,1.0014764070510864,-10.124183654785156
1745665459.6254594,0.07383127510547638,-0.04717167839407921,0.21355418860912323,0.2033199816942215,0.23329710960388184,-9.756781578063965
1745665459.628499,0.062248896807432175,-0.05351303890347481,0.21352903544902802,-0.08088368922472,0.7199867963790894,-9.387916564941406
1745665459.6588247,0.08113504946231842,-0.06016835570335388,0.21294459700584412,0.22144269943237305,0.33952194452285767,-9.697441101074219
1745665459.6618927,0.06941738724708557,-0.04137272760272026,0.20766767859458923,-0.20073680579662323,1.0822315216064453,-10.175817489624023
1745665459.6654575,0.07205657660961151,-0.04175276309251785,0.20219488441944122,0.1437201350927353,0.25676870346069336,-9.889617919921875
1745665459.6680644,0.07138222455978394,-0.05378329008817673,0.19451341032981873,0.20447476208209991,0.9307470321655273,-9.255191802978516
1745665459.703527,0.0312016811221838,-0.044235073029994965,0.18517747521400452,0.10990436375141144,0.31706228852272034,-10.048571586608887
1745665459.7077148,0.05449725314974785,-0.0489095076918602,0.18254218995571136,0.3225744664669037,0.5698137283325195,-10.116029739379883
1745665459.7109606,0.0055693211033940315,-0.0357920303940773,0.17889179289340973,0.1842126101255417,0.6506641507148743,-9.70251750946045
1745665459.7142925,0.03479981794953346,-0.05072030425071716,0.17635108530521393,0.42950934171676636,0.6110065579414368,-9.419683456420898
1745665459.7174165,0.017329029738903046,-0.04917069897055626,0.17143532633781433,0.12860016524791718,1.3421789407730103,-9.945344924926758
1745665459.7466211,0.0633670836687088,-0.04078412801027298,0.1662188023328781,0.15741929411888123,0.9114309549331665,-10.253100395202637
1745665459.7477481,0.07464472949504852,-0.041552092880010605,0.15880830585956573,-0.0032789111137390137,1.4984685182571411,-9.543916702270508
1745665459.7501664,0.10614898055791855,-0.044049300253391266,0.1552734673023224,0.036413468420505524,1.0091801881790161,-9.50295352935791
1745665459.7884583,0.1342736929655075,-0.03925870358943939,0.1275341808795929,0.5579957962036133,0.21429042518138885,-9.907197952270508
1745665459.7918024,0.09105341136455536,-0.03175802528858185,0.12220295518636703,0.2999913990497589,0.4366157650947571,-10.24564266204834
1745665459.793713,0.10169452428817749,-0.01807025633752346,0.12008508294820786,0.22223691642284393,0.12236069142818451,-9.749506950378418
1745665459.7959201,0.06205500289797783,-0.02291831746697426,0.11622029542922974,0.006120070815086365,0.49445071816444397,-9.257837295532227
1745665459.831121,0.07385441660881042,-0.021277833729982376,0.11240597814321518,0.08133107423782349,0.5045797824859619,-9.700204849243164
1745665459.8346357,0.0675838440656662,-0.02186133712530136,0.10340505838394165,0.233392596244812,0.9959111213684082,-10.165048599243164
1745665459.836431,0.0781533420085907,-0.007593933492898941,0.09654772281646729,-0.01090269722044468,0.8939393162727356,-10.014065742492676
1745665459.838103,0.11789945513010025,-0.01263018511235714,0.09069789946079254,0.3023870289325714,0.9544169306755066,-9.247016906738281
1745665459.839199,0.0916609987616539,-0.017359931021928787,0.08861919492483139,0.1829279363155365,0.7199004292488098,-9.69310188293457
1745665459.875096,0.140157550573349,-0.012500166893005371,0.08613908290863037,0.40302640199661255,0.5880928039550781,-10.25694465637207
1745665459.8793554,0.11751272529363632,-0.0029901601374149323,0.08372833579778671,0.12337838113307953,0.8955755233764648,-10.028939247131348
1745665459.8829868,0.1407966911792755,-0.0021566771902143955,0.08139510452747345,0.1804288625717163,0.6886138916015625,-9.418983459472656
1745665459.885754,0.14432191848754883,-0.014963333494961262,0.07567565143108368,0.2547847628593445,0.873002827167511,-9.416472434997559
1745665459.9189878,0.19809876382350922,0.05229606106877327,-0.09213823825120926,0.44577017426490784,0.42804980278015137,-9.886662483215332
1745665459.9210556,0.17746424674987793,0.057219088077545166,-0.09431804716587067,0.6575146317481995,-0.01794537343084812,-10.056538581848145
1745665459.922632,0.1993650496006012,0.0452243909239769,-0.09801354259252548,0.3996488153934479,0.29353487491607666,-9.671219825744629
1745665459.925065,0.18164053559303284,0.048073992133140564,-0.1031809002161026,0.45257869362831116,0.1721833199262619,-9.622404098510742
1745665459.9601104,0.18539157509803772,0.0443800613284111,-0.10471542179584503,0.37857586145401,-0.08207722753286362,-9.937779426574707
1745665459.9642868,0.19550053775310516,0.05361442640423775,-0.10878027975559235,0.317521870136261,0.37623780965805054,-9.635417938232422
1745665459.965297,0.17675304412841797,0.04450715333223343,-0.1114833727478981,0.4369010031223297,-0.0045147002674639225,-9.489986419677734
1745665459.966414,0.182003453373909,0.047852203249931335,-0.1149083748459816,0.2486371248960495,0.28191107511520386,-9.737951278686523
1745665460.0014572,0.18137028813362122,0.045981187373399734,-0.11954186856746674,0.5829659700393677,0.010038523003458977,-9.946844100952148
1745665460.0044441,0.18245963752269745,0.04472736269235611,-0.1231161504983902,0.3833872377872467,0.3154166638851166,-9.804638862609863
1745665460.0059114,0.18199023604393005,0.04699379950761795,-0.12643340229988098,0.46297353506088257,-0.13413254916667938,-9.673005104064941
1745665460.0076756,0.19231051206588745,0.03982304781675339,-0.1269576996564865,0.5163769721984863,0.089567631483078,-9.584278106689453
1745665460.0111592,0.1739046275615692,0.05031496286392212,-0.1277015656232834,0.43775683641433716,0.10648103803396225,-9.751989364624023
1745665460.0466113,0.18316414952278137,0.04283960163593292,-0.13070428371429443,0.4812001585960388,-0.09333200007677078,-9.737981796264648
1745665460.0471761,0.18573971092700958,0.043167922645807266,-0.13361632823944092,0.27987608313560486,0.43965014815330505,-9.729432106018066
1745665460.0488298,0.18562567234039307,0.04216670244932175,-0.13943490386009216,0.49436187744140625,-0.09357699006795883,-9.839312553405762
1745665460.0497956,0.19710534811019897,0.037389885634183884,-0.14309340715408325,0.352674663066864,0.30523210763931274,-9.671622276306152
1745665460.0876443,0.1957697868347168,0.03693079948425293,-0.14569590985774994,0.5511460304260254,-0.06441319733858109,-9.651908874511719
1745665460.0919724,0.18566593527793884,0.03432382270693779,-0.14855051040649414,0.4037967622280121,-0.07193909585475922,-9.755910873413086
1745665460.096163,0.1836400032043457,0.04145142436027527,-0.14836671948432922,0.45343858003616333,-0.10806305706501007,-9.72996997833252
1745665460.1021166,0.18607398867607117,0.031882792711257935,-0.14974625408649445,0.5456792712211609,-0.0777350515127182,-9.578460693359375
1745665460.1055303,0.1670791655778885,0.034068018198013306,-0.15119585394859314,0.3789115250110626,-0.05723502114415169,-9.871641159057617
1745665460.130613,0.17064091563224792,0.030342156067490578,-0.16810989379882812,0.4507579803466797,-0.2967239022254944,-10.05508041381836
1745665460.1319275,0.17967906594276428,0.025278398767113686,-0.168706014752388,0.4782295823097229,-0.1292877495288849,-9.889605522155762
1745665460.1428423,0.18213018774986267,0.026165863499045372,-0.1733662486076355,0.44467514753341675,-0.0357280969619751,-9.54475212097168
1745665460.1755784,0.17580574750900269,0.017892595380544662,-0.17269070446491241,0.6293074488639832,-0.2439717799425125,-9.611017227172852
1745665460.18005,0.16818904876708984,0.017325541004538536,-0.17650750279426575,0.4142019748687744,0.016975095495581627,-9.90492057800293
1745665460.182784,0.18071630597114563,0.02139294147491455,-0.1767273098230362,0.5171229243278503,-0.26134562492370605,-9.764387130737305
1745665460.1887662,0.15444689989089966,0.01732204295694828,-0.18036386370658875,0.30671054124832153,0.01716030202805996,-9.579026222229004
1745665460.189405,0.17749860882759094,0.018068645149469376,-0.18217694759368896,0.47632914781570435,-0.3499649167060852,-9.794548988342285
1745665460.2202227,0.17322015762329102,0.007136475294828415,-0.18351218104362488,0.4453979432582855,0.07359736412763596,-9.791401863098145
1745665460.2209656,0.16692429780960083,0.018364395946264267,-0.18814656138420105,0.4346136152744293,-0.16489650309085846,-9.814474105834961
1745665460.2243006,0.18678918480873108,0.011722804047167301,-0.18928085267543793,0.5367164611816406,-0.13868029415607452,-9.581753730773926
1745665460.2260365,0.16153061389923096,0.010197334922850132,-0.1923121064901352,0.41430455446243286,-0.1682594120502472,-9.653076171875
1745665460.2606144,0.17250999808311462,0.007122484035789967,-0.19073443114757538,0.5785046815872192,-0.44104504585266113,-9.902807235717773
1745665460.2633195,0.1625162810087204,0.006027452647686005,-0.1912262737751007,0.3294302523136139,-0.14916950464248657,-9.899564743041992
1745665460.265009,0.1516742706298828,-0.014439726248383522,-0.23901601135730743,0.44672518968582153,-0.5134124755859375,-9.80518627166748
1745665460.2678049,0.12935486435890198,-0.023347079753875732,-0.23996546864509583,0.34974536299705505,-0.45990318059921265,-9.653898239135742
1745665460.2695413,0.13948971033096313,-0.016411636024713516,-0.2401842325925827,0.423872172832489,-0.6307747960090637,-9.758237838745117
1745665460.3083694,0.1130020022392273,-0.022464854642748833,-0.24324610829353333,0.45806819200515747,-0.44984951615333557,-9.844411849975586
1745665460.3084168,0.14179587364196777,-0.013539756648242474,-0.2434506118297577,0.3590528964996338,-0.4769911766052246,-9.833127975463867
1745665460.3111167,0.11613290011882782,-0.016114745289087296,-0.24635007977485657,0.5261115431785583,-0.38248056173324585,-9.621912956237793
1745665460.314435,0.1243319883942604,-0.01936947926878929,-0.24542546272277832,0.3466171324253082,-0.5990214347839355,-9.933606147766113
1745665460.3467417,0.1418243944644928,-0.01853461191058159,-0.24633128941059113,0.4695530831813812,-0.4407328963279724,-9.874841690063477
1745665460.34871,0.111042320728302,-0.018539750948548317,-0.24679765105247498,0.30472785234451294,-0.5924423933029175,-9.788067817687988
1745665460.352304,0.14887699484825134,-0.01209336332976818,-0.24566802382469177,0.41545820236206055,-0.5534811019897461,-9.589607238769531
1745665460.3550713,0.10968146473169327,-0.021315686404705048,-0.2470083236694336,0.4532442092895508,-0.5199193358421326,-9.667356491088867
1745665460.3583448,0.1354990303516388,-0.013585430569946766,-0.24924655258655548,0.3862363398075104,-0.4687075614929199,-10.00155258178711
1745665460.390847,0.11958745867013931,-0.016776300966739655,-0.2517055869102478,0.46819519996643066,-0.5767995119094849,-9.929267883300781
1745665460.4007604,0.12252803891897202,-0.01687750779092312,-0.2513713538646698,0.3514103293418884,-0.5718529224395752,-9.703474044799805
1745665460.4008539,0.10837030410766602,-0.02188965491950512,-0.25292888283729553,0.5616457462310791,-0.6513065099716187,-9.651771545410156
1745665460.4021056,0.10557246208190918,-0.021829992532730103,-0.25309789180755615,0.2916802763938904,-0.7698060870170593,-9.983394622802734
1745665460.4353697,0.11498697102069855,-0.009481580927968025,-0.25300946831703186,0.47843465209007263,-0.4657866060733795,-9.745185852050781
1745665460.4386778,0.08263514190912247,-0.01744006760418415,-0.25463736057281494,0.4512614607810974,-0.6253074407577515,-9.665247917175293
1745665460.4418516,0.12537053227424622,-0.01630576327443123,-0.25369128584861755,0.38357511162757874,-0.42775797843933105,-9.76909065246582
1745665460.4436817,0.1000647097826004,-0.02070070058107376,-0.2572689652442932,0.4580012857913971,-0.40551871061325073,-10.009323120117188
1745665460.4779909,0.12721005082130432,-0.011828295886516571,-0.25795334577560425,0.2903066873550415,-0.5440229177474976,-9.959219932556152
1745665460.4784646,0.12094952911138535,-0.018293138593435287,-0.2572268545627594,0.4516093134880066,-0.5875014066696167,-9.491317749023438
1745665460.482663,0.12046056985855103,-0.014660065062344074,-0.261229932308197,0.3026728630065918,-0.6236675977706909,-9.887715339660645
1745665460.4855855,0.08530475199222565,-0.012167716398835182,-0.2639676034450531,0.45581597089767456,-0.6474002599716187,-9.756872177124023
1745665460.5194488,0.09651190787553787,-0.008021490648388863,-0.2605855166912079,0.26657718420028687,-0.7759071588516235,-9.669973373413086
1745665460.5214899,0.10292889177799225,-0.013640647754073143,-0.26215726137161255,0.46727490425109863,-0.4612552523612976,-9.592111587524414
1745665460.5249476,0.0856727734208107,-0.015086887404322624,-0.26088982820510864,0.3639264404773712,-0.7103836536407471,-10.078119277954102
1745665460.5272455,0.11165521293878555,-0.008396588265895844,-0.26319652795791626,0.4563863277435303,-0.5598605871200562,-9.97183895111084
1745665460.5299442,0.09063435345888138,-0.017026161774992943,-0.2644670307636261,0.42766016721725464,-0.6566762924194336,-9.652795791625977
1745665460.5665243,0.10703679174184799,-0.01359856128692627,-0.263431191444397,0.41717201471328735,-0.7431910634040833,-9.629504203796387
1745665460.5681553,0.08050365746021271,-0.016813069581985474,-0.26339682936668396,0.519385576248169,-0.8183015584945679,-9.813794136047363
1745665460.5727308,0.10338979959487915,-0.010351100005209446,-0.26100754737854004,0.3165897727012634,-0.5949954986572266,-9.828908920288086
1745665460.5767233,0.07274586707353592,-0.010828039608895779,-0.2637023329734802,0.4636797308921814,-0.6806973814964294,-9.728448867797852
1745665460.603342,0.09459376335144043,-0.01211308129131794,-0.2639142870903015,0.3286280035972595,-0.6628344655036926,-9.810470581054688
1745665460.6062605,0.09672079980373383,-0.012686265632510185,-0.2662133276462555,0.4584999084472656,-0.4458630084991455,-9.694732666015625
1745665460.6077917,0.0731368139386177,-0.014083956368267536,-0.2688487470149994,0.4006648659706116,-0.7936433553695679,-9.835769653320312
1745665460.6095474,0.047125447541475296,-0.012327982112765312,-0.26987746357917786,0.4616801142692566,-0.6483508348464966,-9.554000854492188
1745665460.6117027,0.04356158524751663,-0.016409456729888916,-0.27025675773620605,0.42125916481018066,-0.8657668828964233,-9.824041366577148
1745665460.6515806,0.07230706512928009,-0.007192223332822323,-0.27575331926345825,0.3761725425720215,-0.41481703519821167,-9.764363288879395
1745665460.6563773,0.04368229955434799,-0.016753923147916794,-0.2732398808002472,0.5339779257774353,-0.9258663058280945,-9.78276538848877
1745665460.6601193,0.06570178270339966,-0.015796523541212082,-0.2763262391090393,0.3720937669277191,-0.7369930148124695,-9.706005096435547
1745665460.6631324,0.04565377160906792,-0.018716519698500633,-0.27524980902671814,0.5295634269714355,-1.01255464553833,-9.812593460083008
1745665460.6905766,0.04802654683589935,-0.014973248355090618,-0.27061617374420166,0.3548036217689514,-0.8772600293159485,-9.83233642578125
1745665460.6937168,0.03463335707783699,-0.013177256099879742,-0.27112847566604614,0.5273321866989136,-0.9069701433181763,-9.568780899047852
1745665460.6960678,0.04291025549173355,-0.021082475781440735,-0.271569162607193,0.5152543187141418,-0.7765393257141113,-9.586862564086914
1745665460.69867,0.038419365882873535,-0.01160554401576519,-0.2739582657814026,0.4626651406288147,-0.586518406867981,-9.811761856079102
1745665460.736559,0.034293778240680695,-0.017125967890024185,-0.27493202686309814,0.4876432418823242,-0.8818768262863159,-9.940348625183105
1745665460.7401288,0.060105640441179276,-0.014256050810217857,-0.27711114287376404,0.3088018298149109,-0.5504723787307739,-9.65965747833252
1745665460.7431405,0.02550545334815979,-0.0207036342471838,-0.27641886472702026,0.48013582825660706,-0.9359919428825378,-9.617473602294922
1745665460.7447906,0.05716339871287346,-0.019037660211324692,-0.27479010820388794,0.3399006724357605,-0.7798689603805542,-9.757010459899902
1745665460.7782147,0.0354728177189827,-0.014026230201125145,-0.27370136976242065,0.5509255528450012,-0.8873880505561829,-9.755236625671387
1745665460.7839112,0.04475843906402588,-0.019963117316365242,-0.2718140482902527,0.4688776135444641,-0.8087031245231628,-9.671521186828613
1745665460.7864704,0.037053219974040985,-0.01764567196369171,-0.27325043082237244,0.5450208783149719,-0.8650162816047668,-9.732831001281738
1745665460.7887228,0.03715734928846359,-0.02518564462661743,-0.2738204896450043,0.4853561520576477,-0.79363614320755,-9.897002220153809
1745665460.791938,0.03564875200390816,-0.01677388697862625,-0.27347278594970703,0.39085790514945984,-0.72371906042099,-9.774765014648438
1745665460.8209383,0.02522866800427437,-0.025851469486951828,-0.2753151059150696,0.47284722328186035,-1.0253394842147827,-9.675650596618652
1745665460.8238328,0.04141969606280327,-0.022704269737005234,-0.27512428164482117,0.3380236029624939,-0.6279631853103638,-9.56289005279541
1745665460.8287828,0.03771386668086052,-0.019151056185364723,-0.2735688090324402,0.34708815813064575,-0.722711443901062,-9.624981880187988
1745665460.8325453,0.022995423525571823,-0.02510981820523739,-0.2726171612739563,0.5030282735824585,-0.9498281478881836,-9.658456802368164
1745665460.8629575,0.036306232213974,-0.025948679074645042,-0.27480775117874146,0.4178085923194885,-0.6377260088920593,-9.749673843383789
1745665460.865753,0.008766773156821728,-0.021656807512044907,-0.27598243951797485,0.5244390368461609,-1.0113554000854492,-9.938360214233398
1745665460.8670435,0.03947746753692627,-0.025534268468618393,-0.2750733494758606,0.41182881593704224,-0.7441240549087524,-9.743106842041016
1745665460.869027,0.013967668637633324,-0.02611040696501732,-0.27491435408592224,0.5032210946083069,-0.8105239868164062,-9.578516006469727
1745665460.9048927,0.019401680678129196,-0.026386689394712448,-0.27227261662483215,0.5259995460510254,-1.0133358240127563,-9.719820022583008
1745665460.9080348,0.036492567509412766,-0.02147803083062172,-0.2699262499809265,0.38194403052330017,-0.6074572205543518,-9.808788299560547
1745665460.9115348,0.014824206940829754,-0.02740495279431343,-0.2719147503376007,0.5450936555862427,-0.9775210618972778,-9.888169288635254
1745665460.914138,0.04198232293128967,-0.023212993517518044,-0.27035224437713623,0.30598384141921997,-0.5613872408866882,-9.693079948425293
1745665460.9175224,0.026992639526724815,-0.02848292887210846,-0.27130502462387085,0.5164229273796082,-0.9008346796035767,-9.692636489868164
1745665460.9514663,0.03248099610209465,-0.030749518424272537,-0.27086204290390015,0.3745191693305969,-0.6912552714347839,-9.831533432006836
1745665460.9520643,0.02069733664393425,-0.024727225303649902,-0.2730702757835388,0.5083531141281128,-0.9501903653144836,-9.814489364624023
1745665460.954204,0.031176775693893433,-0.029225662350654602,-0.27114397287368774,0.4730309844017029,-0.9037271738052368,-9.586301803588867
1745665460.9560022,0.010359945707023144,-0.025737321004271507,-0.26426610350608826,0.38161805272102356,-0.7661564946174622,-9.821758270263672
1745665460.9940643,0.009924310259521008,-0.017705928534269333,-0.2668300271034241,0.41229048371315,-0.868294894695282,-9.729494094848633
1745665460.9957895,0.018621526658535004,-0.02476169541478157,-0.2645343840122223,0.462207555770874,-0.7678244113922119,-9.548295974731445
1745665460.999663,0.00037275292561389506,-0.016505185514688492,-0.267331600189209,0.31191128492355347,-0.6932603120803833,-9.756178855895996
1745665461.0032387,0.016009893268346786,-0.020275700837373734,-0.2663327753543854,0.5319031476974487,-1.0109951496124268,-9.875386238098145
1745665461.0360465,0.012634089216589928,-0.021470412611961365,-0.26700490713119507,0.2722160518169403,-0.5618123412132263,-9.734153747558594
1745665461.0386055,0.003522117855027318,-0.019405078142881393,-0.2670974135398865,0.524101197719574,-1.0502784252166748,-9.765127182006836
1745665461.0441823,0.021283414214849472,-0.02191122993826866,-0.2685861885547638,0.37777334451675415,-0.5887835025787354,-9.702177047729492
1745665461.0477304,0.004230468068271875,-0.015495305880904198,-0.2687129080295563,0.45963001251220703,-0.9455965161323547,-9.7372465133667
1745665461.0782056,0.0138718131929636,-0.018896419554948807,-0.2658209204673767,0.4432212710380554,-0.7910286784172058,-9.68244743347168
1745665461.0811281,0.005926658399403095,-0.01636580564081669,-0.26575708389282227,0.3485666811466217,-0.8779900670051575,-9.841588020324707
1745665461.084517,0.0075301541946828365,-0.021532438695430756,-0.26546424627304077,0.4915384352207184,-0.9155126810073853,-9.868951797485352
1745665461.086332,-0.0010522969532757998,-0.014981508255004883,-0.26692289113998413,0.29974132776260376,-0.7085666656494141,-9.77453899383545
1745665461.089549,0.01043413020670414,-0.01806894689798355,-0.2665359675884247,0.4580274522304535,-1.0083990097045898,-9.599424362182617
1745665461.1231806,-5.840733501827344e-05,-0.020713618025183678,-0.2658640146255493,0.3439958989620209,-0.5866391062736511,-9.626026153564453
1745665461.1255217,-0.0036496096290647984,-0.011734174564480782,-0.26821333169937134,0.49543285369873047,-1.0006605386734009,-9.911355972290039
1745665461.1284068,0.015388324856758118,-0.019093697890639305,-0.2686583399772644,0.3837072253227234,-0.6746376156806946,-9.783204078674316
1745665461.1284509,-0.002959413453936577,-0.014313764870166779,-0.2687271535396576,0.38319066166877747,-0.799793541431427,-9.758136749267578
1745665461.16573,0.010809307917952538,-0.019068093970417976,-0.2669695019721985,0.5493360757827759,-0.90399569272995,-9.726366996765137
1745665461.170275,0.0036351014859974384,-0.016270309686660767,-0.26602405309677124,0.3262569308280945,-0.7032453417778015,-9.802026748657227
1745665461.1730886,0.008161859586834908,-0.01765117049217224,-0.2670612931251526,0.5280564427375793,-0.9537203907966614,-9.729802131652832
1745665461.1763008,0.0007958067581057549,-0.01595570705831051,-0.2659148573875427,0.32090306282043457,-0.7125378847122192,-9.666929244995117
1745665461.180925,0.007600456476211548,-0.014108104631304741,-0.26761478185653687,0.2912503182888031,-0.6356915235519409,-9.738253593444824
1745665461.2137508,0.0018921967130154371,-0.011960799805819988,-0.26689612865448,0.5121957659721375,-1.101569414138794,-9.78503704071045
1745665461.2138338,0.008915413171052933,-0.018710412085056305,-0.26581114530563354,0.33101508021354675,-0.639303982257843,-9.803241729736328
1745665461.2139263,0.006929800845682621,-0.011888161301612854,-0.2660430669784546,0.40487951040267944,-0.8396217226982117,-9.825169563293457
1745665461.2139735,0.0008094462682493031,-0.018754931166768074,-0.26907259225845337,0.4330896735191345,-0.7688195705413818,-9.652223587036133
1745665461.251087,0.0016272211214527488,-0.011018222197890282,-0.2699502408504486,0.32621392607688904,-0.8096196055412292,-9.65821647644043
1745665461.2523093,0.008929219096899033,-0.01742207258939743,-0.2687268853187561,0.5341871976852417,-0.8590739965438843,-9.672689437866211
1745665461.2544198,-0.014457804150879383,-0.013069182634353638,-0.2688707709312439,0.3118217885494232,-0.7337625622749329,-9.928281784057617
1745665461.2562358,0.012031088583171368,-0.010298756882548332,-0.26817208528518677,0.5389094352722168,-0.9993165135383606,-9.848053932189941
1745665461.2580426,0.0007104739779606462,-0.01877661794424057,-0.2668766975402832,0.32896023988723755,-0.49798378348350525,-9.552799224853516
1745665461.2969115,0.0017526220763102174,-0.012062731198966503,-0.2687719762325287,0.46783357858657837,-0.9884859323501587,-9.755833625793457
1745665461.2974608,0.016467737033963203,-0.014958053827285767,-0.269453227519989,0.397549569606781,-0.5538617968559265,-9.751571655273438
1745665461.3012178,0.005294935777783394,-0.007679453585296869,-0.2682216465473175,0.3520525097846985,-0.8185516595840454,-9.809662818908691
1745665461.304853,0.017796942964196205,-0.01521974615752697,-0.26851898431777954,0.4629549980163574,-0.7683348655700684,-9.628313064575195
1745665461.341183,0.011068643070757389,-0.015820957720279694,-0.268242746591568,0.5106819868087769,-0.630944550037384,-9.584264755249023
1745665461.3461864,-0.0036645650397986174,-0.014363715425133705,-0.26725274324417114,0.360565721988678,-0.8355453610420227,-9.895289421081543
1745665461.3472033,0.017988556995987892,-0.013569931499660015,-0.2673513889312744,0.4980526864528656,-0.7473769187927246,-9.819790840148926
1745665461.351352,0.004307169932872057,-0.017165768891572952,-0.2675016522407532,0.2956531345844269,-0.7401557564735413,-9.771492958068848
1745665461.3800821,0.016632717102766037,-0.01510812807828188,-0.2671537399291992,0.44685059785842896,-0.8528429269790649,-9.683456420898438
1745665461.3908536,-0.007089307997375727,-0.0184850562363863,-0.2692252993583679,0.3990163207054138,-0.753214418888092,-9.700033187866211
1745665461.3909574,0.022773373872041702,-0.014193132519721985,-0.26699167490005493,0.42014995217323303,-0.8481895327568054,-9.71444034576416
1745665461.3910184,-0.011070328764617443,-0.01542123593389988,-0.2674129605293274,0.4977136552333832,-0.7341514229774475,-9.649839401245117
1745665461.4239798,0.002446827245876193,-0.009390158578753471,-0.26873236894607544,0.37508466839790344,-0.9406771659851074,-9.857142448425293
1745665461.426281,0.011755910702049732,-0.01859487034380436,-0.26672080159187317,0.5209348797798157,-0.6852420568466187,-9.73823356628418
1745665461.428296,-0.01066401693969965,-0.017119403928518295,-0.2696351408958435,0.27000951766967773,-0.8065108060836792,-9.858560562133789
1745665461.430039,0.024993974715471268,-0.00798589363694191,-0.2678643763065338,0.4477406442165375,-0.7332431077957153,-9.594544410705566
1745665461.4326353,-0.0048175835981965065,-0.020113389939069748,-0.2690706253051758,0.3891841769218445,-0.7433874011039734,-9.56632137298584
1745665461.4691436,0.016481738537549973,-0.013086115941405296,-0.26567181944847107,0.3832719027996063,-0.8096857070922852,-9.82058048248291
1745665461.4737217,-0.0005789624410681427,-0.016469206660985947,-0.26814836263656616,0.48493820428848267,-0.7660530209541321,-9.860326766967773
1745665461.4759872,0.013843263499438763,-0.013706611469388008,-0.26716458797454834,0.32851219177246094,-0.8028579950332642,-9.82717227935791
