timestamp,angular_vel_x,angular_vel_y,angular_vel_z,linear_acc_x,linear_acc_y,linear_acc_z
1745667472.8598099,0.06557441502809525,0.04544287174940109,-0.28191089630126953,1.09326171875,-0.7493687868118286,-9.80256462097168
1745667472.8767488,0.08423998206853867,0.03682798519730568,-0.2854294180870056,0.889805018901825,-0.17626960575580597,-9.931775093078613
1745667472.9108608,0.07892768085002899,0.04925064742565155,-0.28732234239578247,0.9953985214233398,-0.4395821690559387,-9.74770450592041
1745667472.9133208,0.09330020099878311,0.034298818558454514,-0.2893637716770172,0.9465406537055969,-0.360364705324173,-9.510299682617188
1745667472.9284348,0.09392231702804565,0.03282036632299423,-0.29333099722862244,0.9534156918525696,-0.32271820306777954,-9.666679382324219
1745667472.9458156,0.09276473522186279,0.028225118294358253,-0.29608675837516785,1.0818912982940674,-0.5608779788017273,-9.996697425842285
1745667472.9459264,0.10587155818939209,0.025527220219373703,-0.29941466450691223,0.9056490063667297,-0.3210013508796692,-9.885603904724121
1745667472.9468422,0.08596430718898773,0.020925413817167282,-0.30226829648017883,1.160009503364563,-0.6496604681015015,-9.600228309631348
1745667472.9483364,0.08588533103466034,0.011071312241256237,-0.3054257035255432,0.9820988774299622,-0.464119017124176,-9.686795234680176
1745667472.9744928,0.08671191334724426,0.0113264424726367,-0.30549514293670654,1.0860145092010498,-0.7243495583534241,-9.916581153869629
1745667472.9833732,0.07453741133213043,0.007137751672416925,-0.3062981069087982,0.9447333216667175,-0.4870828092098236,-9.91328239440918
1745667472.9837983,0.08555033057928085,0.01055016927421093,-0.30938100814819336,0.9143832325935364,-0.6532849669456482,-9.725091934204102
1745667472.9858236,0.08880941569805145,-0.011728835292160511,-0.31379663944244385,0.9798762202262878,-0.35765761137008667,-9.553304672241211
1745667472.9950101,0.07945793867111206,-0.007768406067043543,-0.31425315141677856,0.9235697984695435,-0.5719611644744873,-9.937026977539062
1745667473.0023074,0.09999680519104004,-0.005526989232748747,-0.31837332248687744,1.0528411865234375,-0.5086959600448608,-9.954765319824219
1745667473.0076888,0.08042584359645844,-0.020164554938673973,-0.31743815541267395,0.9473145604133606,-0.5923374891281128,-9.712505340576172
1745667473.0089917,-0.06813925504684448,-0.14441394805908203,-0.19647589325904846,1.092668056488037,-0.5802714228630066,-10.83241081237793
1745667473.0119011,-0.11588368564844131,-0.1057327538728714,-0.18648745119571686,0.6607427000999451,-1.0969525575637817,-11.387337684631348
1745667473.0156527,-0.05296492576599121,-0.10110253095626831,-0.16442649066448212,0.6010082960128784,-0.4903391897678375,-8.531835556030273
1745667473.019444,-0.09227979928255081,-0.1261402815580368,-0.1509089320898056,0.729015588760376,-0.14570191502571106,-8.252470970153809
1745667473.021783,-0.06284685432910919,-0.12890340387821198,-0.14694051444530487,1.0338464975357056,-0.2865479588508606,-11.014618873596191
1745667473.0252218,-0.053550295531749725,-0.10526957362890244,-0.1481194645166397,0.948357105255127,0.30466416478157043,-11.223653793334961
1745667473.0291688,-0.04085906967520714,-0.10971786081790924,-0.1493205726146698,0.931011974811554,-0.21585655212402344,-9.152518272399902
1745667473.0333025,-0.04411132261157036,-0.13280688226222992,-0.14418812096118927,0.9484003186225891,0.004511244595050812,-8.670495986938477
1745667473.0376785,-0.0342666432261467,-0.12316112220287323,-0.13110829889774323,0.9098957180976868,-0.662497341632843,-10.597795486450195
1745667473.041501,-0.017676031216979027,-0.11185447126626968,-0.11459876596927643,0.9836539030075073,-0.4264492392539978,-10.62590503692627
1745667473.0465481,-0.020472262054681778,-0.11096726357936859,-0.10311485826969147,0.6362447142601013,-0.5612361431121826,-9.211050033569336
1745667473.0514863,-0.003280195640400052,-0.11782814562320709,-0.09413371980190277,0.7338794469833374,-0.591230571269989,-8.979865074157715
1745667473.0613937,-0.026524728164076805,-0.10886553674936295,-0.0872994139790535,0.5853725671768188,-0.42330509424209595,-10.307377815246582
1745667473.0614395,-0.009630464017391205,-0.10330953449010849,-0.08540011942386627,0.6918172836303711,-0.707471489906311,-10.454244613647461
1745667473.0642648,-0.03612269088625908,-0.10315655171871185,-0.07960782200098038,0.5538233518600464,-0.7610777616500854,-9.370640754699707
1745667473.0701084,-0.06762664765119553,-0.0971069186925888,-0.07296596467494965,0.3223402202129364,-1.2748314142227173,-9.328069686889648
1745667473.071877,-0.11207045614719391,-0.0927710086107254,-0.061542026698589325,0.653003990650177,-1.469541311264038,-9.765702247619629
1745667473.0765796,-0.1487092673778534,-0.07831517606973648,-0.054335009306669235,0.6669975519180298,-1.2632150650024414,-9.929540634155273
1745667473.0814462,-0.18620461225509644,-0.0773124247789383,-0.044520825147628784,0.8471733331680298,-1.1454112529754639,-9.788614273071289
1745667473.0844245,-0.20476634800434113,-0.08192562311887741,-0.03613743185997009,0.7339740991592407,-0.7530071139335632,-9.770475387573242
1745667473.0896862,-0.15297158062458038,-0.043703511357307434,0.04021896421909332,0.45382651686668396,-0.6636542081832886,-10.056295394897461
1745667473.0959384,-0.1643199622631073,-0.03593142330646515,0.042863838374614716,0.5863505005836487,-0.4762488305568695,-9.537096977233887
1745667473.102259,-0.1827598214149475,-0.040508419275283813,0.04580477252602577,0.4063006341457367,-0.3827465772628784,-9.561758041381836
1745667473.106362,-0.17941471934318542,-0.035210952162742615,0.0466274693608284,0.6366555094718933,-0.43445831537246704,-9.871856689453125
1745667473.1109746,-0.1955580711364746,-0.030055701732635498,0.05336710065603256,0.5461119413375854,-0.45498862862586975,-9.992552757263184
1745667473.1327996,-0.18548330664634705,-0.01800054870545864,0.060973454266786575,0.383836030960083,-0.511284351348877,-9.659053802490234
1745667473.1328902,-0.20632629096508026,-0.02181345596909523,0.07079024612903595,0.6920571327209473,-0.5528995990753174,-9.353788375854492
1745667473.1330483,-0.19730262458324432,-0.012786026112735271,0.07702741026878357,0.6205388903617859,-0.28867602348327637,-9.782800674438477
1745667473.1346269,-0.20243439078330994,-0.009666812606155872,0.08333226293325424,0.7054443955421448,-0.16671249270439148,-10.099088668823242
1745667473.1392834,-0.19170443713665009,-0.011020010337233543,0.08644977957010269,0.5464252829551697,-0.010003719478845596,-9.796533584594727
1745667473.1729667,-0.18953344225883484,-0.0005705569055862725,0.08842065930366516,0.7028185725212097,-0.05126640945672989,-9.491811752319336
1745667473.1745338,-0.1897638738155365,-0.012079187668859959,0.09100542962551117,0.6033000946044922,-0.0329258106648922,-9.83143424987793
1745667473.1778855,-0.1769866794347763,-0.005505627952516079,0.09397623687982559,0.4609396457672119,-0.13428474962711334,-10.060354232788086
1745667473.1836698,-0.18550419807434082,0.001018471084535122,0.10019131004810333,0.6343928575515747,-0.2220749855041504,-9.708941459655762
1745667473.2176116,-0.17602546513080597,0.0037505440413951874,0.10786280781030655,0.5150929093360901,-0.09390044212341309,-9.492960929870605
1745667473.2262902,-0.17782005667686462,-0.005112841259688139,0.11234096437692642,0.8224836587905884,-0.22223353385925293,-9.765104293823242
1745667473.226361,-0.20369085669517517,0.02830924093723297,0.2166627198457718,0.5054501295089722,0.19808873534202576,-9.612777709960938
1745667473.2264082,-0.19571064412593842,0.03685477375984192,0.2193196713924408,0.5598545074462891,0.10799475014209747,-9.624322891235352
1745667473.2583232,-0.19552986323833466,0.03614742308855057,0.22351673245429993,0.7293522953987122,0.20065779983997345,-9.710512161254883
1745667473.2617211,-0.19151921570301056,0.03924277424812317,0.22558188438415527,0.4848767817020416,0.3707910180091858,-9.786921501159668
1745667473.2653809,-0.18452979624271393,0.033365845680236816,0.22794878482818604,0.7719994187355042,0.13485613465309143,-9.640233993530273
1745667473.266943,-0.1907123625278473,0.04184021055698395,0.23098435997962952,0.6156307458877563,0.3671170473098755,-9.659191131591797
1745667473.3066618,-0.1865246444940567,0.03778069466352463,0.2341993749141693,0.6358597278594971,0.08456899225711823,-9.760828971862793
1745667473.3100803,-0.18148624897003174,0.030930226668715477,0.2373579442501068,0.6699853539466858,0.2785913050174713,-9.647089958190918
1745667473.310169,-0.19094035029411316,0.04276727885007858,0.24194368720054626,0.5180439352989197,0.1886260062456131,-9.751371383666992
1745667473.3102143,-0.18216755986213684,0.033048875629901886,0.24454498291015625,0.7242569923400879,0.20013590157032013,-9.699712753295898
1745667473.317511,-0.18552014231681824,0.03156699612736702,0.24646763503551483,0.5941866636276245,0.40140002965927124,-9.706730842590332
1745667473.3460808,-0.17711851000785828,0.035380296409130096,0.25058919191360474,0.7740679979324341,0.21112461388111115,-9.76790714263916
1745667473.3494349,-0.17719733715057373,0.03179692104458809,0.25108596682548523,0.5173178911209106,0.40737184882164,-9.838285446166992
1745667473.3518188,-0.17354004085063934,0.031190920621156693,0.2559809684753418,0.6712692379951477,0.16156505048274994,-9.637166976928711
1745667473.354007,-0.1731421947479248,0.025738105177879333,0.2569832503795624,0.6669934988021851,0.2642168402671814,-9.581197738647461
1745667473.3910286,-0.17820028960704803,0.033873867243528366,0.26234713196754456,0.4874955117702484,0.24665269255638123,-9.85809326171875
1745667473.391103,-0.17852304875850677,0.024941271170973778,0.2655329704284668,0.6884517073631287,0.23603634536266327,-9.739338874816895
1745667473.3911736,-0.174727663397789,0.030421581119298935,0.265582412481308,0.5869383215904236,0.5072945356369019,-9.559000968933105
1745667473.3923957,-0.18264886736869812,0.02594354748725891,0.2678942382335663,0.7106276750564575,0.1877138614654541,-9.740945816040039
1745667473.39392,-0.1738133579492569,0.020481854677200317,0.26891544461250305,0.5741275548934937,0.45474013686180115,-9.858033180236816
1745667473.432146,-0.1546860635280609,0.012739047408103943,0.3021107017993927,0.7987560033798218,0.3570910096168518,-9.715936660766602
1745667473.4346375,-0.1418357491493225,0.011337626725435257,0.3049512803554535,0.5551681518554688,0.5872153043746948,-9.810212135314941
1745667473.4396608,-0.1419537514448166,0.012199739925563335,0.3073294758796692,0.6123524904251099,0.5569607019424438,-9.713693618774414
1745667473.4427397,-0.1322162002325058,0.001130786957219243,0.3077694773674011,0.6684537529945374,0.5483505129814148,-9.648588180541992
1745667473.4724715,-0.1248892992734909,0.016028258949518204,0.30830472707748413,0.48369723558425903,0.7204617857933044,-9.815218925476074
1745667473.474404,-0.1327754110097885,0.005837243981659412,0.3110799193382263,0.640701949596405,0.3995998501777649,-9.78204345703125
1745667473.4770608,-0.10803589969873428,0.004904749803245068,0.3114352524280548,0.5708380341529846,0.7053120136260986,-9.5695161819458
1745667473.4808307,-0.13083292543888092,0.008504072204232216,0.3130057454109192,0.7658072113990784,0.3457728326320648,-9.78343391418457
1745667473.4809918,-0.12066680192947388,0.0009451579535380006,0.315494179725647,0.5817134976387024,0.4779280722141266,-9.954394340515137
1745667473.518304,-0.1268589347600937,0.01049736887216568,0.31703510880470276,0.6758926510810852,0.44070929288864136,-9.654715538024902
1745667473.5204973,-0.13092905282974243,0.0037836642004549503,0.31969207525253296,0.6481513977050781,0.4236793518066406,-9.544462203979492
1745667473.5215952,-0.1248418539762497,0.003797499928623438,0.32270392775535583,0.5557910203933716,0.60127192735672,-9.82689094543457
1745667473.5246532,-0.13176903128623962,-2.811357808241155e-05,0.32278504967689514,0.7532774209976196,0.4881129264831543,-9.897100448608398
1745667473.5583823,-0.11283089965581894,0.004626187030225992,0.3254449963569641,0.5472294688224792,0.7810629606246948,-9.717218399047852
1745667473.5606058,-0.12703177332878113,0.0006550169782713056,0.3221282362937927,0.6507412195205688,0.5176505446434021,-9.709126472473145
1745667473.5616295,-0.1098729819059372,-0.005682048387825489,0.3282191753387451,0.5804932117462158,0.6373355388641357,-9.824235916137695
1745667473.5647368,-0.06861240416765213,-0.022417642176151276,0.35010555386543274,0.5491652488708496,0.5340350866317749,-10.024707794189453
1745667473.6045258,-0.07387077808380127,-0.02530311979353428,0.3517891764640808,0.7143495678901672,0.7446382641792297,-9.607906341552734
1745667473.6062033,-0.07602059841156006,-0.020458891987800598,0.35058894753456116,0.4665546417236328,0.7291720509529114,-9.69310188293457
1745667473.6078465,-0.07166945934295654,-0.02855808660387993,0.35116124153137207,0.6510089635848999,0.5670887231826782,-9.850423812866211
1745667473.6102183,-0.07853005826473236,-0.026650479063391685,0.3518693149089813,0.5490742921829224,0.7049270868301392,-9.807021141052246
1745667473.6442835,-0.0686093419790268,-0.02043960988521576,0.3533046543598175,0.7010000944137573,0.6183627843856812,-9.69705581665039
1745667473.6476607,-0.09012867510318756,-0.028802990913391113,0.353000670671463,0.498701274394989,0.7417132258415222,-9.832159042358398
1745667473.6502542,-0.06534691154956818,-0.026162346825003624,0.3527849316596985,0.6012356877326965,0.5783273577690125,-9.80924129486084
1745667473.6543703,-0.08753378689289093,-0.02613801322877407,0.35358208417892456,0.6976765394210815,0.7955907583236694,-9.644923210144043
1745667473.6556587,-0.08538956940174103,-0.026173893362283707,0.353870689868927,0.4793523848056793,0.6008346080780029,-9.875503540039062
1745667473.6906197,-0.06773518025875092,-0.028909850865602493,0.3574053645133972,0.7699376344680786,0.782785952091217,-9.699238777160645
1745667473.692666,-0.09177040308713913,-0.025230925530195236,0.3544043302536011,0.4466254711151123,0.7837386131286621,-9.818992614746094
1745667473.695983,-0.06369680911302567,-0.026736566796898842,0.3571215271949768,0.6280155181884766,0.6356814503669739,-9.823572158813477
1745667473.6993043,-0.07600010931491852,-0.03296545892953873,0.3585924208164215,0.5810214281082153,0.856420636177063,-9.684488296508789
1745667473.7310798,-0.05969059467315674,-0.021010154858231544,0.3603774905204773,0.5770477652549744,0.6703572273254395,-9.816939353942871
1745667473.733895,-0.06936410814523697,-0.032702717930078506,0.35991495847702026,0.6435303092002869,0.8459873199462891,-9.72127628326416
1745667473.735184,-0.06201894208788872,-0.031740717589855194,0.3598899841308594,0.5023507475852966,0.676903486251831,-9.876592636108398
1745667473.7392592,-0.05572932958602905,-0.02923750877380371,0.36051565408706665,0.7220088839530945,0.6690611839294434,-9.767021179199219
1745667473.7759688,-0.08118067681789398,-0.02951744571328163,0.359100878238678,0.4160977303981781,0.7022391557693481,-9.816723823547363
1745667473.7799659,-0.06770462542772293,-0.03332609683275223,0.36366429924964905,0.5106158256530762,0.9244518280029297,-9.68187427520752
1745667473.7833333,-0.06635679304599762,-0.03397712856531143,0.3649287819862366,0.5788002610206604,0.6111885905265808,-9.887994766235352
1745667473.788301,-0.06203620880842209,-0.03778684884309769,0.3681502938270569,0.4439839720726013,0.88628751039505,-9.732884407043457
1745667473.8174424,-0.06262554973363876,-0.029434040188789368,0.3680345416069031,0.6312138438224792,0.7171164751052856,-9.616231918334961
1745667473.8220606,-0.059714239090681076,-0.0392451249063015,0.3670135736465454,0.6002552509307861,0.8621756434440613,-9.757682800292969
1745667473.8263805,-0.059397995471954346,-0.03400581330060959,0.3659706115722656,0.4547150731086731,0.8430018424987793,-9.999910354614258
1745667473.829371,-0.050312966108322144,-0.039420630782842636,0.36548691987991333,0.6558390259742737,0.6411735415458679,-9.720800399780273
1745667473.8318827,-0.06134536862373352,-0.03007369674742222,0.36620670557022095,0.44900912046432495,0.9794843792915344,-9.50436782836914
1745667473.8621857,-0.06563980877399445,-0.042416080832481384,0.36478570103645325,0.6384033560752869,0.4834071695804596,-9.796832084655762
1745667473.8671534,-0.05588745325803757,-0.038128238171339035,0.36700335144996643,0.5554429292678833,0.949114978313446,-9.866859436035156
1745667473.8672812,-0.07103376090526581,-0.0280899740755558,0.3663577139377594,0.533258855342865,0.7144688963890076,-9.784346580505371
1745667473.8695695,-0.061980314552783966,-0.042884353548288345,0.36634722352027893,0.517408013343811,0.7534588575363159,-9.56689453125
1745667473.9035144,-0.057553183287382126,-0.033241771161556244,0.3682638108730316,0.5610105991363525,0.9243326187133789,-9.62710952758789
1745667473.909074,-0.062210243195295334,-0.03589717671275139,0.3712751865386963,0.5745745897293091,0.6837794184684753,-9.958111763000488
1745667473.9131548,-0.05047973245382309,-0.034042079001665115,0.3696122467517853,0.4142282009124756,1.0739384889602661,-9.772087097167969
1745667473.9225862,-0.05091733857989311,-0.03700374439358711,0.3690859377384186,0.6419432759284973,0.7003234028816223,-9.640872955322266
1745667473.9226592,-0.03895825892686844,-0.03322659805417061,0.36841481924057007,0.4662443697452545,0.9980326890945435,-9.645322799682617
1745667473.9491136,-0.038845211267471313,-0.027338871732354164,0.36882179975509644,0.6132442951202393,0.8100298047065735,-9.691259384155273
1745667473.952972,-0.04083696007728577,-0.042368508875370026,0.36866194009780884,0.4203433096408844,0.7137908935546875,-9.75108814239502
1745667473.958265,-0.022757025435566902,-0.03140944242477417,0.371420294046402,0.6381269097328186,0.8985483050346375,-9.669577598571777
1745667473.9626365,-0.05471731349825859,-0.03352723270654678,0.3682815134525299,0.45609569549560547,0.7651014924049377,-9.833998680114746
1745667473.9926276,-0.024597153067588806,-0.0333666130900383,0.3717663884162903,0.44850215315818787,0.9018850326538086,-9.733807563781738
1745667473.992692,-0.03952549025416374,-0.036680299788713455,0.37358781695365906,0.6181000471115112,0.789289116859436,-9.581929206848145
1745667473.992725,-0.026684552431106567,-0.026815364137291908,0.3726414740085602,0.3681243062019348,0.9466736912727356,-9.830702781677246
1745667473.9942262,-0.026966696605086327,-0.03404074162244797,0.3730160593986511,0.5975745320320129,0.9341384172439575,-9.71766471862793
1745667473.9954584,-0.027753163129091263,-0.03623101860284805,0.37185221910476685,0.41981664299964905,0.893751323223114,-9.776252746582031
1745667474.0348294,-0.006896299310028553,-0.02827378548681736,0.37135428190231323,0.5655754804611206,0.9088336825370789,-9.678051948547363
1745667474.0396311,-0.04152994975447655,-0.032575495541095734,0.37107911705970764,0.4235217571258545,0.8184610605239868,-9.751031875610352
1745667474.0433376,-0.00698403874412179,-0.03323296085000038,0.3692999482154846,0.5453387498855591,0.7852643728256226,-9.641530990600586
1745667474.0475035,-0.03613217547535896,-0.03167179971933365,0.37122708559036255,0.6039173007011414,0.8358505368232727,-9.713042259216309
1745667474.0758893,-0.02962755598127842,-0.026102811098098755,0.3705824017524719,0.3245939612388611,0.7594118118286133,-9.937897682189941
1745667474.077666,-0.024061184376478195,-0.03397378325462341,0.37320712208747864,0.6339106559753418,0.7867988348007202,-9.602535247802734
1745667474.086945,-0.03546755760908127,-0.027325863018631935,0.37292879819869995,0.4387642741203308,0.9169589877128601,-9.634564399719238
1745667474.087018,-0.021066267043352127,-0.027228545397520065,0.3741028904914856,0.5261797904968262,0.7707235217094421,-9.841535568237305
1745667474.1185646,-0.03446590155363083,-0.03465244919061661,0.3733980357646942,0.45217180252075195,0.9310107231140137,-9.791537284851074
1745667474.122138,-0.01146681047976017,-0.02443232573568821,0.3739112317562103,0.49774685502052307,0.8925925493240356,-9.646112442016602
1745667474.1261225,-0.02399122342467308,-0.030985582619905472,0.3741145133972168,0.5654112100601196,0.8698078393936157,-9.78191089630127
1745667474.1286066,-0.03290748968720436,-0.017372334375977516,0.37463515996932983,0.46986550092697144,0.8881392478942871,-9.700197219848633
1745667474.161639,-0.030810225754976273,-0.029138285666704178,0.37230610847473145,0.519554853439331,0.7014132738113403,-9.672151565551758
1745667474.1634555,-0.027046814560890198,-0.027676349505782127,0.3755568563938141,0.3859842121601105,1.0013540983200073,-9.69304084777832
1745667474.1657324,-0.02749355509877205,-0.02136143110692501,0.3751130998134613,0.6120288968086243,0.7096723318099976,-9.807641983032227
1745667474.1690185,-0.02690679393708706,-0.023790214210748672,0.376412570476532,0.4168429374694824,1.1027780771255493,-9.744804382324219
1745667474.1712918,-0.02134775184094906,-0.027549970895051956,0.3736429214477539,0.5024636387825012,0.807652473449707,-9.809876441955566
1745667474.2066653,-0.01626792922616005,-0.026881303638219833,0.37255358695983887,0.4833298325538635,0.9218946695327759,-9.735167503356934
1745667474.2082973,-0.028422240167856216,-0.016795042902231216,0.3738931715488434,0.438694566488266,0.9668129086494446,-9.736542701721191
1745667474.2111444,-0.023978877812623978,-0.03240551799535751,0.3722318708896637,0.5710664987564087,0.6388424038887024,-9.701517105102539
1745667474.2113817,-0.02067452296614647,-0.02292798087000847,0.3720124661922455,0.4575309753417969,1.062682867050171,-9.724359512329102
1745667474.2524567,-0.03462790325284004,-0.022983169183135033,0.37113410234451294,0.5276541113853455,0.6719889640808105,-9.844761848449707
1745667474.252539,-0.023462483659386635,-0.029053589329123497,0.37369486689567566,0.3821782171726227,1.006935954093933,-9.706506729125977
1745667474.2525833,-0.02369108982384205,-0.022744307294487953,0.37204939126968384,0.6159594655036926,0.8250975608825684,-9.632233619689941
1745667474.255342,-0.026169415563344955,-0.023330941796302795,0.3722630739212036,0.39448556303977966,0.9189065098762512,-9.843195915222168
1745667474.2579386,-0.019263099879026413,-0.022186297923326492,0.37218427658081055,0.4061492085456848,0.9880216717720032,-9.734302520751953
1745667474.2919142,-0.019508108496665955,-0.0307854525744915,0.3727794587612152,0.5570303201675415,0.7934311032295227,-9.643426895141602
1745667474.2942853,-0.017942354083061218,-0.023218991234898567,0.3653256893157959,0.32490330934524536,0.8492973446846008,-9.851323127746582
1745667474.2959764,-0.009892766363918781,-0.026379168033599854,0.3667523264884949,0.667313814163208,0.8181926012039185,-9.63395881652832
1745667474.297153,-0.028769057244062424,-0.018915295600891113,0.36537355184555054,0.3608134984970093,0.9270690679550171,-9.786935806274414
1745667474.3345985,-0.01290045864880085,-0.023361504077911377,0.36758190393447876,0.5256611704826355,0.7784020304679871,-9.803088188171387
1745667474.3367968,-0.024406673386693,-0.02850520983338356,0.3654424250125885,0.5109081864356995,0.922649085521698,-9.63356876373291
1745667474.345712,-0.01549431961029768,-0.014598211273550987,0.3662426769733429,0.44738927483558655,0.9227865934371948,-9.762433052062988
1745667474.3458326,-0.02257010154426098,-0.02811756730079651,0.36560073494911194,0.4992848038673401,0.9084013104438782,-9.780566215515137
1745667474.3459744,-0.01560940034687519,-0.02447536215186119,0.36594027280807495,0.3695072531700134,0.9421365857124329,-9.754315376281738
1745667474.3785114,-0.01057644933462143,-0.021144185215234756,0.36517950892448425,0.5859915018081665,0.8598189353942871,-9.681910514831543
1745667474.3838437,-0.02858380600810051,-0.02114851400256157,0.36470144987106323,0.3135737478733063,0.9732376933097839,-9.797579765319824
1745667474.3885396,-0.004193286411464214,-0.025110578164458275,0.36583754420280457,0.5752883553504944,0.7729163765907288,-9.639923095703125
1745667474.392681,-0.02145909145474434,-0.0243193618953228,0.3632538914680481,0.4977588653564453,1.0265413522720337,-9.70349407196045
1745667474.4210923,-0.0146095035597682,-0.019467364996671677,0.3642132878303528,0.4267670512199402,0.812447726726532,-9.901549339294434
1745667474.4243708,-0.014696694910526276,-0.030138682574033737,0.36480921506881714,0.5089418888092041,0.8657070398330688,-9.718208312988281
1745667474.42976,-0.012783592566847801,-0.016335343942046165,0.365635484457016,0.39578554034233093,0.9623006582260132,-9.59165096282959
1745667474.431979,-0.014111241325736046,-0.023402240127325058,0.36551642417907715,0.5464333891868591,0.7278407216072083,-9.724215507507324
1745667474.4624345,-0.01886579394340515,-0.028402958065271378,0.364311158657074,0.3816978335380554,1.0461845397949219,-9.846900939941406
1745667474.4656463,-0.005264406092464924,-0.022904718294739723,0.3642818331718445,0.6139811277389526,0.8109919428825378,-9.815329551696777
1745667474.4678185,-0.014998410828411579,-0.024300716817378998,0.3630558252334595,0.41263729333877563,1.0759332180023193,-9.688858032226562
1745667474.4713125,-0.013120916672050953,-0.02331763692200184,0.3628939390182495,0.4401087760925293,0.7743444442749023,-9.72984504699707
1745667474.5105436,-0.016185937449336052,-0.0267732385545969,0.3588986396789551,0.49204254150390625,0.7412062883377075,-9.718783378601074
1745667474.5106897,-0.004235989414155483,-0.03350622579455376,0.3578277826309204,0.4340478777885437,0.9389845132827759,-9.744657516479492
1745667474.512313,-0.008035371080040932,-0.020443078130483627,0.3605770170688629,0.5706046223640442,0.8639998435974121,-9.760263442993164
1745667474.5155427,-0.016808757558465004,-0.02880522608757019,0.36072540283203125,0.3415195345878601,0.7796072959899902,-9.772346496582031
1745667474.5190635,8.562314178561792e-05,-0.024434011429548264,0.36233606934547424,0.3813741207122803,0.9688593149185181,-9.57322883605957
1745667474.5508127,-0.019026057794690132,-0.02863597869873047,0.3613618016242981,0.5932479500770569,0.7684026956558228,-9.700983047485352
1745667474.551934,0.0009860198479145765,-0.023946670815348625,0.36262205243110657,0.3990081250667572,1.1256743669509888,-9.900792121887207
1745667474.5547054,-0.009175866842269897,-0.028195366263389587,0.356594055891037,0.46547287702560425,0.8259471654891968,-9.902483940124512
1745667474.5551772,0.0020653153769671917,-0.027964090928435326,0.3584668040275574,0.3971858322620392,0.9966140985488892,-9.550638198852539
1745667474.5916886,-0.004709182772785425,-0.02254382148385048,0.35810673236846924,0.5354006886482239,0.8962527513504028,-9.541807174682617
1745667474.5934978,-0.012505779974162579,-0.03578639030456543,0.3581719994544983,0.36958855390548706,0.7133616209030151,-9.985384941101074
1745667474.5950797,0.0063772620633244514,-0.020809849724173546,0.3596529960632324,0.4674263000488281,0.953984260559082,-9.809170722961426
1745667474.599959,-0.019473183900117874,-0.024141628295183182,0.3599225878715515,0.4765167832374573,0.8143226504325867,-9.574000358581543
1745667474.602202,-0.001096765510737896,-0.027977460995316505,0.35633498430252075,0.3624746799468994,0.9993906021118164,-9.637460708618164
1745667474.6364162,-0.007576255593448877,-0.03131537884473801,0.35897475481033325,0.6057655811309814,0.8082168698310852,-9.82874870300293
1745667474.641353,-0.006434721406549215,-0.020291605964303017,0.3583586812019348,0.2722640633583069,0.9405994415283203,-9.92321491241455
1745667474.6450863,0.015919853001832962,-0.032409004867076874,0.35488036274909973,0.5018759965896606,0.8263676762580872,-9.834403991699219
1745667474.6475835,0.006663100328296423,-0.020522713661193848,0.35438066720962524,0.3818705379962921,0.9765579104423523,-9.672953605651855
1745667474.6806731,0.00946638360619545,-0.029162844642996788,0.3553767800331116,0.4980098307132721,0.6545311212539673,-9.640932083129883
1745667474.6829066,0.010024869814515114,-0.03414476662874222,0.35655784606933594,0.3660406470298767,0.9787521362304688,-9.715957641601562
1745667474.6869726,0.015802748501300812,-0.020340850576758385,0.35736361145973206,0.5130596160888672,0.8299630880355835,-9.87558364868164
1745667474.6896448,0.009306813590228558,-0.026414314284920692,0.3554639220237732,0.3971621096134186,1.0119096040725708,-9.75626277923584
1745667474.7235632,0.018520187586545944,-0.029044300317764282,0.354854941368103,0.4042220711708069,0.8774134516716003,-9.682731628417969
1745667474.726296,0.02076532132923603,-0.031028246507048607,0.35320845246315,0.4907229542732239,0.8127570152282715,-9.736749649047852
1745667474.7285964,0.011973557993769646,-0.019395051524043083,0.35413581132888794,0.26109904050827026,0.9874860644340515,-9.807960510253906
1745667474.7299201,0.017247922718524933,-0.03200969472527504,0.3554617762565613,0.5365105867385864,0.5824552774429321,-9.660118103027344
1745667474.7320974,0.019178932532668114,-0.025396686047315598,0.3546730577945709,0.42871159315109253,1.047183632850647,-9.64233684539795
1745667474.7695882,0.004713249858468771,-0.021235253661870956,0.35678595304489136,0.45819687843322754,0.7165313959121704,-9.943460464477539
1745667474.7702885,0.017436863854527473,-0.03214229270815849,0.3548702895641327,0.39560022950172424,0.8982446789741516,-9.734728813171387
1745667474.7721622,0.01809149608016014,-0.021633431315422058,0.35526615381240845,0.5037174224853516,0.9300321340560913,-9.563004493713379
1745667474.7741902,0.009926436468958855,-0.02684600278735161,0.3571089506149292,0.41722244024276733,0.6736862063407898,-9.827085494995117
1745667474.8064656,0.025174761191010475,-0.02690110169351101,0.35551732778549194,0.31354740262031555,1.0545094013214111,-9.786863327026367
1745667474.809859,0.013806940987706184,-0.02812860533595085,0.36016830801963806,0.5116773843765259,0.6643964052200317,-9.707878112792969
1745667474.812989,0.02807869389653206,-0.019309449940919876,0.3567821681499481,0.3350715935230255,1.0218048095703125,-9.670385360717773
1745667474.815464,0.014703954569995403,-0.025608668103814125,0.3559841513633728,0.483793169260025,0.7595257759094238,-9.765727043151855
1745667474.8189309,0.025053944438695908,-0.03215419501066208,0.35424739122390747,0.40315037965774536,0.8778426051139832,-9.785272598266602
1745667474.853297,0.01754334196448326,-0.01635531708598137,0.354486882686615,0.45889076590538025,0.8687305450439453,-9.759921073913574
1745667474.8562062,-0.0007288837805390358,-0.02052011713385582,0.35781559348106384,0.4353054165840149,0.7210457921028137,-9.843657493591309
1745667474.858683,0.02026275359094143,-0.025395411998033524,0.35708537697792053,0.3622366487979889,0.9052971005439758,-9.970376968383789
1745667474.8625076,0.02007405459880829,-0.021994825452566147,0.3572612404823303,0.6227245330810547,0.8559441566467285,-9.607770919799805
1745667474.8947482,0.011610837653279305,-0.01917831227183342,0.35947972536087036,0.2524871528148651,0.8490732312202454,-9.710732460021973
1745667474.8986876,0.03370838612318039,-0.024530287832021713,0.3580940365791321,0.40963634848594666,0.748769998550415,-9.771841049194336
1745667474.9015374,0.007387963123619556,-0.02077673003077507,0.35918718576431274,0.4401317238807678,0.7722252011299133,-9.70293140411377
1745667474.9056382,0.033801864832639694,-0.019163141027092934,0.36036571860313416,0.43608084321022034,0.839138388633728,-9.709990501403809
1745667474.935359,0.012428119778633118,-0.02804943360388279,0.3600730001926422,0.4263784885406494,0.8290289640426636,-9.90102767944336
1745667474.9390333,0.026954535394906998,-0.020132578909397125,0.35806530714035034,0.33624929189682007,0.7892507314682007,-9.8699312210083
1745667474.941113,0.02324778400361538,-0.017586007714271545,0.3609195649623871,0.5822680592536926,0.8220579028129578,-9.458252906799316
1745667474.9432595,0.005928510334342718,-0.028036799281835556,0.35685279965400696,0.287627637386322,0.7007848024368286,-9.738906860351562
1745667474.9442863,0.02648671343922615,-0.023982958868145943,0.35901302099227905,0.5981892943382263,0.729636013507843,-9.888574600219727
1745667474.9794288,-0.0009782861452549696,-0.017522841691970825,0.3600478768348694,0.35879212617874146,0.8140398263931274,-9.883997917175293
1745667474.9824405,0.01999964378774166,-0.0190051831305027,0.35986343026161194,0.3657906949520111,0.7292591333389282,-9.58584213256836
1745667474.9919732,0.007005791179835796,-0.029826199635863304,0.3608725965023041,0.5294925570487976,0.803449809551239,-9.497279167175293
1745667474.992121,-0.008415432646870613,-0.01668105088174343,0.3661500811576843,0.44891366362571716,0.6610148549079895,-9.93563461303711
1745667475.0253704,-0.00018127821385860443,-0.02760974131524563,0.3644666075706482,0.3875255584716797,0.7331427931785583,-9.829639434814453
1745667475.028556,0.0019707686733454466,-0.017359841614961624,0.36467742919921875,0.5381330251693726,0.8280078172683716,-9.49258804321289
1745667475.0329318,-0.01370238047093153,-0.025461476296186447,0.36493587493896484,0.36915963888168335,0.5486350655555725,-9.762730598449707
1745667475.0356352,0.00676040118560195,-0.020496437326073647,0.3661831319332123,0.31382304430007935,0.8566994667053223,-9.883213996887207
1745667475.0655541,-0.015158435329794884,-0.01957842707633972,0.3685606122016907,0.5445011854171753,0.6588481068611145,-9.678361892700195
1745667475.0682845,0.009255962446331978,-0.022137314081192017,0.3671615719795227,0.36794835329055786,0.9835033416748047,-9.626809120178223
1745667475.0703526,-0.006310879252851009,-0.024433473125100136,0.3664513826370239,0.49162808060646057,0.820198655128479,-9.899763107299805
1745667475.0719533,0.004224041011184454,-0.025406282395124435,0.3630908131599426,0.3674616515636444,0.8052318692207336,-9.988485336303711
1745667475.1100237,0.011852821335196495,-0.015641264617443085,0.3638197183609009,0.47355908155441284,0.8862758874893188,-9.51601791381836
1745667475.112164,-0.012515348382294178,-0.02922714874148369,0.36512380838394165,0.3576740622520447,0.5439927577972412,-9.601492881774902
1745667475.1139739,0.012290632352232933,-0.02542692795395851,0.3647419512271881,0.46975916624069214,0.7724252343177795,-9.833839416503906
1745667475.1158907,-0.016389651224017143,-0.02094789780676365,0.3649905323982239,0.5253737568855286,0.6646577715873718,-9.986149787902832
1745667475.1194913,-0.00020242910250090063,-0.019629111513495445,0.3659984767436981,0.2537413537502289,0.7886627912521362,-9.744267463684082
1745667475.1542447,-0.005719258449971676,-0.028415074571967125,0.3658519685268402,0.555799126625061,0.7151181101799011,-9.405218124389648
1745667475.1557286,-0.015758592635393143,-0.02255992591381073,0.3662305772304535,0.36438828706741333,0.725628137588501,-9.845525741577148
1745667475.157554,-0.0004240604175720364,-0.02174411341547966,0.36509689688682556,0.49373379349708557,0.7999550700187683,-10.002347946166992
1745667475.160582,-0.022670133039355278,-0.026684775948524475,0.36526891589164734,0.32424411177635193,0.6597959399223328,-9.809637069702148
1745667475.1957197,0.0018579780589789152,-0.021137237548828125,0.36723020672798157,0.385581910610199,0.7897614240646362,-9.48929214477539
1745667475.2000096,-0.029243528842926025,-0.023481234908103943,0.36412107944488525,0.4439031183719635,0.7814332246780396,-9.636378288269043
1745667475.205526,-0.0070964680053293705,-0.0274878591299057,0.3654044270515442,0.5372269153594971,0.629400908946991,-9.431594848632812
1745667475.2087276,-0.029662176966667175,-0.02670210599899292,0.36282187700271606,0.36119765043258667,0.8792465329170227,-9.631540298461914
1745667475.2422304,-0.01983500085771084,-0.025089213624596596,0.36607295274734497,0.3983890116214752,0.6054534912109375,-10.084096908569336
1745667475.2423255,-0.01739589497447014,-0.029342133551836014,0.3648018538951874,0.40538936853408813,0.8691774606704712,-9.719776153564453
1745667475.2441127,-0.01929464004933834,-0.01560723315924406,0.3669024109840393,0.3834673762321472,0.8410887718200684,-9.487025260925293
1745667475.2461655,-0.014837823808193207,-0.030334994196891785,0.36597004532814026,0.43707117438316345,0.6801427006721497,-9.737655639648438
1745667475.2462418,-0.016227763146162033,-0.02561887726187706,0.36532750725746155,0.3717551827430725,0.9197724461555481,-9.926983833312988
1745667475.2822762,-0.011287571862339973,-0.02186768315732479,0.36497002840042114,0.5144237279891968,0.6033368706703186,-9.812442779541016
1745667475.2857552,-0.018743088468909264,-0.021878518164157867,0.3650442957878113,0.2659749388694763,0.941352367401123,-9.623106956481934
1745667475.2896843,-0.026037896052002907,-0.028140943497419357,0.3655487298965454,0.5020267367362976,0.5449420213699341,-9.69752311706543
1745667475.2930386,-0.018560295924544334,-0.028411591425538063,0.36382347345352173,0.444570928812027,0.8433023691177368,-9.77159595489502
1745667475.3358054,-0.03254082053899765,-0.016195926815271378,0.3613523244857788,0.3110831379890442,0.7779585123062134,-9.922524452209473
1745667475.3358736,-0.027694687247276306,-0.03107965923845768,0.3643661141395569,0.4526687562465668,0.6693116426467896,-9.715895652770996
1745667475.3359256,-0.020217332988977432,-0.022187048569321632,0.3640315532684326,0.42286840081214905,0.9698708653450012,-9.553754806518555
1745667475.3370745,-0.03182922676205635,-0.024009982123970985,0.36233559250831604,0.4167119860649109,0.604589581489563,-9.88368034362793
1745667475.3695617,-0.036501895636320114,-0.025032510980963707,0.36398765444755554,0.26425501704216003,0.8132696151733398,-9.713602066040039
1745667475.3714032,-0.008582090027630329,-0.025698652490973473,0.3640884459018707,0.5154493451118469,0.7287013530731201,-9.554011344909668
1745667475.3762705,-0.03867500275373459,-0.023828741163015366,0.362150102853775,0.40117543935775757,0.8496688604354858,-9.831298828125
1745667475.3833544,-0.025006737560033798,-0.020467465743422508,0.3620515763759613,0.32987329363822937,0.6737302541732788,-9.998307228088379
1745667475.409374,-0.02296867035329342,-0.025196945294737816,0.36529281735420227,0.5411384701728821,0.7622299790382385,-9.50825023651123
1745667475.411587,-0.03278964012861252,-0.01796622946858406,0.36547213792800903,0.2800193727016449,0.8616384267807007,-9.669897079467773
1745667475.4179475,-0.015273256227374077,-0.025369897484779358,0.3677550256252289,0.43429064750671387,0.7384451031684875,-9.90092658996582
1745667475.4180293,-0.025988632813096046,-0.02341708168387413,0.3649899363517761,0.32703790068626404,1.0383684635162354,-9.77589225769043
1745667475.4220715,-0.004260668996721506,-0.018587112426757812,0.3622617721557617,0.473233699798584,0.7816241383552551,-9.653895378112793
1745667475.455634,-0.01747145876288414,-0.023888949304819107,0.36309927701950073,0.28111836314201355,0.9635438919067383,-9.754339218139648
1745667475.4628186,-0.01332803349941969,-0.022159989923238754,0.3631739318370819,0.3856154978275299,0.6691603660583496,-9.878575325012207
1745667475.4664066,-0.011834472417831421,-0.026370704174041748,0.36351656913757324,0.5313688516616821,0.7932155132293701,-9.614961624145508
1745667475.4694872,-0.028625082224607468,-0.017662938684225082,0.3638041615486145,0.23066958785057068,0.7913535237312317,-9.832951545715332
1745667475.4999444,-0.020763549953699112,-0.029671963304281235,0.3636097311973572,0.5446335077285767,0.596476137638092,-9.825950622558594
1745667475.500046,-0.02663537487387657,-0.0204011220484972,0.36167559027671814,0.39681777358055115,1.009437918663025,-9.68591022491455
1745667475.5009277,-0.028155138716101646,-0.020869631320238113,0.36515486240386963,0.4113914370536804,0.5874221920967102,-9.757976531982422
1745667475.5039737,-0.021575454622507095,-0.029782122001051903,0.36158478260040283,0.25991901755332947,0.9103776812553406,-9.736857414245605
1745667475.5057077,-0.0247548408806324,-0.01603494957089424,0.36333709955215454,0.4429052770137787,0.7963106036186218,-9.724109649658203
1745667475.5446825,-0.01697133481502533,-0.02332080528140068,0.3645535707473755,0.42182445526123047,0.8655953407287598,-9.710119247436523
1745667475.5447402,-0.019514141604304314,-0.02272532507777214,0.36218851804733276,0.2600237727165222,0.9623815417289734,-9.872265815734863
1745667475.5527937,-0.008148156106472015,-0.023533236235380173,0.36051085591316223,0.32173341512680054,0.9561160802841187,-9.622614860534668
1745667475.5821345,-0.02522742748260498,-0.01873045787215233,0.35892996191978455,0.4173949360847473,0.7838565111160278,-9.862184524536133
1745667475.584096,-0.01257195882499218,-0.031119346618652344,0.3598807752132416,0.374839723110199,0.7327612638473511,-9.792102813720703
1745667475.588048,-0.009978223592042923,-0.016171634197235107,0.36017006635665894,0.42252200841903687,0.9979087114334106,-9.605791091918945
1745667475.593037,-0.03034924902021885,-0.025811633095145226,0.3606976866722107,0.38950449228286743,0.6256815791130066,-9.85075855255127
1745667475.59895,-0.0013902941718697548,-0.02727203071117401,0.36079150438308716,0.38508790731430054,0.9426628351211548,-9.764287948608398
1745667475.6260848,-0.02280752919614315,-0.01886143907904625,0.3629835546016693,0.5320237278938293,0.6746307015419006,-9.712736129760742
1745667475.6288538,-0.007899351418018341,-0.020787466317415237,0.36183100938796997,0.22230267524719238,0.8477188944816589,-9.806890487670898
1745667475.632256,-0.01679164730012417,-0.024722645059227943,0.36391210556030273,0.49290886521339417,0.8240152597427368,-9.612217903137207
1745667475.6339638,-0.01381761860102415,-0.028819989413022995,0.3610285818576813,0.41340288519859314,0.8159211874008179,-9.794767379760742
1745667475.6692436,-0.002770837629213929,-0.0160442553460598,0.3624595105648041,0.3797318935394287,0.9943891763687134,-9.927172660827637
1745667475.6716294,-0.022244710475206375,-0.028019586578011513,0.35971522331237793,0.34062954783439636,0.6565378308296204,-9.787724494934082
1745667475.674349,0.007405182812362909,-0.023483265191316605,0.3602938652038574,0.4126364588737488,0.921177864074707,-9.393234252929688
1745667475.676995,-0.03090648725628853,-0.02600122056901455,0.35862523317337036,0.48263925313949585,0.7129449844360352,-9.835668563842773
1745667475.6818445,-0.011063294485211372,-0.027396004647016525,0.35979166626930237,0.273682564496994,0.7871496081352234,-10.168400764465332
1745667475.7142642,-0.0067059872671961784,-0.020037401467561722,0.3617075979709625,0.5413767099380493,0.819087028503418,-9.563486099243164
1745667475.7191546,-0.010368935763835907,-0.01922931708395481,0.3575562834739685,0.2808994650840759,0.8000954389572144,-9.859823226928711
1745667475.7247317,0.0016303841257467866,-0.029662366956472397,0.35801056027412415,0.521083414554596,0.6238757967948914,-9.554372787475586
1745667475.7267303,-0.013384560123085976,-0.01717519201338291,0.3593648672103882,0.32451820373535156,0.9840195775032043,-9.683752059936523
1745667475.7548985,-0.012260319665074348,-0.024474456906318665,0.35656943917274475,0.46557456254959106,0.5556756258010864,-9.986252784729004
1745667475.7569752,-0.0018521789461374283,-0.028464147821068764,0.3581380844116211,0.31994083523750305,0.9890086054801941,-9.724800109863281
1745667475.7580361,-0.009235627949237823,-0.01578081026673317,0.358194500207901,0.4566437602043152,0.8040997385978699,-9.614771842956543
1745667475.760715,-0.0031979340128600597,-0.027585038915276527,0.35791629552841187,0.2745645046234131,0.8355568647384644,-9.762600898742676
1745667475.7973619,-0.001956287771463394,-0.02200518548488617,0.35621246695518494,0.39040008187294006,0.9316670298576355,-9.734844207763672
1745667475.800323,0.0015491668600589037,-0.024449964985251427,0.3578730523586273,0.49190831184387207,0.6734296083450317,-9.793732643127441
1745667475.8017232,0.0027665607631206512,-0.01740366965532303,0.35714957118034363,0.27246683835983276,0.9744880795478821,-9.764302253723145
1745667475.8039358,-0.007256509270519018,-0.027653079479932785,0.3592299520969391,0.49665871262550354,0.5194243788719177,-9.73740005493164
1745667475.805725,0.006789317820221186,-0.025572683662176132,0.35635828971862793,0.36867856979370117,0.9860765337944031,-9.589879989624023
1745667475.8405554,-0.014276484958827496,-0.01816725730895996,0.3552437424659729,0.3877568244934082,0.6928311586380005,-9.882769584655762
1745667475.843807,-0.004655816126614809,-0.030521616339683533,0.35542359948158264,0.35832127928733826,0.7927427291870117,-9.840673446655273
1745667475.8462496,-0.002204767195507884,-0.01627858728170395,0.35725536942481995,0.43614310026168823,0.9331871867179871,-9.544877052307129
1745667475.8483417,-0.01568559929728508,-0.023622840642929077,0.35500580072402954,0.32673412561416626,0.633844256401062,-9.696569442749023
1745667475.88555,0.005367203149944544,-0.02480161376297474,0.35692325234413147,0.26293107867240906,0.9178735017776489,-9.775311470031738
1745667475.8895724,-0.01421974878758192,-0.017500678077340126,0.35757511854171753,0.5294729471206665,0.632896363735199,-9.795051574707031
1745667475.8929355,0.004759569186717272,-0.018283657729625702,0.3557412028312683,0.31037038564682007,0.9506227374076843,-9.694473266601562
1745667475.9019809,-0.008816296234726906,-0.021657004952430725,0.35705503821372986,0.42918387055397034,0.721361517906189,-9.756726264953613
1745667475.902058,-0.005928202532231808,-0.02493957243859768,0.3539832830429077,0.36060208082199097,0.7506416440010071,-9.836753845214844
1745667475.929195,0.013118864968419075,-0.013386157341301441,0.3573891222476959,0.3580261170864105,0.8967760801315308,-9.668370246887207
1745667475.9292467,-0.017975274473428726,-0.018503274768590927,0.35512691736221313,0.41674867272377014,0.7918010950088501,-9.695762634277344
1745667475.9310124,0.0017539076507091522,-0.02294977940618992,0.35565686225891113,0.321303129196167,0.8186518549919128,-9.77933120727539
1745667475.933859,0.0005439789965748787,-0.018300961703062057,0.3576037287712097,0.5902104377746582,0.863744854927063,-9.748884201049805
1745667475.9709182,-0.0167949628084898,-0.016653956845402718,0.35406604409217834,0.215777188539505,0.7815225720405579,-9.892911911010742
1745667475.9720156,0.010455681011080742,-0.022752994671463966,0.3548055589199066,0.4828020930290222,0.7693807482719421,-9.60755729675293
1745667475.9799974,-0.01355348527431488,-0.022561069577932358,0.35725507140159607,0.43638935685157776,0.7974903583526611,-9.661272048950195
1745667475.982011,0.005544053856283426,-0.011297710239887238,0.3571263551712036,0.31031501293182373,0.7156096696853638,-9.919443130493164
1745667476.0124173,-0.0059925769455730915,-0.02483276277780533,0.35910964012145996,0.44084277749061584,0.8396124839782715,-9.682649612426758
1745667476.0149703,0.002199727576225996,-0.02125636115670204,0.3569893538951874,0.31100568175315857,0.8150938153266907,-9.717530250549316
1745667476.0183136,0.005698187742382288,-0.01571466401219368,0.3580057919025421,0.4674358367919922,0.8329569697380066,-9.788681030273438
1745667476.0234149,-0.012035980820655823,-0.022185565903782845,0.35493287444114685,0.24298223853111267,0.7711025476455688,-9.831245422363281
1745667476.025624,0.013142232783138752,-0.021679913625121117,0.3554041385650635,0.5030182003974915,0.7084941267967224,-9.583094596862793
1745667476.0590732,-0.023830844089388847,-0.01861489564180374,0.3559262156486511,0.324208527803421,0.8081221580505371,-9.809610366821289
1745667476.0621316,-0.004364726133644581,-0.018786456435918808,0.35610151290893555,0.3950696885585785,0.5816110372543335,-9.927817344665527
1745667476.0667238,0.00551283685490489,-0.018757734447717667,0.357971727848053,0.2723213732242584,0.9171018600463867,-9.778286933898926
1745667476.0700777,-0.005666584707796574,-0.014689343981444836,0.3570552170276642,0.4056410789489746,0.7273496389389038,-9.552078247070312
1745667476.0994737,0.0032060618977993727,-0.034728456288576126,0.35653698444366455,0.4090501368045807,0.7612098455429077,-9.608132362365723
1745667476.1011739,0.004836664535105228,-0.01968758925795555,0.3549952507019043,0.4343588948249817,0.9663686752319336,-9.970487594604492
1745667476.1029887,-0.0061171939596533775,-0.025870030745863914,0.35445287823677063,0.3686041235923767,0.6385908126831055,-10.036053657531738
1745667476.1052103,0.02016257494688034,-0.02360626496374607,0.35751956701278687,0.3249152600765228,0.9549925923347473,-9.449278831481934
1745667476.145118,-0.006035441067069769,-0.02409985288977623,0.3570294678211212,0.5002137422561646,0.602814793586731,-9.527299880981445
1745667476.1451676,0.008388206362724304,-0.024156035855412483,0.357832133769989,0.19140422344207764,0.783194363117218,-10.04301929473877
1745667476.1489305,0.0010276326211169362,-0.02191808447241783,0.3570789694786072,0.4890400469303131,0.7203747630119324,-9.805185317993164
1745667476.1525204,0.001086504547856748,-0.024948542937636375,0.35851943492889404,0.3778477907180786,0.7127580046653748,-9.578417778015137
1745667476.1841564,0.0070459782145917416,-0.01990269497036934,0.3586019277572632,0.42750057578086853,0.8443833589553833,-9.715789794921875
1745667476.1940432,-0.017587145790457726,-0.03004271723330021,0.35810407996177673,0.39348095655441284,0.5610356330871582,-9.994470596313477
1745667476.1941278,0.013439054600894451,-0.021046064794063568,0.3564707040786743,0.32118916511535645,0.8986123204231262,-9.649391174316406
1745667476.1942077,-0.02486286498606205,-0.021212991327047348,0.35925158858299255,0.3848405182361603,0.5944241285324097,-9.62618637084961
1745667476.194273,-0.007476660422980785,-0.02692640759050846,0.3570823073387146,0.28081002831459045,0.731181800365448,-9.822235107421875
1745667476.229365,-0.010656656697392464,-0.023142913356423378,0.35971102118492126,0.5780928134918213,0.7694447636604309,-9.720438957214355
1745667476.2323205,-0.017212102189660072,-0.018924163654446602,0.3597269058227539,0.26154229044914246,0.7970265746116638,-9.825610160827637
1745667476.2370949,0.002680453471839428,-0.023910414427518845,0.3589562773704529,0.39821717143058777,0.8510953783988953,-9.691304206848145
1745667476.240482,-0.019267553463578224,-0.026882514357566833,0.3598644435405731,0.45053085684776306,0.8054770231246948,-9.678468704223633
1745667476.2728367,0.010652855038642883,-0.01723908632993698,0.35923969745635986,0.3713456094264984,0.869809627532959,-9.792492866516113
1745667476.2790139,-0.022811612114310265,-0.02797042392194271,0.3611425757408142,0.2628709375858307,0.8937457203865051,-9.71894359588623
1745667476.2873893,0.0027366827707737684,-0.02132309600710869,0.3606594502925873,0.47109994292259216,0.8083368539810181,-9.759626388549805
1745667476.2875075,-0.023896466940641403,-0.020799150690436363,0.35765889286994934,0.28478315472602844,0.9123860597610474,-9.820812225341797
1745667476.3131745,-0.0026225592009723186,-0.02436063066124916,0.3588961958885193,0.3744616210460663,0.6357503533363342,-9.692275047302246
1745667476.316835,-0.0128480214625597,-0.02830568514764309,0.35877305269241333,0.4649394154548645,0.7937058210372925,-9.675603866577148
1745667476.319155,-0.021542172878980637,-0.015343387611210346,0.3570705056190491,0.24271872639656067,0.6822165846824646,-9.944796562194824
1745667476.321904,-0.011246077716350555,-0.03094320371747017,0.3596169948577881,0.49651557207107544,0.6441959738731384,-9.661162376403809
1745667476.323945,-0.025612514466047287,-0.0206549484282732,0.3603399395942688,0.350625604391098,0.8281726837158203,-9.619463920593262
1745667476.359277,-0.017599482089281082,-0.016468696296215057,0.3623073697090149,0.45119184255599976,0.5411034226417542,-9.855262756347656
1745667476.3634164,-0.027415569871664047,-0.029886851087212563,0.36017051339149475,0.3201214671134949,0.9081131219863892,-9.780266761779785
1745667476.368977,-0.014189103618264198,-0.020087208598852158,0.3603176176548004,0.4548385739326477,0.6901994943618774,-9.752280235290527
1745667476.37009,-0.027384817600250244,-0.021873917430639267,0.36129412055015564,0.35382524132728577,0.8847610354423523,-9.755762100219727
1745667476.4028199,-0.027621734887361526,-0.020167911425232887,0.35855311155319214,0.2521830201148987,0.8110265731811523,-9.76344108581543
1745667476.404645,-0.01228468306362629,-0.028084363788366318,0.3588768243789673,0.5386372208595276,0.750630259513855,-9.602360725402832
1745667476.4080153,-0.03180384635925293,-0.017567280679941177,0.3559989333152771,0.2670517563819885,0.9902229309082031,-9.886229515075684
1745667476.4125926,-0.019732076674699783,-0.02067602053284645,0.3584345579147339,0.3895997405052185,0.892228901386261,-9.717985153198242
1745667476.4441912,-0.03955228999257088,-0.03341098874807358,0.3561626076698303,0.37615054845809937,0.7460425496101379,-9.653291702270508
1745667476.4526951,-0.013596510514616966,-0.018205344676971436,0.35724011063575745,0.38176125288009644,0.8208953738212585,-9.763375282287598
1745667476.4528348,-0.046667132526636124,-0.025690773501992226,0.3573060929775238,0.3735108971595764,0.6896084547042847,-9.84588623046875
1745667476.4544764,-0.017872726544737816,-0.023963626474142075,0.3570386469364166,0.31123796105384827,0.8098796010017395,-9.638823509216309
1745667476.4847498,-0.03364189714193344,-0.02205280400812626,0.3563259243965149,0.5153337717056274,0.852164626121521,-9.623881340026855
1745667476.489014,-0.03810754790902138,-0.022271502763032913,0.3576114773750305,0.24495145678520203,0.8078606724739075,-9.967632293701172
1745667476.4914596,-0.012899903580546379,-0.027340739965438843,0.356171190738678,0.5434353351593018,0.8622606992721558,-9.706441879272461
1745667476.4937916,-0.03892093151807785,-0.022563263773918152,0.3555523753166199,0.3356972932815552,0.8635581135749817,-9.703989028930664
1745667476.4982305,-0.010231733322143555,-0.015866976231336594,0.3582031726837158,0.29801690578460693,0.762914776802063,-9.788810729980469
1745667476.5309818,-0.032970644533634186,-0.02877110242843628,0.35625192523002625,0.4245239794254303,0.872015118598938,-9.612910270690918
1745667476.5344071,-0.016112063080072403,-0.023165803402662277,0.35530948638916016,0.37720465660095215,0.7928336262702942,-9.778280258178711
1745667476.5400097,-0.0183640718460083,-0.02107573300600052,0.3566908538341522,0.4379730820655823,0.88848477602005,-9.910981178283691
1745667476.5406344,-0.03161109611392021,-0.02268580161035061,0.35456952452659607,0.21347828209400177,0.7679612040519714,-9.841012954711914
1745667476.5723612,-0.004887439776211977,-0.026184827089309692,0.3537158966064453,0.5273476839065552,0.7524689435958862,-9.386208534240723
1745667476.5743182,-0.04537898674607277,-0.024873808026313782,0.352949857711792,0.2768668234348297,0.828174889087677,-9.833796501159668
1745667476.576669,-0.02152171917259693,-0.02300107851624489,0.3524770140647888,0.41148248314857483,0.5967101454734802,-10.112908363342285
1745667476.5794857,-0.03191137686371803,-0.024390196427702904,0.3551602363586426,0.4495016038417816,0.8747843503952026,-9.56101131439209
1745667476.5810971,-0.034238532185554504,-0.01523472648113966,0.3565899729728699,0.27973657846450806,0.7791959047317505,-9.533129692077637
1745667476.617418,-0.028660740703344345,-0.03224834054708481,0.3528745472431183,0.4426088333129883,0.789730966091156,-9.798264503479004
1745667476.6181626,-0.028184056282043457,-0.013254215940833092,0.35675424337387085,0.4704923629760742,0.5726966857910156,-9.811807632446289
1745667476.6215222,-0.02231159247457981,-0.02151322178542614,0.3547850549221039,0.36317938566207886,1.0157374143600464,-9.674436569213867
1745667476.6581836,-0.027378087863326073,-0.027839571237564087,0.35430240631103516,0.4228965640068054,0.7847042083740234,-9.816466331481934
1745667476.660219,-0.018568648025393486,-0.02268531359732151,0.3551853895187378,0.4492253363132477,0.9054279327392578,-9.86571216583252
1745667476.6618605,-0.023281225934624672,-0.013070197775959969,0.35102683305740356,0.2340826541185379,1.060201644897461,-9.72508430480957
1745667476.6630032,-0.014316132292151451,-0.030267154797911644,0.3512365221977234,0.4630546569824219,0.627671480178833,-9.531076431274414
1745667476.6690066,-0.008035171777009964,-0.022600820288062096,0.3525248169898987,0.35703492164611816,1.1223394870758057,-9.691171646118164
1745667476.7037048,-0.01868000626564026,-0.019636616110801697,0.35355687141418457,0.3792729377746582,0.6464448571205139,-10.095139503479004
1745667476.7070992,0.0017989932093769312,-0.02588873729109764,0.35311761498451233,0.27006712555885315,0.95256108045578,-9.709512710571289
1745667476.711682,-0.0055683148093521595,-0.015560172498226166,0.3554757237434387,0.49779409170150757,0.8427109718322754,-9.40532112121582
1745667476.715085,-0.004100949503481388,-0.02463369444012642,0.35341471433639526,0.3399506211280823,0.724101722240448,-9.826021194458008
1745667476.7427495,0.00022962279035709798,-0.02077738754451275,0.3541724383831024,0.3162861168384552,0.9768282771110535,-9.922955513000488
1745667476.748,-0.008926622569561005,-0.023177245631814003,0.35185930132865906,0.47501882910728455,0.5951311588287354,-9.778051376342773
1745667476.7481935,-0.0013384709600359201,-0.015089082531630993,0.35217806696891785,0.281194269657135,0.955760657787323,-9.599703788757324
1745667476.7525249,-0.02374051883816719,-0.023900846019387245,0.35223478078842163,0.44508177042007446,0.5831453204154968,-9.729890823364258
1745667476.7868166,-0.007128317840397358,-0.028483659029006958,0.35031241178512573,0.387469083070755,0.9030531644821167,-9.798380851745605
1745667476.7929986,-0.005106479860842228,-0.021125545725226402,0.34904417395591736,0.323670357465744,0.8316881060600281,-9.935664176940918
1745667476.7966194,0.0020043838303536177,-0.01871359907090664,0.3480444550514221,0.47676095366477966,0.7712873220443726,-9.68122673034668
1745667476.8031178,-0.01960243657231331,-0.019252609461545944,0.34831181168556213,0.21577270328998566,0.8518626093864441,-9.654831886291504
1745667476.8297052,-2.2938847905606963e-05,-0.026563648134469986,0.3485121726989746,0.5148100852966309,0.5913833379745483,-9.69051456451416
1745667476.831449,-0.0199630968272686,-0.021479444578289986,0.34973806142807007,0.34902423620224,0.931086540222168,-9.850729942321777
1745667476.8330786,-0.016955044120550156,-0.015656881034374237,0.34933391213417053,0.35016709566116333,0.6410455107688904,-9.893836975097656
1745667476.8361197,-0.011097325943410397,-0.028572920709848404,0.35066384077072144,0.4574570059776306,0.8993266820907593,-9.505359649658203
1745667476.8812907,-0.01436612568795681,-0.01597519777715206,0.3494257926940918,0.349862277507782,0.9456413984298706,-9.750076293945312
1745667476.883369,-0.005429414566606283,-0.022253993898630142,0.35043489933013916,0.3787996470928192,0.7614229321479797,-9.979133605957031
1745667476.8861053,-0.0031041684560477734,-0.021976511925458908,0.3493258059024811,0.2683928906917572,1.0701982975006104,-9.63340950012207
1745667476.8898335,0.005610632710158825,-0.02145880088210106,0.34976696968078613,0.4931148886680603,0.6849966049194336,-9.563957214355469
1745667476.8935828,0.001570683321915567,-0.021016757935285568,0.34873172640800476,0.25796443223953247,1.0234628915786743,-9.887299537658691
1745667476.9166374,0.0006354519864544272,-0.0202470850199461,0.34804001450538635,0.41553544998168945,0.6412482857704163,-9.961082458496094
1745667476.9196727,0.010527909733355045,-0.024828266352415085,0.3468293249607086,0.40219610929489136,0.8479715585708618,-9.526278495788574
1745667476.9203146,-0.009904245845973492,-0.014872757717967033,0.34821203351020813,0.26610106229782104,0.7855380773544312,-9.679861068725586
1745667476.922358,-0.004992719739675522,-0.030331198126077652,0.3474298119544983,0.4851451516151428,0.5455931425094604,-9.904272079467773
1745667476.9594631,-0.004193160217255354,-0.01705462671816349,0.34881624579429626,0.38852551579475403,0.9221833348274231,-9.7547025680542
1745667476.9643204,-0.015748407691717148,-0.0190323106944561,0.34988459944725037,0.4143117070198059,0.5456393957138062,-9.757270812988281
1745667476.9676635,-0.007418050430715084,-0.024829493835568428,0.350300669670105,0.2312043011188507,0.9178430438041687,-9.6689453125
1745667476.9693885,-0.01895974576473236,-0.01740661822259426,0.3520303964614868,0.5293598771095276,0.7106521725654602,-9.663960456848145
1745667476.9721067,-0.012542170472443104,-0.020506417378783226,0.35179510712623596,0.4260949194431305,0.6147295236587524,-9.963475227355957
1745667477.0033445,0.006981401238590479,-0.014928827062249184,0.3503831624984741,0.32178646326065063,0.9760729670524597,-9.709795951843262
1745667477.0070188,-0.018165376037359238,-0.031251877546310425,0.35110601782798767,0.4532139301300049,0.6367090940475464,-9.638646125793457
1745667477.0097547,0.006283704191446304,-0.022030984982848167,0.3509448170661926,0.3214813470840454,0.9475705027580261,-9.817780494689941
1745667477.018856,-0.014645183458924294,-0.018517494201660156,0.34793591499328613,0.40894967317581177,0.815769374370575,-9.865166664123535
1745667477.0474863,-0.000808009528554976,-0.029498714953660965,0.34726768732070923,0.25427788496017456,0.7395020723342896,-9.670690536499023
1745667477.0489464,0.0040019191801548,-0.019785253331065178,0.3509053885936737,0.5013387799263,0.8791414499282837,-9.557440757751465
1745667477.0510652,-0.01829235441982746,-0.02263837493956089,0.34846726059913635,0.32408711314201355,0.662449061870575,-9.943967819213867
1745667477.0522847,0.01246139220893383,-0.02188345044851303,0.3502667546272278,0.38142234086990356,0.8130351305007935,-9.800154685974121
1745667477.055219,-0.012638786807656288,-0.024636978283524513,0.3510184586048126,0.517781674861908,0.7152090072631836,-9.582218170166016
1745667477.092111,0.0029692703392356634,-0.013806760311126709,0.35367026925086975,0.27982276678085327,0.8114725351333618,-9.772923469543457
1745667477.0960746,-0.0047035617753863335,-0.029702182859182358,0.35162466764450073,0.5078622102737427,0.8176209330558777,-9.753022193908691
1745667477.1004753,-0.0032298050355166197,-0.02540544606745243,0.34895622730255127,0.32457417249679565,0.8746116757392883,-9.882559776306152
1745667477.1041517,0.007149251643568277,-0.013256989419460297,0.3494139611721039,0.419219434261322,0.8624675869941711,-9.740583419799805
1745667477.1327882,-0.018051808699965477,-0.02554340660572052,0.3485613465309143,0.2394176721572876,0.7287746071815491,-9.657092094421387
1745667477.1375408,-0.011097626760601997,-0.01929633319377899,0.35149168968200684,0.4618629813194275,0.6031521558761597,-9.775714874267578
1745667477.1406295,-0.0027797080110758543,-0.022542690858244896,0.3523208498954773,0.252020925283432,1.082340955734253,-9.766656875610352
1745667477.1424332,-0.0053734914399683475,-0.02968042530119419,0.3508929908275604,0.493511438369751,0.6671728491783142,-9.841140747070312
1745667477.1834824,0.0009457821724936366,-0.022216441109776497,0.3519844114780426,0.3849499821662903,0.880974292755127,-9.72081470489502
1745667477.186365,-0.015507993288338184,-0.016745662316679955,0.3484380841255188,0.3809991180896759,0.7948312163352966,-9.703569412231445
1745667477.1878986,-0.0046198321506381035,-0.03519926592707634,0.3490072190761566,0.4577661454677582,0.5943962335586548,-9.725651741027832
1745667477.18982,-0.012019366025924683,-0.01769571378827095,0.34905877709388733,0.32138875126838684,0.9630926847457886,-9.799504280090332
1745667477.2176259,-0.024406900629401207,-0.02366166189312935,0.3499234616756439,0.4135230481624603,0.5011364817619324,-9.870512008666992
1745667477.2218602,-0.004255019128322601,-0.02934160828590393,0.3484986424446106,0.3286623954772949,0.9897850155830383,-9.566764831542969
1745667477.22642,-0.017901543527841568,-0.02221599780023098,0.34986478090286255,0.48716896772384644,0.7179026007652283,-9.749923706054688
1745667477.2282956,-0.01232169009745121,-0.0237746424973011,0.35036805272102356,0.20934180915355682,0.7902558445930481,-9.948667526245117
1745667477.233029,-0.004351848736405373,-0.021443527191877365,0.34820160269737244,0.40503978729248047,0.8776450157165527,-9.5303316116333
1745667477.2636797,-0.013743877410888672,-0.031810007989406586,0.35009071230888367,0.45926961302757263,0.624444842338562,-9.635786056518555
1745667477.264983,-0.005722263362258673,-0.01846648007631302,0.34862369298934937,0.30127614736557007,0.9375783205032349,-9.993887901306152
1745667477.267604,-0.025412622839212418,-0.025466296821832657,0.3475496172904968,0.3846815228462219,0.49380141496658325,-9.879802703857422
1745667477.2776856,-0.0025537959299981594,-0.02368871308863163,0.34897804260253906,0.3316512107849121,0.9006311297416687,-9.340662956237793
1745667477.3050752,-0.03723839670419693,-0.022476721554994583,0.34734153747558594,0.4697805345058441,0.6694778203964233,-9.691276550292969
1745667477.3075507,-0.024488870054483414,-0.032302819192409515,0.34725216031074524,0.32134810090065,0.714270293712616,-10.15868854522705
1745667477.3089967,-0.017226481810212135,-0.014818268828094006,0.3471207618713379,0.4771595895290375,0.8274513483047485,-9.698127746582031
1745667477.3129659,-0.0382438525557518,-0.02145533636212349,0.3494691848754883,0.30772608518600464,0.6702765226364136,-9.496874809265137
1745667477.350021,-0.01793311908841133,-0.027864882722496986,0.35193443298339844,0.4784870743751526,0.704991340637207,-9.767205238342285
1745667477.3527677,-0.03135848790407181,-0.01520343404263258,0.35135287046432495,0.2773297429084778,0.7581738233566284,-9.685741424560547
1745667477.356086,-0.01189641933888197,-0.020643090829253197,0.3517841398715973,0.4716530442237854,0.8395198583602905,-9.587066650390625
1745667477.359225,-0.03698942810297012,-0.03153853863477707,0.3509308695793152,0.282191663980484,0.8114715814590454,-9.947628021240234
1745667477.3891125,-0.006790021900087595,-0.01888008788228035,0.34981751441955566,0.3994693160057068,0.8175967931747437,-9.906402587890625
1745667477.3909159,-0.03152496740221977,-0.01802167482674122,0.34859150648117065,0.3755425810813904,0.9029062390327454,-9.558332443237305
1745667477.392271,-0.018477439880371094,-0.02660040557384491,0.3494266867637634,0.2727998197078705,0.7743158340454102,-9.596654891967773
1745667477.3951123,-0.016692213714122772,-0.027121663093566895,0.34787026047706604,0.5819368958473206,0.7743659615516663,-9.83452320098877
1745667477.3969083,-0.03207874298095703,-0.017357349395751953,0.3483414649963379,0.2182157039642334,0.8292010426521301,-10.032092094421387
1745667477.4426026,-0.010663467459380627,-0.02313053607940674,0.35146206617355347,0.4395979940891266,0.6937292218208313,-9.573779106140137
1745667477.442666,-0.027685770764946938,-0.026987412944436073,0.3521636128425598,0.4106713831424713,0.8672689199447632,-9.480508804321289
1745667477.4427044,-0.010106788948178291,-0.017052141949534416,0.3526548743247986,0.3816795349121094,0.720699667930603,-9.962202072143555
1745667477.4457796,-0.020458083599805832,-0.02610437013208866,0.3508433699607849,0.3437795042991638,0.921798586845398,-9.878301620483398
1745667477.4758577,-0.01264864206314087,-0.021573591977357864,0.3492899537086487,0.3137724995613098,0.828362762928009,-9.674076080322266
1745667477.4813209,-0.007762673310935497,-0.023961754515767097,0.3493068814277649,0.4890836179256439,0.7659863233566284,-9.612983703613281
1745667477.484332,-0.030226057395339012,-0.021830212324857712,0.3485964238643646,0.19379234313964844,0.7982602715492249,-9.90764331817627
1745667477.4874866,-0.01537875272333622,-0.029789919033646584,0.349193274974823,0.24944360554218292,0.8303768038749695,-9.840112686157227
1745667477.49015,-0.009786880575120449,-0.02227991446852684,0.35109835863113403,0.3858737349510193,0.8674715757369995,-9.598845481872559
1745667477.5204403,-0.025906343013048172,-0.025078466162085533,0.35225170850753784,0.37195098400115967,0.6086389422416687,-9.735508918762207
1745667477.5227656,-0.004363365937024355,-0.021911608055233955,0.3518083989620209,0.3109017014503479,1.0489072799682617,-9.772237777709961
1745667477.5259662,-0.024426233023405075,-0.03227706253528595,0.34829702973365784,0.4705066680908203,0.6290739178657532,-9.87438678741455
1745667477.5284805,-0.0020566005259752274,-0.0189251359552145,0.35025179386138916,0.24440345168113708,0.9028857350349426,-9.74229907989502
1745667477.5639124,-0.02993035316467285,-0.02013249322772026,0.34803393483161926,0.40813979506492615,0.7271653413772583,-9.563005447387695
1745667477.5671818,-0.02206380106508732,-0.033447664231061935,0.34772783517837524,0.35005947947502136,0.6374751329421997,-9.67193603515625
1745667477.567241,-0.022588571533560753,-0.02009613998234272,0.3495104908943176,0.46508827805519104,0.8430019617080688,-9.837339401245117
1745667477.56917,-0.045124176889657974,-0.02428535372018814,0.3498489260673523,0.36858028173446655,0.6617757081985474,-9.973052024841309
1745667477.6076589,-0.014900836162269115,-0.026858553290367126,0.3503232002258301,0.3515841066837311,0.9502719044685364,-9.557077407836914
1745667477.6078017,-0.03507130593061447,-0.025745421648025513,0.3499454855918884,0.5061235427856445,0.8118557929992676,-9.56553840637207
1745667477.608429,-0.020809369161725044,-0.021427934989333153,0.3483581840991974,0.1805156022310257,0.942360520362854,-9.984030723571777
1745667477.6103573,-0.017779286950826645,-0.02784159779548645,0.3490457534790039,0.47363871335983276,0.867526650428772,-9.701147079467773
1745667477.6111145,-0.01553921215236187,-0.02825804613530636,0.34984666109085083,0.2803839147090912,0.8331015706062317,-9.64615249633789
1745667477.6478875,-0.00223348056897521,-0.01797076128423214,0.3514138162136078,0.41919413208961487,0.9143699407577515,-9.761491775512695
1745667477.650053,-0.025554940104484558,-0.030023882165551186,0.3497534692287445,0.3228547275066376,0.6906077861785889,-9.889856338500977
1745667477.6519225,0.009115952998399734,-0.02188374288380146,0.3506042957305908,0.41707944869995117,0.9374777674674988,-9.570197105407715
1745667477.6529756,-0.030767440795898438,-0.027221117168664932,0.34994539618492126,0.41574424505233765,0.7141430974006653,-9.752176284790039
1745667477.690573,-0.013272522017359734,-0.02627585455775261,0.34812310338020325,0.28010717034339905,0.7325066924095154,-9.96497631072998
1745667477.6953125,0.06350073963403702,-0.028788503259420395,0.3156883120536804,-0.12981392443180084,0.430806964635849,-9.777975082397461
1745667477.6999166,0.014823591336607933,-0.028116483241319656,0.31406718492507935,-0.1310499608516693,0.46264585852622986,-9.619207382202148
1745667477.7034843,0.023456385359168053,-0.04269248992204666,0.3155227303504944,0.10667230188846588,0.0899338573217392,-9.64163875579834
1745667477.7355847,0.004991445690393448,-0.03643432632088661,0.3145377039909363,0.3633299469947815,0.29551583528518677,-9.886886596679688
1745667477.7382624,-0.03364856168627739,-0.03121861442923546,0.31299129128456116,0.018570885062217712,0.38270559906959534,-10.235928535461426
1745667477.7396872,-0.040486644953489304,-0.04540853574872017,0.3071752190589905,0.30594491958618164,0.3500667214393616,-9.566516876220703
1745667477.7428126,-0.0576033815741539,-0.04175573214888573,0.3032795786857605,0.11801464855670929,0.7471379041671753,-9.392352104187012
1745667477.7767403,-0.07746560871601105,-0.045097511261701584,0.29592692852020264,0.0287048127502203,0.9397590756416321,-9.953944206237793
1745667477.779098,-0.07146064192056656,-0.055560607463121414,0.28938722610473633,0.0825604647397995,0.9650670886039734,-10.068633079528809
1745667477.7812266,-0.021838180720806122,-0.03787217289209366,0.2864987850189209,0.08648330718278885,1.4953160285949707,-9.488200187683105
1745667477.7825058,-0.040808457881212234,-0.05183252692222595,0.2817860245704651,0.10717282444238663,1.182461142539978,-9.66563606262207
1745667477.7877653,0.02486223727464676,-0.06172047182917595,0.28028199076652527,0.13283030688762665,1.3321945667266846,-9.948060989379883
1745667477.8217218,0.05155334621667862,-0.044124800711870193,0.279697448015213,0.2725425660610199,1.1869264841079712,-9.881996154785156
1745667477.823209,0.0538177564740181,-0.04841502755880356,0.2814628481864929,-0.09550759941339493,1.0749577283859253,-9.76982307434082
1745667477.8249047,0.0968339666724205,-0.05807846784591675,0.2825479805469513,0.162226602435112,0.7962474822998047,-9.482938766479492
1745667477.8637416,0.029580865055322647,-0.03794719651341438,0.16782096028327942,0.3526899814605713,0.06374739110469818,-9.551314353942871
1745667477.8665152,0.048800159245729446,-0.0424325130879879,0.16592326760292053,0.06810744851827621,1.1218321323394775,-9.205497741699219
1745667477.8697307,0.01336051058024168,-0.04917386546730995,0.15418259799480438,0.25338441133499146,0.7874568700790405,-10.180587768554688
1745667477.8720045,0.07290248572826385,-0.038234882056713104,0.1407567262649536,0.20170173048973083,1.3429949283599854,-10.232708930969238
1745667477.8748472,0.07480545341968536,-0.01736348494887352,0.13113084435462952,-0.0971156507730484,1.3453432321548462,-9.585189819335938
1745667477.90823,0.1166582852602005,-0.027995353564620018,0.11736883223056793,0.4334782660007477,1.193644404411316,-8.793665885925293
1745667477.9118276,0.15884357690811157,-0.027552291750907898,0.11340943723917007,0.7384517788887024,1.0130586624145508,-9.835784912109375
1745667477.9145715,0.1488977074623108,-0.0176035575568676,0.11127959191799164,0.6713709235191345,0.45290738344192505,-10.990249633789062
1745667477.9183486,0.1906961351633072,-0.008320001885294914,0.11171920597553253,0.34349921345710754,0.6254996657371521,-9.979289054870605
1745667477.9531384,0.1571844518184662,-0.01092088595032692,0.10577858984470367,0.4221736788749695,0.2152111977338791,-8.812084197998047
1745667477.9568,0.16283632814884186,-0.007311087101697922,0.09947164356708527,0.33563560247421265,0.5738223791122437,-9.370356559753418
1745667477.9602559,0.11867636442184448,-0.010457497090101242,0.08357436954975128,0.27949196100234985,0.6790062189102173,-10.619729042053223
1745667477.9631028,0.13239285349845886,0.005633790977299213,0.06690174341201782,0.1464746594429016,0.5027840733528137,-10.196866989135742
1745667477.9662714,0.12158439308404922,0.013396285474300385,0.05858495086431503,0.3359428942203522,0.6818229556083679,-8.993217468261719
1745667477.9941633,0.08539792895317078,-0.004426322411745787,0.052661407738924026,0.5163605809211731,0.12935559451580048,-9.53747272491455
1745667477.9970205,0.12375037372112274,0.001389582292176783,0.05544538050889969,0.36821481585502625,0.6209682822227478,-10.5650053024292
1745667478.0092664,0.10426387935876846,0.02204868197441101,0.05322791263461113,0.35971009731292725,0.3942224979400635,-10.206613540649414
1745667478.0094137,0.15592245757579803,0.02408647909760475,0.053115833550691605,0.20403513312339783,1.0478795766830444,-8.973143577575684
1745667478.035055,0.1600184440612793,0.0038237073458731174,0.0484410896897316,0.5066975355148315,0.8553526997566223,-9.326833724975586
1745667478.0379047,0.19843769073486328,0.018051257357001305,0.03677438199520111,0.2445179671049118,1.1857459545135498,-10.677406311035156
1745667478.0387797,0.2067113220691681,0.044855277985334396,-0.028683984652161598,0.35501158237457275,0.4685543179512024,-10.181595802307129
1745667478.043515,0.19723239541053772,0.051324762403964996,-0.032832950353622437,0.5607277750968933,0.19877497851848602,-10.234146118164062
1745667478.0451493,0.18987365067005157,0.04928163066506386,-0.03573175147175789,0.4151759743690491,0.2867562174797058,-9.536433219909668
1745667478.0824132,0.1992250680923462,0.04182171821594238,-0.03843891993165016,0.6099213361740112,0.2169855535030365,-9.364431381225586
1745667478.084727,0.18551413714885712,0.03524693474173546,-0.041881974786520004,0.4594702124595642,0.4638741612434387,-10.047601699829102
1745667478.0884883,0.20304758846759796,0.056021202355623245,-0.04937421903014183,0.43639034032821655,0.37335237860679626,-10.171566009521484
1745667478.1024559,0.20516972243785858,0.04813463240861893,-0.05329697206616402,0.26487594842910767,0.636688232421875,-9.413354873657227
1745667478.1215475,0.20786070823669434,0.04941027611494064,-0.05902748182415962,0.16699007153511047,0.4858868718147278,-9.340913772583008
1745667478.1241808,0.21859364211559296,0.043110307306051254,-0.06248091533780098,0.3341328203678131,0.32244712114334106,-9.956225395202637
1745667478.127135,0.23448505997657776,0.05313755199313164,-0.06830134242773056,0.2827375531196594,0.33019670844078064,-10.161049842834473
1745667478.1276913,0.23178310692310333,0.055697251111269,-0.06837046891450882,0.541685163974762,0.0481940321624279,-9.612619400024414
1745667478.1640623,0.21748483180999756,0.04662177339196205,-0.0725359097123146,0.40243321657180786,0.07925517112016678,-9.409830093383789
1745667478.1646807,0.22428202629089355,0.052085030823946,-0.07395994663238525,0.5717048645019531,-0.15409119427204132,-9.686712265014648
1745667478.1657548,0.17361362278461456,0.05158379673957825,-0.07619933038949966,0.45897340774536133,-0.03503148630261421,-10.067239761352539
1745667478.1741614,0.1955033540725708,0.05408912152051926,-0.08250804245471954,0.4094437062740326,-0.044517163187265396,-9.896345138549805
1745667478.1742775,0.17803600430488586,0.044657547026872635,-0.08722889423370361,0.4446814954280853,0.24559302628040314,-9.433272361755371
1745667478.2110977,0.1693125069141388,0.0145650003105402,-0.1575251817703247,0.3902485966682434,-0.1073647290468216,-9.61500072479248
1745667478.215747,0.17605459690093994,0.016979560256004333,-0.159664124250412,0.4792007505893707,-0.22188611328601837,-9.96737289428711
1745667478.2193508,0.16371913254261017,0.010623539797961712,-0.164045050740242,0.34738269448280334,-0.22184188663959503,-9.937349319458008
1745667478.2220256,0.17631465196609497,0.017730526626110077,-0.16578462719917297,0.4246481955051422,-0.12991908192634583,-9.498284339904785
1745667478.2521782,0.1491422802209854,0.005679142661392689,-0.16857875883579254,0.4972316324710846,-0.48197364807128906,-9.605652809143066
1745667478.2537005,0.17372658848762512,0.00963987223803997,-0.17097541689872742,0.4709334373474121,-0.09909074008464813,-9.83858585357666
1745667478.254268,0.1299268752336502,0.010124745778739452,-0.1719152182340622,0.6156592965126038,-0.3424000144004822,-9.891971588134766
1745667478.256465,0.1569257527589798,0.011769498698413372,-0.1731966733932495,0.3276636600494385,-0.21247191727161407,-9.65625
1745667478.2938273,0.1470155566930771,0.003437236649915576,-0.1764139086008072,0.5600016713142395,-0.04958546906709671,-9.496450424194336
1745667478.2973258,0.14222115278244019,0.0018367606680840254,-0.17736667394638062,0.39835089445114136,-0.2636764347553253,-9.995274543762207
1745667478.2999814,0.1722574234008789,0.004738972056657076,-0.18136243522167206,0.44396448135375977,0.03257935121655464,-9.85208511352539
1745667478.3055966,0.15220434963703156,-0.0004008445830550045,-0.18177931010723114,0.44103294610977173,-0.16676822304725647,-9.575831413269043
1745667478.3101351,0.1711486130952835,0.005549680907279253,-0.18531426787376404,0.3914307653903961,-0.08115296065807343,-9.559856414794922
1745667478.3381054,0.15607590973377228,-0.005426411051303148,-0.1869499236345291,0.5786536335945129,-0.3794308602809906,-9.827808380126953
1745667478.340332,0.17590156197547913,0.0005498065729625523,-0.18750008940696716,0.3973793387413025,-0.13325802981853485,-9.9551362991333
1745667478.3473446,0.14890655875205994,0.000844003923702985,-0.18973711133003235,0.4834578037261963,-0.5523891448974609,-9.832669258117676
1745667478.3474038,0.17065724730491638,-0.008562776260077953,-0.19009104371070862,0.3688800632953644,-0.24630531668663025,-9.531880378723145
1745667478.3805966,0.14423787593841553,-0.005119726061820984,-0.1925785094499588,0.5585820078849792,-0.25630632042884827,-9.629042625427246
1745667478.3855016,0.14087608456611633,-0.006915741600096226,-0.19654682278633118,0.43907418847084045,-0.5035233497619629,-9.980035781860352
1745667478.397063,0.15935051441192627,-0.0031149908900260925,-0.20010724663734436,0.40390175580978394,-0.03791220858693123,-9.704076766967773
1745667478.3971596,0.14975802600383759,-0.015610803849995136,-0.21743884682655334,0.35305553674697876,-0.1729717254638672,-9.898335456848145
1745667478.4225028,0.12631964683532715,-0.012710658833384514,-0.21814994513988495,0.5727379322052002,-0.5709785223007202,-9.954635620117188
1745667478.423708,0.1331610530614853,-0.019883934408426285,-0.21801480650901794,0.3955908417701721,-0.39265966415405273,-9.76171588897705
1745667478.4262433,0.1350974291563034,-0.0178576298058033,-0.2189880907535553,0.47206467390060425,-0.4664420187473297,-9.675684928894043
1745667478.4291902,0.12484617531299591,-0.025842338800430298,-0.21988901495933533,0.43286997079849243,-0.5514458417892456,-9.858583450317383
1745667478.4681783,0.1241842657327652,-0.01598154567182064,-0.22193053364753723,0.3161681592464447,-0.309536874294281,-9.846515655517578
1745667478.4701507,0.12935811281204224,-0.022784773260354996,-0.2215741127729416,0.4753909111022949,-0.642285943031311,-9.612960815429688
1745667478.4729352,0.11501060426235199,-0.018641652539372444,-0.2250782996416092,0.30550044775009155,-0.17363445460796356,-9.63975715637207
1745667478.4753585,0.11847208440303802,-0.021760694682598114,-0.2264476716518402,0.5381487607955933,-0.732275128364563,-10.03569221496582
1745667478.4771235,0.1310340166091919,-0.02540694549679756,-0.2253444492816925,0.3576444089412689,-0.20270231366157532,-9.895174980163574
1745667478.5109968,0.11042501032352448,-0.01744764856994152,-0.22997434437274933,0.4953092932701111,-0.5308917164802551,-9.703963279724121
1745667478.5127318,0.13289973139762878,-0.026118630543351173,-0.2281237095594406,0.45616284012794495,-0.4693446159362793,-9.603410720825195
1745667478.5150478,0.11565972864627838,-0.02107563428580761,-0.22971172630786896,0.43713778257369995,-0.41774576902389526,-9.770830154418945
1745667478.5171528,0.11910046637058258,-0.02250811830163002,-0.2299598902463913,0.5271397829055786,-0.5756286382675171,-9.952604293823242
1745667478.5504313,0.1218791976571083,-0.0231997761875391,-0.2315804660320282,0.2513427734375,-0.2905372083187103,-9.869140625
1745667478.5608575,0.12288880348205566,-0.022241372615098953,-0.2303222119808197,0.47085753083229065,-0.5325199961662292,-9.698531150817871
1745667478.560975,0.09209708124399185,-0.012565826997160912,-0.25463348627090454,0.33881792426109314,-0.6231094002723694,-9.909069061279297
1745667478.5610352,0.09949073940515518,-0.017151113599538803,-0.25572869181632996,0.4336759150028229,-0.45648080110549927,-9.679387092590332
1745667478.5610938,0.08702343702316284,-0.015431283041834831,-0.2564298212528229,0.3472791314125061,-0.6563183665275574,-9.734254837036133
1745667478.5954933,0.10050036758184433,-0.020204083994030952,-0.25555121898651123,0.5415089130401611,-0.7626882791519165,-9.819768905639648
1745667478.5991213,0.08324459195137024,-0.020952874794602394,-0.255088746547699,0.3453311622142792,-0.6845071911811829,-9.946803092956543
1745667478.6001892,0.09195402264595032,-0.011211516335606575,-0.2530231177806854,0.4147565960884094,-0.7735384106636047,-9.773153305053711
1745667478.6028092,0.06986187398433685,-0.017975367605686188,-0.25545841455459595,0.4163602292537689,-0.6433489322662354,-9.565313339233398
1745667478.6391153,0.0961330384016037,-0.015034290961921215,-0.25503435730934143,0.40342703461647034,-0.6503528356552124,-9.664584159851074
1745667478.6408565,0.06300020217895508,-0.016944076865911484,-0.25937744975090027,0.48596492409706116,-0.5911517143249512,-9.878334045410156
1745667478.6431854,0.08378399163484573,-0.010551892220973969,-0.2588807940483093,0.2883460521697998,-0.7154347896575928,-10.023221969604492
1745667478.6447024,0.08971550315618515,-0.016433941200375557,-0.2602035105228424,0.4510536193847656,-0.5684574842453003,-9.570810317993164
1745667478.681542,0.06297226250171661,-0.01678575575351715,-0.25907111167907715,0.3472369313240051,-0.7262991666793823,-9.647271156311035
1745667478.684218,0.09778541326522827,-0.01174906175583601,-0.25834619998931885,0.507392406463623,-0.693494439125061,-9.801268577575684
1745667478.6864247,0.06295215338468552,-0.015448939986526966,-0.25934261083602905,0.4461836814880371,-0.7259565591812134,-9.860772132873535
1745667478.6880238,0.09003692120313644,-0.00788312777876854,-0.25727638602256775,0.4151054322719574,-0.6691952347755432,-9.732284545898438
1745667478.6931791,0.06767319142818451,-0.01999209262430668,-0.2597350776195526,0.5184686779975891,-0.7717522978782654,-9.721086502075195
1745667478.7261193,0.08001186698675156,-0.015059126541018486,-0.25876688957214355,0.30632394552230835,-0.6867237687110901,-9.952031135559082
1745667478.7308989,0.06666000932455063,-0.015392238274216652,-0.2595807909965515,0.46473193168640137,-0.6237094402313232,-9.743560791015625
1745667478.7343643,0.07178318500518799,-0.014743516221642494,-0.2627447247505188,0.2674684524536133,-0.8189862370491028,-9.61943531036377
1745667478.7379475,0.07438094913959503,-0.012116877362132072,-0.2609226107597351,0.5112632513046265,-0.5247008204460144,-9.528951644897461
1745667478.7697651,0.08214135468006134,-0.008506289683282375,-0.26407450437545776,0.3367680013179779,-0.5756677389144897,-9.536465644836426
1745667478.7724628,0.04005251079797745,-0.012187639251351357,-0.2659754753112793,0.6334066390991211,-0.9310436248779297,-9.614465713500977
1745667478.7771327,0.07263775169849396,-0.009031503461301327,-0.263190358877182,0.3121514916419983,-0.7397262454032898,-9.935831069946289
1745667478.777188,0.058822572231292725,-0.008634469471871853,-0.26293283700942993,0.44701051712036133,-0.5653912425041199,-9.85234260559082
1745667478.812757,0.06722823530435562,-0.01063518412411213,-0.26461249589920044,0.3163084089756012,-0.7017886638641357,-9.685409545898438
1745667478.8150775,0.07819700986146927,-0.008840804919600487,-0.26506704092025757,0.41298380494117737,-0.5631418228149414,-9.546442985534668
1745667478.818394,0.061823129653930664,-0.020453426986932755,-0.2692061960697174,0.5210602879524231,-0.8154932260513306,-9.818275451660156
1745667478.8212147,0.0691220760345459,-0.009032301604747772,-0.2681177854537964,0.3608294129371643,-0.8255090713500977,-9.976305961608887
1745667478.8533607,0.05096228048205376,-0.010816337540745735,-0.2682623863220215,0.5172358751296997,-0.9725649952888489,-9.676165580749512
1745667478.856292,0.06396658718585968,-0.011571012437343597,-0.26212388277053833,0.3945408761501312,-0.6871487498283386,-9.436288833618164
1745667478.857431,0.03481333330273628,-0.009948797523975372,-0.2662087082862854,0.4923049807548523,-0.9066759347915649,-9.837470054626465
1745667478.8588583,0.06749174743890762,-0.015552671626210213,-0.26599615812301636,0.36289793252944946,-0.6633039712905884,-9.9661865234375
1745667478.898136,0.04843061417341232,-0.006581088062375784,-0.26869651675224304,0.4393933415412903,-0.6107974648475647,-9.624859809875488
1745667478.9017208,0.04898913949728012,-0.013245518319308758,-0.26846301555633545,0.39688387513160706,-0.8613203167915344,-9.55737018585205
1745667478.9041853,0.06481505185365677,-0.012058514170348644,-0.2718743681907654,0.29822608828544617,-0.5782211422920227,-9.723926544189453
1745667478.909118,0.021955257281661034,-0.020181894302368164,-0.271648645401001,0.36190828680992126,-0.6715623736381531,-9.618037223815918
1745667478.9388337,0.020048659294843674,-0.017178233712911606,-0.272063285112381,0.4122517704963684,-1.0226469039916992,-9.670982360839844
1745667478.942329,0.033958613872528076,-0.02464609034359455,-0.27118027210235596,0.5118201971054077,-0.5746231079101562,-9.659205436706543
1745667478.9465892,0.01165022887289524,-0.01793089136481285,-0.27286025881767273,0.469451367855072,-0.8726924657821655,-9.965861320495605
1745667478.949697,0.03441167622804642,-0.0166209414601326,-0.27105650305747986,0.490339457988739,-0.8901668787002563,-9.750791549682617
1745667478.9516127,0.01793324016034603,-0.024409204721450806,-0.27077269554138184,0.3094838261604309,-0.6778448224067688,-9.635529518127441
1745667478.9844697,0.02161940559744835,-0.018261805176734924,-0.2693934142589569,0.49378499388694763,-1.0335805416107178,-9.809256553649902
1745667478.9871008,0.021052304655313492,-0.024014338850975037,-0.270119309425354,0.3052051067352295,-0.6033648252487183,-9.806267738342285
1745667478.9903684,0.02534208819270134,-0.017206327989697456,-0.2701999545097351,0.4275854527950287,-0.914404034614563,-9.688740730285645
1745667478.994524,0.011366775259375572,-0.023934563621878624,-0.2724672257900238,0.49377578496932983,-0.753240704536438,-9.575541496276855
1745667479.0255854,0.015473629347980022,-0.018139317631721497,-0.27213582396507263,0.38780468702316284,-0.8369277715682983,-9.825318336486816
1745667479.029075,0.01576748862862587,-0.023149974644184113,-0.27301353216171265,0.5735770463943481,-0.7942070960998535,-9.817319869995117
1745667479.02911,0.0016000736504793167,-0.017961474135518074,-0.27225393056869507,0.31962424516677856,-0.8433581590652466,-9.853503227233887
1745667479.0318758,0.023875173181295395,-0.02065197005867958,-0.27203983068466187,0.5121794939041138,-0.8915067911148071,-9.643866539001465
1745667479.03518,-3.70673842553515e-05,-0.027211075648665428,-0.270152747631073,0.4020642638206482,-0.5931440591812134,-9.632644653320312
1745667479.069346,0.019677694886922836,-0.013784919865429401,-0.2710801064968109,0.4161410331726074,-0.8859046697616577,-9.832648277282715
1745667479.0723488,0.022390136495232582,-0.021024668589234352,-0.2715822160243988,0.37133917212486267,-0.48573216795921326,-9.644203186035156
1745667479.0759964,0.020137067884206772,-0.017685972154140472,-0.27324357628822327,0.4276142716407776,-0.860378623008728,-9.780454635620117
1745667479.0772865,0.02640695497393608,-0.024887554347515106,-0.27253204584121704,0.5210590958595276,-0.7318390011787415,-9.859373092651367
1745667479.1134913,0.024468252435326576,-0.022505663335323334,-0.2735808491706848,0.3048205077648163,-0.8899816274642944,-9.955916404724121
1745667479.11672,0.019433606415987015,-0.019452039152383804,-0.2714320719242096,0.4972408413887024,-0.9805116653442383,-9.60256576538086
1745667479.1197324,0.015099327079951763,-0.023125585168600082,-0.27114754915237427,0.4727746844291687,-0.8080159425735474,-9.839941024780273
1745667479.127517,0.02834455296397209,-0.019302546977996826,-0.27287331223487854,0.42701974511146545,-0.8411566019058228,-10.022985458374023
1745667479.1276531,0.010378794744610786,-0.020668085664510727,-0.27004653215408325,0.46640944480895996,-0.7778998017311096,-9.719709396362305
1745667479.1561806,0.026235902681946754,-0.016953637823462486,-0.2743215560913086,0.27934208512306213,-0.9465841054916382,-9.54173755645752
1745667479.1595502,0.008336077444255352,-0.02136467956006527,-0.27229803800582886,0.45938748121261597,-0.7314943075180054,-9.502538681030273
1745667479.1628354,0.002769538201391697,-0.014561017043888569,-0.2742467224597931,0.3531948924064636,-0.9274694323539734,-9.992348670959473
1745667479.1658425,0.02490459941327572,-0.013655687682330608,-0.2751621603965759,0.4107810854911804,-0.6558713912963867,-9.804611206054688
1745667479.2006128,-0.0030075241811573505,-0.020299453288316727,-0.2740887999534607,0.4324820041656494,-0.7884698510169983,-9.678393363952637
1745667479.203671,0.025735389441251755,-0.0153269711881876,-0.2761610150337219,0.4677615165710449,-0.831210732460022,-9.774554252624512
1745667479.2068267,0.0039032907225191593,-0.02360185980796814,-0.2732871472835541,0.4523821771144867,-0.842182457447052,-9.811917304992676
1745667479.209097,0.022709142416715622,-0.012768426910042763,-0.270606130361557,0.3212077021598816,-0.8012665510177612,-9.7035551071167
1745667479.242596,0.006959213875234127,-0.018839489668607712,-0.26900774240493774,0.49999648332595825,-0.8882402181625366,-9.576087951660156
1745667479.2453566,0.020312193781137466,-0.017355769872665405,-0.26917338371276855,0.334876149892807,-0.6441567540168762,-9.815135955810547
1745667479.2481005,0.016839733347296715,-0.01607654057443142,-0.27420559525489807,0.518807590007782,-0.6397676467895508,-9.87765121459961
1745667479.251187,0.016193166375160217,-0.01989015005528927,-0.27272287011146545,0.3535950481891632,-0.8558724522590637,-9.876296997070312
1745667479.2894552,0.0015022478764876723,-0.021245479583740234,-0.2684873342514038,0.601408839225769,-0.9456101655960083,-9.634057998657227
1745667479.2959418,0.020228156819939613,-0.018941299989819527,-0.26925861835479736,0.36725348234176636,-0.6804912090301514,-9.930298805236816
1745667479.298611,0.0077872201800346375,-0.0139287319034338,-0.2692933976650238,0.459437757730484,-0.99504554271698,-9.974245071411133
1745667479.3028176,0.007809564471244812,-0.019337842240929604,-0.26732534170150757,0.3892632722854614,-0.8264843821525574,-9.609975814819336
1745667479.3081293,-0.002912340220063925,-0.017015701159834862,-0.26798179745674133,0.4302216172218323,-0.8670616149902344,-9.560603141784668
1745667479.3281834,0.00517302704975009,-0.025039944797754288,-0.266005277633667,0.5200967788696289,-0.9020673036575317,-9.890230178833008
1745667479.3294172,0.00861622579395771,-0.01185844000428915,-0.2657076418399811,0.3204095661640167,-0.5467482805252075,-9.838111877441406
1745667479.332396,-0.0007829144597053528,-0.017402876168489456,-0.2681674063205719,0.5153821706771851,-1.011404275894165,-9.619962692260742
1745667479.3340166,0.024175772443413734,-0.01811401918530464,-0.2666891813278198,0.22885198891162872,-0.5198732614517212,-9.581469535827637
1745667479.371739,-0.002548579126596451,-0.02034604176878929,-0.2671383321285248,0.47927847504615784,-0.9381359219551086,-9.915075302124023
1745667479.373319,0.02154535800218582,-0.01746996119618416,-0.2662263512611389,0.351146936416626,-0.723170280456543,-9.944635391235352
1745667479.3765109,0.006650759372860193,-0.015096592716872692,-0.2689838707447052,0.4375572204589844,-0.8863375782966614,-9.531220436096191
1745667479.3858342,0.006824026349931955,-0.02368752658367157,-0.2668296694755554,0.5170809030532837,-0.8241869807243347,-9.498552322387695
1745667479.3859391,-0.0009881152072921395,-0.017295533791184425,-0.2669515609741211,0.35825639963150024,-0.902630627155304,-9.97802734375
1745667479.4122949,0.00029365887166932225,-0.016072086989879608,-0.26461726427078247,0.5040521621704102,-0.8704524040222168,-9.968572616577148
1745667479.4138474,-0.002453302266076207,-0.017424026504158974,-0.26815634965896606,0.3006612956523895,-0.6110036969184875,-9.569574356079102
1745667479.4158134,-0.007635942194610834,-0.019861765205860138,-0.266166090965271,0.4603428840637207,-0.9856950640678406,-9.641602516174316
1745667479.4177446,0.014550534076988697,-0.02341851405799389,-0.267412394285202,0.3172498643398285,-0.4180071949958801,-9.755915641784668
1745667479.4588375,-0.007953733205795288,-0.01268893200904131,-0.2724045515060425,0.5164667963981628,-0.9401813745498657,-9.912402153015137
1745667479.4613087,0.02229369804263115,-0.016767753288149834,-0.2678537368774414,0.4392769932746887,-0.7253868579864502,-9.600332260131836
1745667479.4639056,0.006743752397596836,-0.012051808647811413,-0.2675160765647888,0.5213922262191772,-0.9725093841552734,-9.756815910339355
1745667479.467991,0.0068014501594007015,-0.019255943596363068,-0.2659844756126404,0.32107990980148315,-0.4808254837989807,-9.519754409790039
1745667479.4993732,0.002689418848603964,-0.017559578642249107,-0.2681550979614258,0.5113570094108582,-0.9540613293647766,-9.846844673156738
1745667479.5014963,0.016729597002267838,-0.02048102580010891,-0.2666563391685486,0.358458012342453,-0.57066810131073,-9.931970596313477
1745667479.5058477,0.012378072366118431,-0.013995383866131306,-0.269222617149353,0.34990257024765015,-0.9186443090438843,-9.757680892944336
1745667479.5079257,0.004210646729916334,-0.02295088768005371,-0.26675838232040405,0.44607287645339966,-0.8143802881240845,-9.477970123291016
1745667479.5504704,0.0010774752590805292,-0.019588101655244827,-0.26783841848373413,0.3756972849369049,-0.8296126127243042,-9.763823509216309
1745667479.5506516,0.009405742399394512,-0.01893390715122223,-0.2657853960990906,0.5249630808830261,-0.8295668363571167,-9.854277610778809
1745667479.5507488,-0.014367200434207916,-0.012932829558849335,-0.27004021406173706,0.3681359887123108,-0.6817535161972046,-9.759750366210938
1745667479.5553088,0.008537094108760357,-0.014913709834218025,-0.2659890353679657,0.5156527757644653,-0.9654962420463562,-9.676396369934082
1745667479.5600722,-0.0011808279668912292,-0.026469746604561806,-0.2684989869594574,0.3122517764568329,-0.4904479384422302,-9.67052936553955
1745667479.5875454,0.003980102948844433,-0.011456673964858055,-0.26921868324279785,0.41479071974754333,-0.9440706372261047,-9.886580467224121
1745667479.5894423,0.013283644802868366,-0.01568726636469364,-0.2663742005825043,0.426645427942276,-0.5806859135627747,-9.670463562011719
1745667479.5911078,0.00827082060277462,-0.016302376985549927,-0.2676011323928833,0.3881470859050751,-0.8566561937332153,-9.654539108276367
1745667479.5927978,0.019146166741847992,-0.016564680263400078,-0.26389196515083313,0.5159538984298706,-0.6937788128852844,-9.711773872375488
1745667479.6296237,0.01788541115820408,-0.016804467886686325,-0.2656828463077545,0.2997978627681732,-0.7563967704772949,-9.93031120300293
1745667479.632804,0.0031197480857372284,-0.021630186587572098,-0.2636723220348358,0.3658173382282257,-0.9028647541999817,-9.721564292907715
1745667479.6340377,0.03433111682534218,-0.014512071385979652,-0.2636881470680237,0.417961448431015,-0.795336127281189,-9.77409553527832
1745667479.6358092,-0.005682476330548525,-0.022666210308670998,-0.2661105990409851,0.547427773475647,-0.8400360345840454,-9.81671142578125
1745667479.671979,0.01687571406364441,-0.012945224530994892,-0.2643405497074127,0.3608745336532593,-0.9488727450370789,-9.791692733764648
1745667479.672907,0.008070394396781921,-0.01603643409907818,-0.2616410255432129,0.44831666350364685,-0.7248808145523071,-9.51990032196045
1745667479.675708,0.007759445812553167,-0.018460674211382866,-0.2622731328010559,0.3647984564304352,-0.8220635652542114,-9.752609252929688
1745667479.678357,0.014734616503119469,-0.01526649110019207,-0.2596466541290283,0.48834124207496643,-0.6836773157119751,-9.864336013793945
1745667479.715635,0.015929214656352997,-0.02217920683324337,-0.2649056911468506,0.341217577457428,-0.7258425951004028,-9.924474716186523
1745667479.7157269,0.018441034480929375,-0.015672022476792336,-0.26254090666770935,0.4022532105445862,-0.7702209949493408,-9.706853866577148
1745667479.7179036,0.006306882947683334,-0.023469489067792892,-0.2636133134365082,0.44839224219322205,-0.8773425221443176,-9.62439250946045
1745667479.721527,0.027234787121415138,-0.017643747851252556,-0.2611077129840851,0.3604218661785126,-0.7490085363388062,-9.684494972229004
1745667479.7236645,-0.009127860888838768,-0.01706783100962639,-0.2634708285331726,0.5484285354614258,-0.8040508031845093,-9.772318840026855
1745667479.7588887,0.023857086896896362,-0.015981225296854973,-0.2617117762565613,0.3253076672554016,-0.8491758108139038,-9.840563774108887
1745667479.7610645,0.007663036230951548,-0.018162092193961143,-0.2628430426120758,0.4866534173488617,-0.6879121661186218,-9.61174488067627
1745667479.7630382,-0.00025305169401690364,-0.023609966039657593,-0.26405009627342224,0.42674463987350464,-0.9446812868118286,-9.828432083129883
1745667479.7671776,0.022724121809005737,-0.011866075918078423,-0.2630665898323059,0.38998061418533325,-0.7077743411064148,-9.872076988220215
1745667479.7995806,-0.005134783685207367,-0.021795887500047684,-0.2638913094997406,0.42907261848449707,-0.8595231175422668,-9.652616500854492
1745667479.8015175,0.019152674823999405,-0.013583260588347912,-0.26023396849632263,0.320252925157547,-0.6942592263221741,-9.532876968383789
1745667479.8037868,0.005687551572918892,-0.017170801758766174,-0.26335373520851135,0.4950391352176666,-0.8743215799331665,-9.783157348632812
1745667479.8068478,0.007016574498265982,-0.016237478703260422,-0.25783026218414307,0.3713478744029999,-0.7294610142707825,-9.87592601776123
1745667479.8436878,-0.0025202929973602295,-0.02061413787305355,-0.2576287090778351,0.45485448837280273,-0.9120456576347351,-9.914560317993164
1745667479.846229,0.02318207360804081,-0.01752307265996933,-0.2615911364555359,0.2757114768028259,-0.507375180721283,-9.558530807495117
1745667479.8488166,-0.005440547596663237,-0.018266940489411354,-0.26039832830429077,0.5903359651565552,-0.8449355959892273,-9.607400894165039
1745667479.8518395,0.018956290557980537,-0.02052704617381096,-0.2609293460845947,0.33886292576789856,-0.798071563243866,-9.879255294799805
1745667479.8877633,0.00627975445240736,-0.014635374769568443,-0.25978603959083557,0.3940120041370392,-0.7554798126220703,-9.852895736694336
1745667479.89047,0.008791996166110039,-0.018255935981869698,-0.25919109582901,0.36514243483543396,-0.8989907503128052,-9.678125381469727
1745667479.8943295,0.011646328493952751,-0.0144133809953928,-0.2563343644142151,0.3201296329498291,-0.6760653257369995,-9.599931716918945
1745667479.8991585,0.00526523357257247,-0.025747548788785934,-0.2585912346839905,0.538602352142334,-0.828222393989563,-9.853574752807617
1745667479.9028916,0.010922729969024658,-0.016410935670137405,-0.258951872587204,0.3461914658546448,-0.7022331357002258,-9.931920051574707
1745667479.9298084,0.0017326740780845284,-0.015785856172442436,-0.2609736919403076,0.4937814176082611,-0.9235299825668335,-9.65658950805664
1745667479.9324884,0.014422486536204815,-0.020189661532640457,-0.2584114968776703,0.3330213129520416,-0.6417068243026733,-9.474886894226074
1745667479.9338458,-0.014506416395306587,-0.01586378738284111,-0.25636667013168335,0.3974558711051941,-0.9835218191146851,-9.900703430175781
1745667479.9352753,0.017472881823778152,-0.021897435188293457,-0.258378267288208,0.3884345293045044,-0.8055140376091003,-10.000819206237793
1745667479.9735577,-0.0020711116958409548,-0.013723118230700493,-0.2566685080528259,0.3354061245918274,-0.6104618906974792,-9.620312690734863
1745667479.978231,0.0038376569282263517,-0.02057868242263794,-0.2575100064277649,0.49263715744018555,-0.8858499526977539,-9.522061347961426
1745667479.982402,0.0015738013898953795,-0.02211758866906166,-0.2571660876274109,0.22909443080425262,-0.6138449907302856,-9.723386764526367
1745667479.9849982,0.010780355893075466,-0.014162595383822918,-0.25638777017593384,0.48163431882858276,-0.8822830319404602,-9.607632637023926
1745667479.9884803,-0.0030658752657473087,-0.021980881690979004,-0.25412675738334656,0.3787823021411896,-0.6487187743186951,-9.662797927856445
1745667480.0161357,0.00833902508020401,-0.016630204394459724,-0.25814610719680786,0.43269187211990356,-0.8024777173995972,-9.924358367919922
1745667480.0182931,0.0030578230507671833,-0.022624356672167778,-0.25969022512435913,0.42434462904930115,-0.5324382781982422,-9.819337844848633
1745667480.0203717,-0.003719845088198781,-0.014768116176128387,-0.2619059085845947,0.24758116900920868,-0.9460926055908203,-9.813986778259277
1745667480.023727,0.016022829338908195,-0.021188434213399887,-0.2584136426448822,0.4782369136810303,-0.6587573289871216,-9.449824333190918
1745667480.0598838,-0.011946486309170723,-0.020009521394968033,-0.2600356936454773,0.40888795256614685,-0.8055217862129211,-9.766350746154785
1745667480.0633385,0.01300952397286892,-0.012769577093422413,-0.2591783404350281,0.4977152943611145,-0.924237847328186,-9.904623031616211
1745667480.0667295,-0.001056615263223648,-0.018574165180325508,-0.2569904923439026,0.33367297053337097,-0.5456190705299377,-9.687822341918945
1745667480.0691214,0.009203446097671986,-0.01384331751614809,-0.25697749853134155,0.38811182975769043,-0.8827419281005859,-9.719595909118652
1745667480.070182,0.007629300467669964,-0.023581700399518013,-0.25665101408958435,0.46177148818969727,-0.6076133251190186,-9.814115524291992
1745667480.1041007,0.014415189623832703,-0.017490815371274948,-0.25917550921440125,0.2929745614528656,-0.7754195332527161,-9.97014331817627
1745667480.1056662,0.0054242596961557865,-0.01729821227490902,-0.25811833143234253,0.442722886800766,-0.7920140027999878,-9.619221687316895
1745667480.1169083,0.004405410028994083,-0.016787491738796234,-0.2596452832221985,0.30665767192840576,-0.7656010985374451,-9.505656242370605
1745667480.116993,0.012296704575419426,-0.019529981538653374,-0.25787419080734253,0.5680221319198608,-0.8050165176391602,-9.670350074768066
1745667480.1454475,-0.018117766827344894,-0.018977690488100052,-0.25883743166923523,0.34611454606056213,-0.7484205961227417,-10.08668327331543
1745667480.1494832,0.021554647013545036,-0.011880860663950443,-0.25689202547073364,0.41809672117233276,-0.837916374206543,-9.884222984313965
1745667480.1514392,-0.008186724968254566,-0.02414490468800068,-0.2597222924232483,0.43585896492004395,-0.5719372034072876,-9.404794692993164
1745667480.1542983,0.005039765499532223,-0.01645073853433132,-0.2594825327396393,0.37004736065864563,-0.868080735206604,-9.708561897277832
1745667480.1911886,0.023287378251552582,-0.01400148868560791,-0.26187393069267273,0.38015007972717285,-0.5908891558647156,-9.556207656860352
1745667480.1926441,-0.005025167018175125,-0.020677991211414337,-0.263641357421875,0.4574505686759949,-0.7154761552810669,-9.829565048217773
1745667480.1943176,0.02171582356095314,-0.009171001613140106,-0.2629173994064331,0.3541077673435211,-0.70017009973526,-9.914989471435547
1745667480.196998,0.003477000165730715,-0.01737750694155693,-0.2611851692199707,0.5103686451911926,-0.9225015640258789,-9.671224594116211
1745667480.2297068,0.009780194610357285,-0.018521849066019058,-0.25939249992370605,0.32357335090637207,-0.7971169352531433,-9.712166786193848
1745667480.2323036,-0.0034883557818830013,-0.015976889058947563,-0.2581542134284973,0.5182689428329468,-0.83965665102005,-9.846693992614746
1745667480.2337215,0.0021586623042821884,-0.018481997773051262,-0.2599194645881653,0.3044186532497406,-0.8298718333244324,-9.841882705688477
1745667480.2350986,0.00789803359657526,-0.010173024609684944,-0.26015418767929077,0.39855533838272095,-0.48041972517967224,-9.491058349609375
1745667480.2365682,-0.011307151056826115,-0.017641421407461166,-0.26303598284721375,0.4416798949241638,-0.8234956860542297,-9.695647239685059
1745667480.2818375,0.021782461553812027,-0.01153729297220707,-0.2641916275024414,0.28848618268966675,-0.570669412612915,-9.904780387878418
1745667480.28383,-0.00837767869234085,-0.018652653321623802,-0.2652382254600525,0.48281732201576233,-0.799127995967865,-9.93050765991211
1745667480.2839732,0.016837771981954575,-0.01192048005759716,-0.2625577747821808,0.30791711807250977,-0.7744299173355103,-9.726432800292969
1745667480.284058,0.0020091061014682055,-0.016742734238505363,-0.26064735651016235,0.46049484610557556,-0.8243867754936218,-9.54466438293457
1745667480.3166838,0.0007035962189547718,-0.019732411950826645,-0.260768324136734,0.4206031858921051,-0.8467567563056946,-9.804513931274414
1745667480.3201025,0.0043306197039783,-0.010105350986123085,-0.25973397493362427,0.47399768233299255,-0.7581626772880554,-9.900459289550781
1745667480.321673,-0.00373973255045712,-0.01912151649594307,-0.2613365054130554,0.404785692691803,-0.7526108622550964,-9.809840202331543
1745667480.324481,0.0008898702217265964,-0.015824932605028152,-0.26086077094078064,0.41274699568748474,-0.8582984805107117,-9.824616432189941
1745667480.3607488,0.022598126903176308,-0.016187753528356552,-0.26229944825172424,0.38714295625686646,-0.6220599412918091,-9.8270263671875
1745667480.3621697,0.01198537927120924,-0.013873430900275707,-0.26213476061820984,0.3290500044822693,-0.6258920431137085,-9.661102294921875
1745667480.3627577,0.012458385899662971,-0.018029894679784775,-0.26226097345352173,0.5178985595703125,-0.8366280794143677,-9.602255821228027
1745667480.3644423,0.007334411144256592,-0.0159454345703125,-0.263721764087677,0.2711932063102722,-0.6934974193572998,-9.895333290100098
1745667480.3663142,0.00701016653329134,-0.017719123512506485,-0.2615759074687958,0.4949325621128082,-0.9085780382156372,-9.929567337036133
1745667480.4043617,0.0015961785102263093,-0.015461789444088936,-0.262638121843338,0.32489389181137085,-0.5876749157905579,-9.668061256408691
1745667480.4078333,0.0066768703982234,-0.017772018909454346,-0.2614571750164032,0.4118891656398773,-0.9861208200454712,-9.62338638305664
1745667480.4123068,0.00530004920437932,-0.022582674399018288,-0.26109373569488525,0.4836327135562897,-0.5423218607902527,-9.633481979370117
1745667480.415937,-0.0028079082258045673,-0.0097612040117383,-0.2619846761226654,0.36363115906715393,-0.7392797470092773,-9.968046188354492
1745667480.4475927,0.02430369146168232,-0.014131481759250164,-0.2598639130592346,0.4041706919670105,-0.620525062084198,-9.718063354492188
1745667480.4480588,0.0063309138640761375,-0.01624823734164238,-0.26392754912376404,0.27241235971450806,-0.5427545309066772,-9.61138916015625
1745667480.4527411,0.025986436754465103,-0.015652555972337723,-0.2614327073097229,0.4985272288322449,-0.8207660913467407,-9.784941673278809
1745667480.455557,0.011968025006353855,-0.018581705167889595,-0.2610364258289337,0.28713124990463257,-0.6301217079162598,-9.875027656555176
1745667480.4591606,0.021397996693849564,-0.012812750414013863,-0.263045072555542,0.4715963304042816,-0.8703583478927612,-9.720500946044922
1745667480.4984412,0.006012312136590481,-0.01967928372323513,-0.2612834870815277,0.4403322637081146,-0.7944751977920532,-9.613066673278809
1745667480.4996538,0.01059013232588768,-0.013668537139892578,-0.26081106066703796,0.3979094624519348,-0.82881098985672,-9.798497200012207
1745667480.5025165,0.0014423832762986422,-0.02014630287885666,-0.26127904653549194,0.5193582773208618,-0.6807760000228882,-9.830787658691406
1745667480.5036502,-0.004533226136118174,-0.0142184067517519,-0.2607806324958801,0.25966954231262207,-0.7990464568138123,-9.892515182495117
1745667480.5326376,0.02103634923696518,-0.01563381776213646,-0.26189684867858887,0.42622509598731995,-0.6120426058769226,-9.554362297058105
1745667480.5370212,-0.00987302791327238,-0.019596172496676445,-0.26507389545440674,0.3627570569515228,-0.5831589698791504,-9.625683784484863
1745667480.5397198,0.021016757935285568,-0.011087181977927685,-0.26377782225608826,0.3682871460914612,-0.6647093892097473,-9.994637489318848
1745667480.542058,0.0014435711782425642,-0.019700558856129646,-0.2645763158798218,0.45688754320144653,-0.569238543510437,-9.631970405578613
1745667480.5462482,0.008131972514092922,-0.013359932228922844,-0.264467716217041,0.35714250802993774,-0.8227220773696899,-9.639007568359375
1745667480.5757117,0.02200407348573208,-0.015909161418676376,-0.2621951997280121,0.5065323114395142,-0.6584518551826477,-9.694963455200195
1745667480.5773058,0.0023465726990252733,-0.015745483338832855,-0.26046061515808105,0.3382715880870819,-0.7727607488632202,-9.96760368347168
1745667480.5799167,0.02448916807770729,-0.008088449016213417,-0.2600996494293213,0.45111361145973206,-0.6929659247398376,-9.680654525756836
1745667480.58212,0.001871762447990477,-0.019747184589505196,-0.2615533769130707,0.34085023403167725,-0.7467480897903442,-9.640143394470215
1745667480.6198962,0.017620626837015152,-0.013908535242080688,-0.261945903301239,0.34316450357437134,-0.6303130984306335,-9.811482429504395
1745667480.6235287,-0.008874239400029182,-0.0176217220723629,-0.2645978331565857,0.4479389786720276,-0.7164492607116699,-9.870638847351074
1745667480.62617,0.021107463166117668,-0.012894811108708382,-0.26515692472457886,0.3176221251487732,-0.756607711315155,-9.693124771118164
1745667480.6277742,-0.007582517806440592,-0.013779883272945881,-0.26550808548927307,0.5188354253768921,-0.6716876029968262,-9.521328926086426
1745667480.6602194,-0.0036070034839212894,-0.016842473298311234,-0.26449111104011536,0.36779260635375977,-0.9097009897232056,-9.918526649475098
1745667480.6687763,0.01857055351138115,-0.012082519009709358,-0.2627817988395691,0.42825326323509216,-0.6203722357749939,-9.901338577270508
1745667480.6688929,-0.01274543721228838,-0.01919635385274887,-0.2625977396965027,0.3549060821533203,-0.7573860883712769,-9.74727725982666
1745667480.6689444,0.02557036280632019,-0.009977388195693493,-0.2636582553386688,0.3741902709007263,-0.622277557849884,-9.586336135864258
1745667480.7043304,0.005361821968108416,-0.02110552415251732,-0.26201003789901733,0.33727794885635376,-0.678777813911438,-9.99256706237793
1745667480.70719,-0.011555464938282967,-0.010303949937224388,-0.2636801600456238,0.36853528022766113,-0.6662698984146118,-9.686968803405762
1745667480.7095315,0.0009683072566986084,-0.02096165530383587,-0.2656138241291046,0.41659969091415405,-0.8120978474617004,-9.528520584106445
1745667480.7143455,0.0008705154177732766,-0.022461457177996635,-0.264215886592865,0.322139710187912,-0.45313629508018494,-9.766157150268555
1745667480.720138,-0.015127340331673622,-0.020736224949359894,-0.2646358609199524,0.47836366295814514,-0.8998039364814758,-10.08656120300293
1745667480.7469873,0.01827985607087612,-0.013505248352885246,-0.26758265495300293,0.2666568160057068,-0.4335978627204895,-9.676206588745117
1745667480.7514105,-0.006808384321630001,-0.018857955932617188,-0.2649073600769043,0.5509825944900513,-0.8571327328681946,-9.434617042541504
1745667480.7525175,0.009373227134346962,-0.025317516177892685,-0.26286783814430237,0.37616053223609924,-0.6382113695144653,-9.76268482208252
1745667480.7544699,0.00696181133389473,-0.0134901013225317,-0.26137763261795044,0.3938262164592743,-0.7435999512672424,-10.107928276062012
1745667480.790779,0.004507967736572027,-0.020485250279307365,-0.26328930258750916,0.3545699715614319,-0.721077561378479,-9.816874504089355
1745667480.7922475,0.005143414251506329,-0.01613091304898262,-0.2641998827457428,0.32258516550064087,-0.5260171890258789,-9.406389236450195
1745667480.7960386,0.004332310054451227,-0.024668745696544647,-0.2626543343067169,0.501025915145874,-0.8999439477920532,-9.644472122192383
1745667480.7996078,0.0017693631816655397,-0.017624149098992348,-0.26804107427597046,0.30662837624549866,-0.4254756569862366,-9.939435958862305
1745667480.8333273,-0.008503757417201996,-0.012540822848677635,-0.2679108679294586,0.5079913139343262,-0.9865578413009644,-9.904081344604492
1745667480.8353946,0.006385820917785168,-0.017100395634770393,-0.2640778720378876,0.2721925973892212,-0.5842889547348022,-9.551983833312988
1745667480.837395,-0.016572672873735428,-0.020752880722284317,-0.2656070590019226,0.44550028443336487,-0.8398105502128601,-9.724950790405273
1745667480.8389716,0.0016900524497032166,-0.018612021580338478,-0.2629910707473755,0.40308427810668945,-0.6833939552307129,-9.94703483581543
1745667480.8411195,-0.0006703957915306091,-0.010216662660241127,-0.2650926411151886,0.2941652536392212,-0.4655020236968994,-9.735565185546875
1745667480.8771014,0.0027050934731960297,-0.019102759659290314,-0.2665759325027466,0.5080054998397827,-0.6987056732177734,-9.516883850097656
1745667480.8801956,0.005832406226545572,-0.018498804420232773,-0.26736465096473694,0.32965028285980225,-0.5015217661857605,-9.811297416687012
1745667480.884104,0.0006902426248416305,-0.02176305465400219,-0.2649991512298584,0.40439969301223755,-0.6265307664871216,-9.612691879272461
1745667480.8856993,0.0015009077033028007,-0.014171418733894825,-0.2668260633945465,0.4096077084541321,-0.7725157141685486,-9.836633682250977
1745667480.920513,0.005029323510825634,-0.01773097552359104,-0.2654689848423004,0.45732593536376953,-0.6358122825622559,-9.816357612609863
1745667480.9231722,-0.011923762038350105,-0.011157477274537086,-0.2692614495754242,0.27327489852905273,-0.6868149042129517,-9.75394344329834
1745667480.924635,0.015364217571914196,-0.0159485824406147,-0.2653574049472809,0.4945249557495117,-0.7874177694320679,-9.59306812286377
1745667480.9268878,-0.009027378633618355,-0.02081921324133873,-0.26700901985168457,0.3228728771209717,-0.40002575516700745,-9.740625381469727
1745667480.963244,0.005750975105911493,-0.009991660714149475,-0.2657870948314667,0.4857902526855469,-0.923697829246521,-9.96208667755127
1745667480.9668999,0.0072220489382743835,-0.015814179554581642,-0.2674958109855652,0.2849861979484558,-0.3985011577606201,-9.64909839630127
1745667480.9707043,0.0030402489937841892,-0.012106170877814293,-0.265593558549881,0.4218584895133972,-0.7993846535682678,-9.679412841796875
1745667480.9750583,0.012992048636078835,-0.018336258828639984,-0.266697496175766,0.41746702790260315,-0.578779935836792,-9.76124382019043
1745667480.9786682,0.007682539522647858,-0.011088027618825436,-0.2693277895450592,0.26129356026649475,-0.6540058255195618,-9.930523872375488
1745667481.007193,0.012954195030033588,-0.016568446531891823,-0.2644616961479187,0.48161664605140686,-0.7803917527198792,-9.679850578308105
1745667481.0111148,-4.43434328190051e-05,-0.014037934131920338,-0.2657901644706726,0.2896874248981476,-0.60960453748703,-9.6182279586792
1745667481.0151978,0.02203887328505516,-0.015728523954749107,-0.26558369398117065,0.5110025405883789,-0.7759953737258911,-9.745050430297852
1745667481.018087,-0.009755467996001244,-0.013119110837578773,-0.2681916356086731,0.350227415561676,-0.5440562963485718,-9.878024101257324
1745667481.049742,0.015877526253461838,-0.0074644326232373714,-0.2684604525566101,0.3799711763858795,-0.8152300715446472,-9.833392143249512
1745667481.0541213,0.008896002545952797,-0.011947773396968842,-0.26930537819862366,0.286017507314682,-0.7401338219642639,-9.862078666687012
1745667481.0578442,0.016522925347089767,-0.014691120013594627,-0.26930609345436096,0.4743717312812805,-0.6375163197517395,-9.636213302612305
1745667481.0597131,0.0037365183234214783,-0.01816887967288494,-0.26883864402770996,0.32565268874168396,-0.678743839263916,-9.762796401977539
1745667481.0906138,0.01443613599985838,-0.014419473707675934,-0.26756834983825684,0.48081332445144653,-0.7025524377822876,-9.847223281860352
1745667481.096185,0.0021235202439129353,-0.017198164016008377,-0.27004244923591614,0.36263298988342285,-0.6872550845146179,-9.797510147094727
1745667481.0986457,0.021656323224306107,-0.010375773534178734,-0.26741957664489746,0.38469552993774414,-0.5162032842636108,-9.544351577758789
1745667481.1036978,-0.010773569345474243,-0.02167435921728611,-0.2702051103115082,0.43078383803367615,-0.8259602785110474,-9.763916015625
1745667481.1064723,0.028622210025787354,-0.01390218734741211,-0.270337849855423,0.29913678765296936,-0.6165611147880554,-9.929699897766113
1745667481.1370554,-0.00013404712080955505,-0.018838709220290184,-0.2711816132068634,0.5183464884757996,-0.6346630454063416,-9.737260818481445
1745667481.138549,0.006915335543453693,-0.012294860556721687,-0.2703675627708435,0.3118130564689636,-0.7919806241989136,-9.702569961547852
1745667481.1409295,0.019468283280730247,-0.013308693654835224,-0.268347829580307,0.47021859884262085,-0.5824286341667175,-9.564367294311523
1745667481.1436949,-0.008420023135840893,-0.021857120096683502,-0.27168983221054077,0.40652599930763245,-0.8207858800888062,-9.933111190795898
1745667481.177616,0.0211354847997427,-0.010688168928027153,-0.2678099274635315,0.32947275042533875,-0.5811662673950195,-9.902376174926758
1745667481.1802392,0.0029391939751803875,-0.019032733514904976,-0.2702263593673706,0.4096047282218933,-0.755841076374054,-9.673166275024414
1745667481.1827095,0.015518179163336754,-0.014484274201095104,-0.26656633615493774,0.29081687331199646,-0.6227593421936035,-9.651845932006836
1745667481.1852863,-0.0037493384443223476,-0.020074527710676193,-0.26984232664108276,0.49845442175865173,-0.7754188776016235,-9.816920280456543
1745667481.1889365,0.022121865302324295,-0.016632290557026863,-0.26597246527671814,0.27388104796409607,-0.5558284521102905,-9.822050094604492
1745667481.2202315,-0.003175504505634308,-0.011405641213059425,-0.26893535256385803,0.4550693929195404,-0.6708961725234985,-9.665620803833008
1745667481.223413,0.0063479929231107235,-0.0172957144677639,-0.2686362564563751,0.36601123213768005,-0.8141994476318359,-9.724628448486328
1745667481.2265995,0.017603248357772827,-0.015809115022420883,-0.2671726644039154,0.41635793447494507,-0.4796334207057953,-9.807241439819336
1745667481.236534,-0.001664640149101615,-0.018013928085565567,-0.2656902074813843,0.4985674023628235,-0.7465387582778931,-9.787981033325195
1745667481.265921,0.024244535714387894,-0.014109432697296143,-0.2651295065879822,0.30984339118003845,-0.6185563206672668,-10.154073715209961
1745667481.2703354,0.019270677119493484,-0.007928748615086079,-0.2684181332588196,0.364104688167572,-0.5213850736618042,-9.6564359664917
1745667481.274281,0.017415035516023636,-0.019763613119721413,-0.265866219997406,0.4519132673740387,-0.7019522786140442,-9.356664657592773
1745667481.277237,0.026370655745267868,-0.017433086410164833,-0.26784804463386536,0.3808060586452484,-0.5775855779647827,-9.822406768798828
1745667481.308453,0.017606351524591446,-0.015251005068421364,-0.26747754216194153,0.4645441174507141,-0.8537120819091797,-10.152265548706055
