timestamp,angular_vel_x,angular_vel_y,angular_vel_z,linear_acc_x,linear_acc_y,linear_acc_z
1745664703.6485763,0.0028361263684928417,-0.01931452937424183,-0.39068636298179626,0.5136163234710693,-0.8334707021713257,-9.95705795288086
1745664703.6486242,-0.01826433278620243,-0.01662420481443405,-0.39188820123672485,0.7046688795089722,-1.0054209232330322,-9.692930221557617
1745664703.6486797,0.000229584431508556,-0.02090655453503132,-0.3882640302181244,0.5681301951408386,-0.748553454875946,-9.465147972106934
1745664703.6487205,-0.02915094792842865,-0.016818124800920486,-0.3921456038951874,0.6466175317764282,-0.903023898601532,-9.778018951416016
1745664703.6487606,-0.0026359453331679106,-0.019691098481416702,-0.39138099551200867,0.5736359357833862,-0.8124276399612427,-9.97225284576416
1745664703.682095,-0.010580931790173054,-0.01071369368582964,-0.39285850524902344,0.5427250862121582,-0.567247748374939,-9.589842796325684
1745664703.6835432,-0.020820409059524536,-0.016371257603168488,-0.3919958174228668,0.6822279691696167,-1.0225977897644043,-9.543636322021484
1745664703.6849675,0.007726998534053564,-0.011332464404404163,-0.39495766162872314,0.45000672340393066,-0.5456576347351074,-9.730255126953125
1745664703.6891973,-0.015384967438876629,-0.013509164564311504,-0.3926188349723816,0.7297374606132507,-0.9763784408569336,-9.903478622436523
1745664703.7258997,0.006839410867542028,-0.009294825606048107,-0.3929021954536438,0.5146526098251343,-0.7416794896125793,-9.733332633972168
1745664703.7346885,-0.0064343614503741264,-0.009069417603313923,-0.39279165863990784,0.6766277551651001,-0.9692975282669067,-9.615324974060059
1745664703.7358155,-0.010136276483535767,-0.018492814153432846,-0.39147132635116577,0.6054327487945557,-0.8831235766410828,-9.792028427124023
1745664703.7358584,-0.01663910783827305,-0.006395931355655193,-0.3914106488227844,0.5638182163238525,-0.9490667581558228,-9.897855758666992
1745664703.7681885,-0.011039072647690773,-0.010027045384049416,-0.39472490549087524,0.5422917604446411,-0.7020696997642517,-9.5548734664917
1745664703.7699697,-0.026953130960464478,-0.004435961600393057,-0.3934178650379181,0.5988638997077942,-0.8007147908210754,-9.749551773071289
1745664703.772215,-0.01880612038075924,-0.009037411771714687,-0.3908272981643677,0.6827378869056702,-0.8274029493331909,-9.833230018615723
1745664703.7749534,-0.015079855918884277,-0.0009864739840850234,-0.3923395872116089,0.5209922790527344,-0.7697290778160095,-9.758264541625977
1745664703.813019,-0.02545366808772087,-0.010130479000508785,-0.3922976851463318,0.7602675557136536,-0.8926498293876648,-9.693700790405273
1745664703.8130667,-0.025511199608445168,-0.008854515850543976,-0.3946974277496338,0.5258225202560425,-0.6455376148223877,-9.791409492492676
1745664703.8131216,-0.025320151820778847,-0.003624889999628067,-0.3928452730178833,0.7029389142990112,-1.0541812181472778,-9.755248069763184
1745664703.8155582,-0.03031596913933754,-0.007318300195038319,-0.3935496211051941,0.5520327687263489,-0.6121364235877991,-9.5616455078125
1745664703.8190663,-0.03905559703707695,-0.002805981319397688,-0.39215677976608276,0.6435291767120361,-1.0069655179977417,-9.76161003112793
1745664703.856195,-0.019692163914442062,-0.009867073968052864,-0.3933785557746887,0.6070443391799927,-0.6219976544380188,-9.81953239440918
1745664703.859834,-0.03181630000472069,-0.003018923569470644,-0.39243146777153015,0.5153281688690186,-0.6822652816772461,-9.853732109069824
1745664703.8624716,-0.01995760202407837,-0.004493820481002331,-0.39389535784721375,0.7523452639579773,-0.8427003622055054,-9.691461563110352
1745664703.872163,-0.022422347217798233,-0.008661848492920399,-0.39279186725616455,0.4988265037536621,-0.6085777282714844,-9.627771377563477
1745664703.896551,-0.022788846865296364,-0.007002709899097681,-0.39197635650634766,0.7138738036155701,-0.9746040105819702,-9.750269889831543
1745664703.8987002,-0.05700619891285896,-0.06575865298509598,-0.2944205105304718,0.3356042504310608,0.008264956064522266,-10.847265243530273
1745664703.9000735,-0.030355755239725113,-0.04785718023777008,-0.3018205761909485,-0.040167778730392456,0.21713316440582275,-10.543840408325195
1745664703.9014688,-0.02320520579814911,-0.0528392568230629,-0.30414190888404846,-0.14847829937934875,-0.5904570817947388,-8.856954574584961
1745664703.9025562,-0.036471329629421234,-0.08466370403766632,-0.3039624094963074,0.3448649048805237,-0.8179076910018921,-8.690450668334961
1745664703.9414349,-0.08030810207128525,-0.06742651015520096,-0.2964934706687927,-0.09062317758798599,-1.1986989974975586,-10.824780464172363
1745664703.9426312,-0.07605422288179398,-0.04444917291402817,-0.28904494643211365,0.4709891378879547,-1.181649088859558,-10.379185676574707
1745664703.9452107,-0.10826168209314346,-0.06002431362867355,-0.2775511145591736,0.34061917662620544,-0.8898988962173462,-8.686347961425781
1745664703.946364,-0.12386216223239899,-0.07948833703994751,-0.27098217606544495,0.5728941559791565,-1.3815348148345947,-9.160409927368164
1745664703.9822936,-0.1314961165189743,-0.0761038213968277,-0.26791730523109436,0.1864469349384308,-0.2693421542644501,-10.793978691101074
1745664703.983832,-0.13313747942447662,-0.05614393949508667,-0.26832351088523865,-0.040465205907821655,-0.7536633610725403,-10.681161880493164
1745664703.986476,-0.10488194227218628,-0.05996160954236984,-0.2695133686065674,-0.0802251324057579,-0.18750829994678497,-8.611891746520996
1745664703.9881377,-0.13041533529758453,-0.07600565254688263,-0.26577097177505493,-0.008789095096290112,-0.4894932806491852,-8.872171401977539
1745664703.9913704,-0.10250536352396011,-0.0743003785610199,-0.25145259499549866,0.11896833032369614,-0.858467698097229,-10.604425430297852
1745664704.0254645,-0.09501700103282928,-0.03875989094376564,-0.23259790241718292,0.4476068615913391,-0.6048994660377502,-10.276738166809082
1745664704.027932,-0.08309577405452728,-0.07924951612949371,-0.22747857868671417,1.1176326274871826,-0.40063151717185974,-9.255243301391602
1745664704.0290647,-0.08706957846879959,-0.09194900840520859,-0.2381594479084015,-0.044931937009096146,0.031020771712064743,-10.388455390930176
1745664704.0308416,-0.08343075215816498,-0.06823596358299255,-0.2481623888015747,0.3640657961368561,-0.30204257369041443,-10.05070686340332
1745664704.0701733,-0.07986724376678467,-0.10187824070453644,-0.2536335587501526,0.28336551785469055,0.054730355739593506,-9.643241882324219
1745664704.0721593,-0.07954021543264389,-0.09681707620620728,-0.26588839292526245,-0.7286641001701355,-0.6687673926353455,-10.053512573242188
1745664704.0746968,-0.10558541119098663,-0.07440517842769623,-0.245802640914917,-0.6333335638046265,-1.0749285221099854,-9.218595504760742
1745664704.075913,-0.08987921476364136,-0.036568980664014816,-0.23269009590148926,-0.10429812967777252,-1.9587647914886475,-8.696904182434082
1745664704.1122606,-0.12903977930545807,-0.09492824971675873,-0.21931560337543488,0.8867648839950562,0.10937466472387314,-9.518656730651855
1745664704.114536,-0.1587054431438446,-0.05019047111272812,-0.19976606965065002,0.3681156039237976,0.2355894148349762,-8.200006484985352
1745664704.118349,-0.17360824346542358,-0.07589592784643173,-0.20084159076213837,0.69427490234375,0.3924120366573334,-10.276824951171875
1745664704.1207376,-0.10732140392065048,-0.06937824189662933,-0.19564035534858704,0.8109830021858215,0.019342908635735512,-11.819164276123047
1745664704.1549695,-0.06224895641207695,-0.045341961085796356,-0.18670663237571716,0.24402673542499542,0.1005619540810585,-9.77635383605957
1745664704.1554186,-0.04139419272542,-0.05625506490468979,-0.16893741488456726,0.010031402111053467,-0.41375499963760376,-8.097813606262207
1745664704.157106,-0.032999251037836075,-0.07531381398439407,-0.15646685659885406,0.36483287811279297,-0.32891371846199036,-9.417977333068848
1745664704.158714,-0.009894490242004395,-0.050501156598329544,-0.1557186096906662,-0.07924366742372513,-0.3033481538295746,-11.442388534545898
1745664704.1604276,-0.01710495725274086,-0.03222748637199402,-0.16023699939250946,0.08636356145143509,-0.2067158967256546,-10.067237854003906
1745664704.1993625,-0.04210848733782768,-0.052710555493831635,-0.1676996648311615,0.10231050103902817,-0.4972410202026367,-8.542978286743164
1745664704.2009706,-0.07508988678455353,-0.056862227618694305,-0.17350509762763977,0.35251709818840027,-0.9989717602729797,-9.548219680786133
1745664704.2027307,-0.1338406503200531,-0.04897013306617737,-0.1678404062986374,0.38011717796325684,-1.3472819328308105,-10.923158645629883
1745664704.2050443,-0.15228334069252014,-0.016952278092503548,-0.15344388782978058,0.5006898045539856,-1.9129502773284912,-9.81485652923584
1745664704.2421212,-0.21022853255271912,-0.03638019040226936,-0.1324673891067505,0.5559276938438416,-1.1844563484191895,-8.5757417678833
1745664704.242186,-0.24565362930297852,-0.03600841760635376,-0.11469461023807526,0.48980337381362915,-1.1260273456573486,-9.965660095214844
1745664704.2477586,-0.09814031422138214,0.048757247626781464,0.0590953603386879,0.4569206237792969,-0.2969016432762146,-9.398622512817383
1745664704.2478368,-0.12955446541309357,0.056728463619947433,0.06414349377155304,0.5873690247535706,-0.5803024768829346,-9.856804847717285
1745664704.2831454,-0.14725595712661743,0.060276251286268234,0.06912656873464584,0.361046701669693,-0.44170087575912476,-10.015172958374023
1745664704.2849195,-0.1534629613161087,0.06774201989173889,0.07768790423870087,0.4109155535697937,-0.554951548576355,-9.418303489685059
1745664704.2869022,-0.1648644655942917,0.06319103389978409,0.08360112458467484,0.5349317789077759,-0.21460697054862976,-9.274950981140137
1745664704.2962613,-0.17010268568992615,0.06859443336725235,0.09036944806575775,0.49230343103408813,-0.13734105229377747,-9.989420890808105
1745664704.2963874,-0.16171720623970032,0.06397803127765656,0.09487249702215195,0.7569562196731567,-0.030582059174776077,-9.94201374053955
1745664704.3271387,-0.14546790719032288,0.07092281430959702,0.0943366065621376,0.5066784620285034,0.2021014392375946,-9.624252319335938
1745664704.3301375,-0.16085971891880035,0.06980083882808685,0.10100952535867691,0.5133885145187378,-0.08538816124200821,-9.586443901062012
1745664704.3317375,-0.14036966860294342,0.05850108340382576,0.10599800199270248,0.49143093824386597,0.20425331592559814,-9.660683631896973
1745664704.3327496,-0.1510031521320343,0.07351498305797577,0.10593386739492416,0.6441841721534729,0.14031383395195007,-9.791929244995117
1745664704.3708851,-0.13831135630607605,0.06088580936193466,0.10979609191417694,0.5798072218894958,0.1960264891386032,-9.809904098510742
1745664704.3741736,-0.13150940835475922,0.06110178306698799,0.11021418869495392,0.6227600574493408,0.32646822929382324,-9.673577308654785
1745664704.3766098,-0.1319086104631424,0.05678635835647583,0.11460457742214203,0.8312441110610962,0.06114070490002632,-9.739973068237305
1745664704.378272,-0.11194247007369995,0.05899229645729065,0.11583322286605835,0.513058066368103,0.17278656363487244,-9.874828338623047
1745664704.3798375,-0.11991746723651886,0.05051456764340401,0.12523683905601501,0.7001479864120483,-0.1633051633834839,-9.733121871948242
1745664704.4140196,-0.10943566262722015,0.05485323816537857,0.13343146443367004,0.5521640777587891,0.07451316714286804,-9.543993949890137
1745664704.4175432,-0.11194629967212677,0.056447405368089676,0.1371239721775055,0.5142809748649597,-0.04263098165392876,-9.692111015319824
1745664704.4185045,-0.11677660048007965,0.04468023031949997,0.13963624835014343,0.53082275390625,0.017489280551671982,-9.775643348693848
1745664704.4205234,-0.1144666075706482,0.05787926912307739,0.13993380963802338,0.5480866432189941,0.025081852450966835,-9.696564674377441
1745664704.4582121,-0.14094123244285583,0.050656527280807495,0.13988091051578522,0.620306134223938,-0.13608945906162262,-9.58457088470459
1745664704.460499,-0.13584579527378082,0.04515838623046875,0.14372391998767853,0.469920814037323,-0.14730465412139893,-9.711925506591797
1745664704.4627824,-0.11423426866531372,0.039159197360277176,0.17142176628112793,0.46554508805274963,0.4621538519859314,-9.631012916564941
1745664704.4647603,-0.126167893409729,0.04453696683049202,0.1718687266111374,0.635470449924469,0.2616328299045563,-9.651833534240723
1745664704.4990876,-0.11376216262578964,0.03450454771518707,0.17549243569374084,0.4741837978363037,0.20907220244407654,-9.748385429382324
1745664704.5017412,-0.11450332403182983,0.034767843782901764,0.18023495376110077,0.7859379053115845,0.10538579523563385,-9.627726554870605
1745664704.5040858,-0.12940029799938202,0.032526880502700806,0.18187949061393738,0.7644726037979126,0.06374387443065643,-9.802337646484375
1745664704.50695,-0.12186378240585327,0.032050568610429764,0.18551577627658844,0.6721251010894775,0.10008207708597183,-9.871023178100586
1745664704.5089138,-0.14084169268608093,0.017541149631142616,0.19055263698101044,0.7665079236030579,0.05442332103848457,-9.682252883911133
1745664704.5455925,-0.1323624849319458,0.028144562616944313,0.19369114935398102,0.5364564657211304,0.09445339441299438,-9.640766143798828
1745664704.545936,-0.1476069986820221,0.023260584101080894,0.19967977702617645,0.6038497686386108,0.09277504682540894,-9.701817512512207
1745664704.5497262,-0.13883467018604279,0.018138572573661804,0.19970281422138214,0.45115089416503906,0.36452847719192505,-9.657966613769531
1745664704.5540655,-0.13574598729610443,0.021440569311380386,0.20101547241210938,0.6455944776535034,0.24695655703544617,-9.676862716674805
1745664704.5847218,-0.14024008810520172,0.015461827628314495,0.2038896381855011,0.5175102949142456,0.42723530530929565,-9.746747016906738
1745664704.5876982,-0.12887126207351685,0.0174755547195673,0.20295175909996033,0.5986711978912354,0.24698173999786377,-9.731496810913086
1745664704.5881422,-0.13570348918437958,0.012820279225707054,0.20757658779621124,0.7399582266807556,0.2913195788860321,-9.624467849731445
1745664704.5914001,-0.1308341920375824,-0.028166409581899643,0.273115336894989,0.6000407338142395,0.41197142004966736,-9.821813583374023
1745664704.6263528,-0.11055143177509308,-0.027664294466376305,0.27298101782798767,0.5383097529411316,0.5787409543991089,-9.768834114074707
1745664704.629204,-0.12514984607696533,-0.025352884083986282,0.2746692895889282,0.7174466252326965,0.506243884563446,-9.812174797058105
1745664704.6387734,-0.11312411725521088,-0.03131183236837387,0.272699773311615,0.3577558100223541,0.6505719423294067,-9.960413932800293
1745664704.6388955,-0.1134471446275711,-0.02790101431310177,0.27363720536231995,0.5732746720314026,0.4046660363674164,-9.709762573242188
1745664704.638977,-0.11366920173168182,-0.030430886894464493,0.2778390347957611,0.5615900754928589,0.5619626045227051,-9.568463325500488
1745664704.6740057,-0.11397942155599594,-0.023876918479800224,0.2790451645851135,0.4505414068698883,0.3487766981124878,-9.934226036071777
1745664704.677025,-0.11041239649057388,-0.03254418447613716,0.2816994786262512,0.6364476084709167,0.5618605017662048,-9.797052383422852
1745664704.679248,-0.10879912227392197,-0.02483329549431801,0.28358346223831177,0.5072398781776428,0.5833859443664551,-9.800619125366211
1745664704.6843932,-0.11388740688562393,-0.026816969737410545,0.2840774953365326,0.6403854489326477,0.48012980818748474,-9.815354347229004
1745664704.713436,-0.10735466331243515,-0.03236720710992813,0.2816002070903778,0.42949122190475464,0.6356393098831177,-9.863213539123535
1745664704.7158086,-0.11167166382074356,-0.026165077462792397,0.286308616399765,0.6182760000228882,0.44633451104164124,-9.720560073852539
1745664704.7196875,-0.11568198353052139,-0.03102763369679451,0.2852708101272583,0.49545636773109436,0.6109779477119446,-9.766557693481445
1745664704.7229176,-0.11076424270868301,-0.028143972158432007,0.2883033752441406,0.4861104488372803,0.47317981719970703,-9.902130126953125
1745664704.760694,-0.11541078984737396,-0.03127025440335274,0.28881198167800903,0.5973383188247681,0.5163781642913818,-9.758320808410645
1745664704.7681963,-0.11036650091409683,-0.023106524720788002,0.2899063229560852,0.44354772567749023,0.7125018239021301,-9.72675895690918
1745664704.768298,-0.11056426912546158,-0.03396995738148689,0.2921711802482605,0.6654406785964966,0.45810651779174805,-9.861141204833984
1745664704.7715418,-0.10272864252328873,-0.03641664236783981,0.2919757068157196,0.5199087262153625,0.7547049522399902,-9.915277481079102
1745664704.8032758,-0.10241878032684326,-0.02670767903327942,0.2938142716884613,0.5768582820892334,0.4971843361854553,-9.90077018737793
1745664704.8033526,-0.10689709335565567,-0.03408082574605942,0.29561370611190796,0.4017305374145508,0.6460833549499512,-9.69852066040039
1745664704.8066435,-0.10218925774097443,-0.030106300488114357,0.2954697906970978,0.530881404876709,0.471032053232193,-9.626996994018555
1745664704.8089354,-0.10487284511327744,-0.03569541871547699,0.30575162172317505,0.5450464487075806,0.6667388677597046,-9.551907539367676
1745664704.8140156,-0.09849484264850616,-0.02981114387512207,0.30665504932403564,0.40417909622192383,0.7675601243972778,-9.999083518981934
1745664704.8464198,-0.09751637279987335,-0.028263429179787636,0.3054300546646118,0.6208027005195618,0.5823200941085815,-10.003414154052734
1745664704.8506072,-0.0967753678560257,-0.02220185473561287,0.3067913353443146,0.4038735330104828,0.802712619304657,-9.593362808227539
1745664704.8539152,-0.10252261161804199,-0.034600693732500076,0.30847567319869995,0.5715686678886414,0.4201253056526184,-9.614458084106445
1745664704.8559065,-0.09700633585453033,-0.03399178385734558,0.31022199988365173,0.5146702527999878,0.7479208707809448,-9.968342781066895
1745664704.8851418,-0.1016344279050827,-0.018551766872406006,0.3104322552680969,0.5273475646972656,0.6141279339790344,-10.003446578979492
1745664704.8891602,-0.09920255839824677,-0.03146325796842575,0.3121999204158783,0.4750090539455414,0.6019537448883057,-9.637227058410645
1745664704.8910446,-0.0879676565527916,-0.029679352417588234,0.3124966621398926,0.4875183701515198,0.7605463862419128,-9.541397094726562
1745664704.8953469,-0.10537155717611313,-0.02841791883111,0.3161369562149048,0.6019031405448914,0.5265194773674011,-9.952445983886719
1745664704.8964784,-0.0906374454498291,-0.02800014056265354,0.3153972029685974,0.40143507719039917,0.8047752380371094,-9.930232048034668
1745664704.9317536,-0.09580284357070923,-0.028782760724425316,0.31602105498313904,0.5933623313903809,0.5875424742698669,-9.669118881225586
1745664704.9330382,-0.09462977945804596,-0.02857886627316475,0.3173767030239105,0.41831129789352417,0.7323673963546753,-9.678346633911133
1745664704.935548,-0.0987648218870163,-0.026336168870329857,0.3158152997493744,0.5388127565383911,0.6797215938568115,-9.834817886352539
1745664704.9375634,-0.10004416853189468,-0.035333022475242615,0.31815847754478455,0.5597469210624695,0.5933411717414856,-9.840282440185547
1745664704.9775965,-0.07985009998083115,-0.034267399460077286,0.33390793204307556,0.3894064724445343,0.9101751446723938,-9.748140335083008
1745664704.9793603,-0.06795143336057663,-0.02649582549929619,0.3359152376651764,0.568198561668396,0.6401726603507996,-9.862027168273926
1745664704.98222,-0.08004596084356308,-0.02874242141842842,0.3328666388988495,0.5033366084098816,0.8652726411819458,-9.653155326843262
1745664704.9868476,-0.08528970927000046,-0.02713404968380928,0.3343183696269989,0.42792773246765137,0.711368978023529,-9.662708282470703
1745664705.014437,-0.07960297912359238,-0.035480886697769165,0.33321061730384827,0.6577590703964233,0.7645769119262695,-9.675271987915039
1745664705.0182195,-0.08819440007209778,-0.023126903921365738,0.33600813150405884,0.4139876961708069,0.9625492095947266,-9.873143196105957
1745664705.0223258,-0.07957472652196884,-0.030876535922288895,0.3359657824039459,0.5248185992240906,0.6898009181022644,-9.770756721496582
1745664705.0234053,-0.07025481760501862,-0.03279774636030197,0.33795416355133057,0.4365890622138977,1.0900996923446655,-9.528827667236328
1745664705.0251753,-0.07476463913917542,-0.023826023563742638,0.3390595316886902,0.5657855272293091,0.7871366143226624,-9.735528945922852
1745664705.0630624,-0.06458403170108795,-0.03735748678445816,0.3349219858646393,0.4751605987548828,1.0285567045211792,-9.835102081298828
1745664705.0632353,-0.05528395250439644,-0.028600072488188744,0.3377956748008728,0.4525361657142639,0.924521803855896,-9.823770523071289
1745664705.0659523,-0.05724642798304558,-0.032340843230485916,0.337135374546051,0.5193192362785339,0.8041691780090332,-9.629495620727539
1745664705.068236,-0.062051236629486084,-0.026922190561890602,0.33795562386512756,0.40501824021339417,0.9436643719673157,-9.593132019042969
1745664705.1012125,-0.06359633058309555,-0.03767145052552223,0.33735358715057373,0.6056476831436157,0.5613127946853638,-9.79503059387207
1745664705.1038253,-0.0586705207824707,-0.027699684724211693,0.3374841809272766,0.4095629155635834,0.9779189229011536,-9.78022575378418
1745664705.1052103,-0.07502713799476624,-0.027372365817427635,0.33973878622055054,0.5323382616043091,0.6478136777877808,-9.721620559692383
1745664705.1075912,-0.0661119744181633,-0.039566975086927414,0.3377400040626526,0.4481061100959778,0.8946706056594849,-9.62375545501709
1745664705.109837,-0.06716035306453705,-0.02746480330824852,0.3422936201095581,0.5705002546310425,0.8317200541496277,-9.777341842651367
1745664705.1453187,-0.07044831663370132,-0.032730426639318466,0.34209537506103516,0.44756144285202026,0.7993243336677551,-9.890180587768555
1745664705.1479557,-0.060238391160964966,-0.02768486738204956,0.34009361267089844,0.4190744459629059,1.0836906433105469,-9.58079719543457
1745664705.1490452,-0.06882895529270172,-0.03609079122543335,0.34239134192466736,0.5458961725234985,0.73919278383255,-9.627381324768066
1745664705.154364,-0.05110815167427063,-0.035892415791749954,0.3424157500267029,0.5949754118919373,0.8885400891304016,-9.766414642333984
1745664705.190346,-0.04530134052038193,-0.031640488654375076,0.34254997968673706,0.36988645792007446,1.0526434183120728,-9.761802673339844
1745664705.1919825,-0.042092591524124146,-0.028160834684967995,0.34086376428604126,0.5185459852218628,0.9385935068130493,-9.72265911102295
1745664705.1936839,-0.05584216117858887,-0.039766132831573486,0.3380626440048218,0.36604201793670654,0.8007984161376953,-9.718374252319336
1745664705.1950989,-0.03345169872045517,-0.027797386050224304,0.3426419794559479,0.4967900216579437,0.9132660031318665,-9.582721710205078
1745664705.2291262,-0.06707610189914703,-0.033868663012981415,0.3429414629936218,0.45731353759765625,0.7781868577003479,-9.800211906433105
1745664705.2311928,-0.04543253034353256,-0.030841464176774025,0.3428186774253845,0.4365028440952301,0.8411310315132141,-9.820570945739746
1745664705.233339,-0.052920203655958176,-0.033408910036087036,0.34329670667648315,0.652696430683136,0.8841346502304077,-9.625581741333008
1745664705.2370803,-0.05124875158071518,-0.028573084622621536,0.34413284063339233,0.333731472492218,1.0800045728683472,-9.801773071289062
1745664705.2392743,-0.03904319927096367,-0.03354194015264511,0.3434024155139923,0.5432388782501221,0.8832546472549438,-9.77826976776123
1745664705.274789,-0.04951654002070427,-0.03281354904174805,0.3433154225349426,0.4177183210849762,1.0148776769638062,-9.670522689819336
1745664705.2770205,-0.02812354266643524,-0.028330335393548012,0.3443335294723511,0.4887270927429199,0.9917023777961731,-9.649738311767578
1745664705.2806153,-0.045747898519039154,-0.03684107959270477,0.3419259786605835,0.3642672896385193,1.0372718572616577,-9.842546463012695
1745664705.2843962,-0.027894053608179092,-0.03032073937356472,0.3431425094604492,0.43073758482933044,0.9342057108879089,-9.825467109680176
1745664705.3171563,-0.033737875521183014,-0.03123581036925316,0.34169942140579224,0.5588937997817993,0.9394073486328125,-9.564387321472168
1745664705.3185487,-0.018849803134799004,-0.02990826405584812,0.34437182545661926,0.42216405272483826,0.9105571508407593,-9.67392349243164
1745664705.3208284,0.0043569933623075485,-0.024820001795887947,0.3443548083305359,0.42271095514297485,1.0572935342788696,-9.695167541503906
1745664705.3218555,-0.016269084066152573,-0.025475600734353065,0.3444034159183502,0.524746298789978,0.8751753568649292,-9.849451065063477
1745664705.3593416,-0.006610207259654999,-0.026554565876722336,0.3435490131378174,0.31060904264450073,0.9561907052993774,-9.857211112976074
1745664705.3628812,-0.001415521139279008,-0.02431189827620983,0.34464719891548157,0.566246509552002,0.8638796806335449,-9.56749153137207
1745664705.374323,-0.01554544735699892,-0.022717062383890152,0.3461377024650574,0.35555267333984375,0.9680706262588501,-9.700536727905273
1745664705.3766913,-0.0017410526052117348,-0.023357318714261055,0.34820061922073364,0.4651878774166107,0.8234065175056458,-9.884315490722656
1745664705.3799274,-0.013600580394268036,-0.02896680310368538,0.3463781476020813,0.4905323386192322,0.9374348521232605,-9.740798950195312
1745664705.4051988,0.001054931664839387,-0.01661672629415989,0.348664790391922,0.34263819456100464,1.0005650520324707,-9.716277122497559
1745664705.4100263,-0.016258152201771736,-0.026319116353988647,0.3478015661239624,0.4231218695640564,0.8622094392776489,-9.712347030639648
1745664705.413939,-0.010031156241893768,-0.02469388023018837,0.3460734188556671,0.3908471465110779,0.9282011985778809,-9.714366912841797
1745664705.4172938,-0.00788547657430172,-0.023617831990122795,0.34620481729507446,0.5939850807189941,0.902143657207489,-9.712668418884277
1745664705.445582,-0.02407875657081604,-0.023476939648389816,0.345941960811615,0.2921801805496216,1.0144237279891968,-9.876090049743652
1745664705.4483426,-0.006469656713306904,-0.024230167269706726,0.34727942943573,0.5392146110534668,0.8367503881454468,-9.704880714416504
1745664705.4509225,-0.01849662885069847,-0.02310124784708023,0.3470368981361389,0.4604153633117676,1.0053764581680298,-9.602030754089355
1745664705.4543638,-0.009488129056990147,-0.01880772039294243,0.3490893840789795,0.4098641276359558,0.932083249092102,-9.800209045410156
1745664705.457914,-0.010917271487414837,-0.02891599014401436,0.3500604033470154,0.4569505751132965,0.9566279649734497,-9.8180513381958
1745664705.4882233,-0.0020669607911258936,-0.01609152927994728,0.34978678822517395,0.3951159417629242,1.0980913639068604,-9.673491477966309
1745664705.4893448,0.00021302253298927099,-0.02127564698457718,0.3500078320503235,0.528539776802063,0.9728315472602844,-9.673443794250488
1745664705.4988613,0.0023065763525664806,-0.023096352815628052,0.34718748927116394,0.2841445803642273,1.1442155838012695,-9.861928939819336
1745664705.4990752,0.005570513196289539,-0.02049035206437111,0.3479227125644684,0.53896564245224,0.7806802988052368,-9.782658576965332
1745664705.5308514,0.0006155762821435928,-0.022136718034744263,0.3476031720638275,0.36229151487350464,0.986807644367218,-9.543190002441406
1745664705.5357263,-0.01794702187180519,-0.016270030289888382,0.3492506444454193,0.5460882186889648,0.804706871509552,-9.814595222473145
1745664705.538624,-0.00885697640478611,-0.021147655323147774,0.3476516604423523,0.2959260940551758,1.0844628810882568,-9.804773330688477
1745664705.5415676,-0.005753859877586365,-0.02117854729294777,0.3473779857158661,0.41401299834251404,0.9393548965454102,-9.69284725189209
1745664705.5743127,-0.00912080891430378,-0.021250251680612564,0.34638500213623047,0.4044561982154846,0.9503877758979797,-9.627147674560547
1745664705.5793338,-0.0010919378837570548,-0.014999804086983204,0.3485910892486572,0.4487396776676178,1.067115306854248,-9.720327377319336
1745664705.5835927,-0.013741530478000641,-0.027494441717863083,0.34661659598350525,0.5024281740188599,0.7905278205871582,-9.897234916687012
1745664705.5926259,0.009261555969715118,-0.01611856184899807,0.34866827726364136,0.42540258169174194,1.0419734716415405,-9.717519760131836
1745664705.5927155,-0.01497379969805479,-0.018431473523378372,0.3483075499534607,0.5256707072257996,0.852608323097229,-9.627738952636719
1745664705.6187596,-0.0026631909422576427,-0.024333816021680832,0.3472365140914917,0.31686532497406006,0.9561346173286438,-9.751104354858398
1745664705.6200705,0.0011488504242151976,-0.0219632089138031,0.34969568252563477,0.5998183488845825,0.9073570370674133,-9.724184036254883
1745664705.6215963,-0.009933903813362122,-0.012811658903956413,0.34936031699180603,0.32664769887924194,1.0373960733413696,-9.841036796569824
1745664705.6237648,0.007932348176836967,-0.019202694296836853,0.34834685921669006,0.43442240357398987,1.0355592966079712,-9.653971672058105
1745664705.66743,-0.006474523805081844,-0.030568992719054222,0.3468359708786011,0.4571189880371094,0.9012582898139954,-9.684793472290039
1745664705.6675913,0.012632866390049458,-0.013753664679825306,0.3462095856666565,0.3827097415924072,1.0368164777755737,-9.850127220153809
1745664705.6676803,-0.020015571266412735,-0.02754581905901432,0.34745290875434875,0.40953177213668823,0.7462603449821472,-9.863870620727539
1745664705.66858,-0.0007987099816091359,-0.02836727723479271,0.3469618260860443,0.3828941881656647,1.066915512084961,-9.75525951385498
1745664705.705706,-0.006112548056989908,-0.021509146317839622,0.34591004252433777,0.5268643498420715,0.8623083829879761,-9.639519691467285
1745664705.7093768,-0.011446756310760975,-0.028010601177811623,0.34841570258140564,0.2435435801744461,0.9352849125862122,-9.738612174987793
1745664705.7118485,0.004644852131605148,-0.026656558737158775,0.3476770222187042,0.469294011592865,0.8650986552238464,-9.715925216674805
1745664705.7193208,-0.014987953007221222,-0.02370796725153923,0.3491132855415344,0.4840694069862366,0.8556825518608093,-9.775962829589844
1745664705.719461,0.0028152160812169313,-0.020325180143117905,0.3460414707660675,0.36752423644065857,1.018515944480896,-9.763938903808594
1745664705.747818,-0.013963250443339348,-0.03568987548351288,0.3466099202632904,0.4700630307197571,0.8551566004753113,-9.769035339355469
1745664705.749796,0.0006220429204404354,-0.02427341416478157,0.3453672528266907,0.34952569007873535,0.9971623420715332,-9.74365520477295
1745664705.7581596,-0.014326515607535839,-0.021007269620895386,0.34510189294815063,0.4896363615989685,0.8725970387458801,-9.666452407836914
1745664705.7582338,-0.016671959310770035,-0.032697081565856934,0.34509339928627014,0.30842167139053345,0.8583354949951172,-9.716384887695312
1745664705.7901616,-0.000923449348192662,-0.028071153908967972,0.3463023006916046,0.577610969543457,0.9005218744277954,-9.688817024230957
1745664705.7923274,-0.02536713518202305,-0.025135576725006104,0.34712594747543335,0.37217482924461365,0.9444209933280945,-9.884727478027344
1745664705.795249,-0.00025307945907115936,-0.02564993128180504,0.34785157442092896,0.3736751973628998,0.9104716181755066,-9.734689712524414
1745664705.7962096,-0.005982317961752415,-0.03160414844751358,0.34646540880203247,0.5428112745285034,0.9403715133666992,-9.502599716186523
1745664705.8331463,-0.003674884093925357,-0.02040739357471466,0.34909671545028687,0.30028676986694336,1.0363065004348755,-9.849058151245117
1745664705.8363538,-0.000346040993463248,-0.030513092875480652,0.3473619222640991,0.4920620024204254,0.926655113697052,-9.869072914123535
1745664705.8395438,0.0027890056371688843,-0.02782377228140831,0.34492841362953186,0.2884123921394348,0.9741687774658203,-9.730419158935547
1745664705.8448105,0.0072913384065032005,-0.021566404029726982,0.3443208336830139,0.48888635635375977,0.8680288195610046,-9.58759880065918
1745664705.847115,-0.017793316394090652,-0.031866200268268585,0.34219759702682495,0.3546585738658905,0.8925026655197144,-9.772181510925293
1745664705.8801916,0.00303443381562829,-0.02979368530213833,0.34255892038345337,0.5055146813392639,0.8217039108276367,-9.815657615661621
1745664705.8834295,-0.017472174018621445,-0.027085328474640846,0.3436855375766754,0.5035150647163391,0.9094012379646301,-9.771759986877441
1745664705.8887155,-0.012411056086421013,-0.025162015110254288,0.3429011404514313,0.2598371207714081,0.853161633014679,-9.729048728942871
1745664705.8936493,-0.01056651584804058,-0.0338498130440712,0.34404438734054565,0.3238002061843872,1.1480026245117188,-9.664040565490723
1745664705.9228368,0.00639632111415267,-0.02591731585562229,0.342627614736557,0.48534464836120605,0.9622705578804016,-9.678750991821289
1745664705.9230938,-0.008325917646288872,-0.027994628995656967,0.34162548184394836,0.35923972725868225,0.9395674467086792,-9.825721740722656
1745664705.9231868,-0.003904451848939061,-0.02589193359017372,0.34128865599632263,0.3433833420276642,0.8048297166824341,-9.759101867675781
1745664705.9251342,-0.009198618121445179,-0.030834993347525597,0.342877596616745,0.5603634119033813,0.7478702664375305,-9.544693946838379
1745664705.926756,-0.02029331959784031,-0.01927923411130905,0.34437334537506104,0.33370596170425415,0.9223304986953735,-9.777639389038086
1745664705.964058,-0.021178966388106346,-0.031247958540916443,0.34428784251213074,0.5646279454231262,0.6313555240631104,-9.931265830993652
1745664705.9685357,-0.01780138723552227,-0.028274303302168846,0.344257116317749,0.4278803765773773,1.06805419921875,-9.724658012390137
1745664705.9713662,-0.018583739176392555,-0.018144698813557625,0.345938116312027,0.4354395866394043,0.860960841178894,-9.649423599243164
1745664705.973755,-0.019851651042699814,-0.03271561488509178,0.34687694907188416,0.31655874848365784,0.9287074208259583,-9.688695907592773
1745664706.0058138,-0.009394926950335503,-0.02537522092461586,0.34607067704200745,0.4388696551322937,1.0158946514129639,-9.703241348266602
1745664706.0087078,-0.013554763980209827,-0.027458559721708298,0.3455756604671478,0.4569706916809082,0.9233996272087097,-9.815237045288086
1745664706.0106661,0.00022185109264682978,-0.023239968344569206,0.34569600224494934,0.2944307327270508,1.1328505277633667,-9.790754318237305
1745664706.0152135,-0.012625103816390038,-0.023844368755817413,0.34259459376335144,0.23850731551647186,1.0627695322036743,-9.944059371948242
1745664706.0492373,0.0033606328070163727,-0.03217730298638344,0.34270045161247253,0.5442849397659302,0.7676281929016113,-9.5091552734375
1745664706.0505216,-0.012120666913688183,-0.028680065646767616,0.3404141366481781,0.3890436589717865,1.0371620655059814,-9.555986404418945
1745664706.0529644,-0.008965747430920601,-0.03072676621377468,0.34346479177474976,0.4238034188747406,0.7794134020805359,-10.024694442749023
1745664706.0543504,-0.006347569637000561,-0.03660457953810692,0.3418523073196411,0.4484226107597351,0.9218355417251587,-9.896954536437988
1745664706.0909705,-0.0018048444762825966,-0.018638765439391136,0.3430674970149994,0.4271838068962097,0.9580381512641907,-9.51972770690918
1745664706.094729,-0.01522599346935749,-0.033855050802230835,0.3422905504703522,0.4537038207054138,0.7835446000099182,-9.626401901245117
1745664706.098285,-0.0030575692653656006,-0.03707266226410866,0.34263473749160767,0.3394610285758972,1.0588457584381104,-9.850286483764648
1745664706.102092,-0.005870100576430559,-0.02758784219622612,0.34265995025634766,0.49930858612060547,0.8317079544067383,-9.936513900756836
1745664706.1026905,-0.006777492817491293,-0.02468363381922245,0.3424345552921295,0.24201242625713348,1.0402143001556396,-9.609859466552734
1745664706.1354036,-0.006433151662349701,-0.033678408712148666,0.3412247598171234,0.4793277382850647,0.7750647664070129,-9.478109359741211
1745664706.1393235,-0.008285468444228172,-0.03919076547026634,0.3410477340221405,0.442619651556015,0.928043007850647,-9.813188552856445
1745664706.1416507,-0.0068037183955311775,-0.020843172445893288,0.342500776052475,0.34295493364334106,0.9404544830322266,-10.059440612792969
1745664706.1447728,-0.012854285538196564,-0.033306706696748734,0.34117767214775085,0.4047381281852722,0.767579197883606,-9.623332023620605
1745664706.1771731,0.0012040917063131928,-0.030321890488266945,0.3437916934490204,0.4032188355922699,1.015284776687622,-9.413520812988281
1745664706.179517,-0.01404944621026516,-0.029912784695625305,0.34269508719444275,0.5063232183456421,0.7782148122787476,-9.849508285522461
1745664706.1816232,-0.005592243745923042,-0.02929305098950863,0.344261109828949,0.24169668555259705,0.9552237391471863,-10.085638046264648
1745664706.1830232,-0.0028681212570518255,-0.027203064411878586,0.34418344497680664,0.5195231437683105,0.8818219304084778,-9.539170265197754
1745664706.1863065,-0.006629438605159521,-0.03190424665808678,0.34352022409439087,0.3622515797615051,0.996200680732727,-9.486677169799805
1745664706.2209997,-0.003469448070973158,-0.02819424867630005,0.3445349931716919,0.4262555241584778,0.925556480884552,-9.952969551086426
1745664706.2251403,-0.012266911566257477,-0.034692082554101944,0.34437912702560425,0.4417559504508972,0.758432149887085,-9.999046325683594
1745664706.2280486,0.006947259418666363,-0.023220309987664223,0.34211260080337524,0.3688945174217224,1.0628395080566406,-9.52293586730957
1745664706.231009,-0.007689174264669418,-0.029757197946310043,0.34712398052215576,0.45194822549819946,0.953181266784668,-9.803897857666016
1745664706.267973,0.013922895304858685,-0.01996653899550438,0.34481480717658997,0.3430958390235901,1.0277272462844849,-9.949634552001953
1745664706.270633,0.0009697560453787446,-0.02963140234351158,0.34389954805374146,0.38053184747695923,0.9221655130386353,-9.695208549499512
1745664706.2746637,0.012522891163825989,-0.02614075317978859,0.34209775924682617,0.3022057116031647,0.9774400591850281,-9.504158973693848
1745664706.278251,0.00684167817234993,-0.02602440118789673,0.34344595670700073,0.45751237869262695,0.8590767979621887,-9.684171676635742
1745664706.3075337,-0.0013980537187308073,-0.02732481062412262,0.34021440148353577,0.18546238541603088,0.9625749588012695,-9.931573867797852
1745664706.3116882,0.020306028425693512,-0.025003725662827492,0.3397659957408905,0.4386599659919739,0.8937522172927856,-9.669063568115234
1745664706.3131006,-0.0014700114261358976,-0.026076415553689003,0.3385785222053528,0.23693904280662537,1.0077693462371826,-9.617850303649902
1745664706.3142948,0.021416712552309036,-0.02466065250337124,0.3380468785762787,0.2560553252696991,0.8344576954841614,-9.80523681640625
1745664706.3490973,0.012747618369758129,-0.028272856026887894,0.33869069814682007,0.3674434423446655,0.8792359232902527,-9.750086784362793
1745664706.3511393,0.017234429717063904,-0.01619744673371315,0.3398664593696594,0.23862025141716003,0.8393130302429199,-9.707137107849121
1745664706.3571296,0.018984735012054443,-0.028304051607847214,0.33953943848609924,0.4546636939048767,0.8390671014785767,-9.617107391357422
1745664706.3583014,0.005572118796408176,-0.026301130652427673,0.3368336260318756,0.16720178723335266,0.9330463409423828,-9.907054901123047
1745664706.358363,0.0228557325899601,-0.021733101457357407,0.33525148034095764,0.4443129599094391,0.7734681367874146,-9.785006523132324
1745664706.394859,0.04743754491209984,-0.023420235142111778,0.3129815459251404,0.19924411177635193,0.9406536817550659,-9.720913887023926
1745664706.3994672,0.0649145096540451,-0.02498454973101616,0.3138860762119293,0.4612850546836853,0.6817678213119507,-9.64091968536377
1745664706.4032772,0.052791696041822433,-0.025080109015107155,0.3131434917449951,0.2996077239513397,0.9506974220275879,-9.873210906982422
1745664706.4089108,0.05794789269566536,-0.017505381256341934,0.31323105096817017,0.2646626830101013,0.6648098826408386,-9.957919120788574
1745664706.435613,0.06463363766670227,-0.033172644674777985,0.3105985224246979,0.4376128315925598,0.8386686444282532,-9.56141471862793
1745664706.4405801,0.05623015761375427,-0.02077142335474491,0.3104596734046936,0.24846717715263367,0.8431164026260376,-9.771257400512695
1745664706.4439604,0.06601777672767639,-0.027796348556876183,0.3132147789001465,0.29965946078300476,0.6249847412109375,-9.98591423034668
1745664706.448257,0.060893356800079346,-0.023384086787700653,0.3089572787284851,0.19811779260635376,0.9588468670845032,-9.685064315795898
1745664706.4505463,0.071080781519413,-0.02447240613400936,0.31008052825927734,0.3887045979499817,0.7408057451248169,-9.632655143737793
1745664706.4809103,0.059194933623075485,-0.02892358973622322,0.3078667223453522,0.12898443639278412,0.927680492401123,-9.859838485717773
1745664706.4848473,0.07863414287567139,-0.02608029916882515,0.3028663098812103,0.22735710442066193,0.7263151407241821,-9.883638381958008
1745664706.488433,0.06389279663562775,-0.023765448480844498,0.3039848506450653,0.23907868564128876,0.6812344789505005,-9.665674209594727
1745664706.4912248,0.07661443948745728,-0.02056855522096157,0.30356672406196594,0.16834723949432373,0.7067912817001343,-9.673059463500977
1745664706.5219917,0.05739448592066765,-0.03100324235856533,0.30489373207092285,0.2658061981201172,0.49490469694137573,-9.874049186706543
1745664706.5246937,0.0709628239274025,-0.02426442690193653,0.30260759592056274,0.15031000971794128,0.6599503755569458,-9.83967399597168
1745664706.526697,0.051329053938388824,-0.018456818535923958,0.3012692928314209,0.3620147705078125,0.5846603512763977,-9.620694160461426
1745664706.5280542,0.04955326020717621,-0.03215575963258743,0.3013283908367157,0.1969633400440216,0.6289940476417542,-9.717912673950195
1745664706.530196,0.049168433994054794,-0.025323236361145973,0.29859670996665955,0.38009709119796753,0.651158332824707,-9.85270881652832
1745664706.5683727,0.02948397770524025,-0.026622435078024864,0.29641956090927124,0.1396191418170929,0.6201409101486206,-9.962072372436523
1745664706.5684478,0.05003967136144638,-0.020763559266924858,0.298577219247818,0.25784701108932495,0.782756507396698,-9.560087203979492
1745664706.5714164,0.03162388876080513,-0.033016644418239594,0.2979745864868164,0.33097952604293823,0.6824353933334351,-9.599604606628418
1745664706.583558,0.05077425763010979,-0.028316199779510498,0.2932654321193695,0.20407983660697937,0.9485830068588257,-9.980612754821777
1745664706.6094892,0.062309809029102325,-0.030220966786146164,0.28924041986465454,0.1702767014503479,0.4467344880104065,-9.577372550964355
1745664706.61302,0.07943413406610489,-0.03055521473288536,0.2904071509838104,0.3255009949207306,0.6647394895553589,-9.435603141784668
1745664706.618093,0.03947567194700241,-0.03238363564014435,0.28632086515426636,0.3598567843437195,0.38840052485466003,-10.092690467834473
1745664706.622207,0.055241674184799194,-0.02586515247821808,0.2879253029823303,0.1380765438079834,0.6234608888626099,-10.107358932495117
1745664706.6509316,0.03922102600336075,-0.023882055655121803,0.28515446186065674,0.30957260727882385,0.45612025260925293,-9.48112964630127
1745664706.652346,0.03501545265316963,-0.03127044811844826,0.2856106758117676,0.23393109440803528,0.5686168670654297,-9.454338073730469
1745664706.6541398,0.03655318170785904,-0.02782585285604,0.2866744101047516,0.3502000868320465,0.6740096211433411,-9.99833869934082
1745664706.6570554,0.02951684594154358,-0.03231213241815567,0.2854478657245636,0.17031432688236237,0.6730329394340515,-10.207277297973633
1745664706.6950378,0.06119141727685928,-0.015533855184912682,0.28284865617752075,0.18019190430641174,0.9393602609634399,-9.463464736938477
1745664706.697585,0.042232029139995575,-0.026796692982316017,0.2847844958305359,0.2549647092819214,0.643128514289856,-9.382074356079102
1745664706.6987443,0.06151772290468216,-0.033218737691640854,0.28214749693870544,0.2399817407131195,0.8495250940322876,-9.9629487991333
1745664706.7041209,0.058560680598020554,-0.026847830042243004,0.28243887424468994,0.4183093011379242,0.5765929222106934,-10.245851516723633
1745664706.705833,0.06635193526744843,-0.0182956513017416,0.27955928444862366,0.13433246314525604,0.8418806791305542,-9.66033935546875
1745664706.7392054,0.05779086425900459,-0.025957509875297546,0.28182968497276306,0.27496209740638733,0.4952296316623688,-9.351892471313477
1745664706.7471647,0.00323302298784256,-0.02239828370511532,0.24726136028766632,0.15368930995464325,0.3966701924800873,-9.438955307006836
1745664706.7486608,0.017793161794543266,-0.03886135295033455,0.24254155158996582,0.09183890372514725,0.5866736173629761,-9.949334144592285
1745664706.7487018,0.01855771243572235,-0.019309161230921745,0.24069663882255554,0.2546471357345581,0.5915573835372925,-10.057856559753418
1745664706.779452,0.016460256651043892,-0.022944480180740356,0.23871192336082458,0.02730756439268589,0.7034419775009155,-9.704041481018066
1745664706.7817082,0.03289123252034187,-0.025993678718805313,0.2379087507724762,0.1836053431034088,0.665182888507843,-9.453971862792969
1745664706.7865725,0.034156423062086105,-0.03513465076684952,0.23941759765148163,0.3403819799423218,0.6233991384506226,-9.887958526611328
1745664706.7875931,0.05188234522938728,-0.02041798271238804,0.23635224997997284,0.08789634704589844,0.7358441352844238,-10.183184623718262
1745664706.7909515,0.04733574390411377,-0.027324914932250977,0.23669782280921936,0.15189030766487122,0.44785863161087036,-9.790387153625488
1745664706.8240438,0.0657135546207428,-0.02731635794043541,0.23593874275684357,0.11770987510681152,0.688958466053009,-9.258256912231445
1745664706.8252852,0.046304069459438324,-0.02583445981144905,0.23303858935832977,0.2128484547138214,0.4099777638912201,-9.804811477661133
1745664706.828346,0.047753069549798965,-0.03573060408234596,0.22904041409492493,0.1626732051372528,0.49059638381004333,-10.22900104522705
1745664706.8283885,0.0549970380961895,-0.02555404230952263,0.22662493586540222,0.1344688981771469,0.5218255519866943,-9.888370513916016
1745664706.865693,0.04020128399133682,-0.02231297641992569,0.22331790626049042,0.10935097932815552,0.3878239095211029,-9.323347091674805
1745664706.869664,0.0521814301609993,-0.033521704375743866,0.2259272336959839,0.09431692212820053,0.37908148765563965,-9.565813064575195
1745664706.8713417,0.026414772495627403,-0.034109923988580704,0.22614581882953644,0.13712109625339508,0.1126219779253006,-10.194558143615723
1745664706.8750157,0.03527677059173584,-0.020596865564584732,0.2255210429430008,-0.09167168289422989,0.5918251276016235,-9.911893844604492
1745664706.8787458,0.010099053382873535,-0.025425612926483154,0.2209969460964203,0.0871947780251503,0.20031175017356873,-9.421479225158691
1745664706.9120507,0.02798248454928398,-0.029042795300483704,0.2158540040254593,0.14184316992759705,0.7083094120025635,-9.44491958618164
1745664706.9151514,-0.0044512031599879265,-0.03418378159403801,0.21471023559570312,0.25525081157684326,0.4197024405002594,-10.323430061340332
1745664706.920161,0.03755713254213333,-0.019441062584519386,0.21035368740558624,0.3320126533508301,0.5967448949813843,-9.966402053833008
1745664706.9219427,0.02788778580725193,-0.024518350139260292,0.2103356420993805,0.2245790958404541,0.6766716837882996,-9.407209396362305
1745664706.9532583,0.03070593997836113,-0.036368586122989655,0.21555593609809875,0.22536644339561462,0.16858753561973572,-9.71285629272461
1745664706.9567184,0.06007727235555649,-0.026936471462249756,0.19738078117370605,0.24385805428028107,-0.18389828503131866,-9.555230140686035
1745664706.9582324,0.04965754598379135,-0.02108096331357956,0.19767121970653534,0.26908189058303833,0.5961878299713135,-9.555072784423828
1745664706.9598885,0.01671847328543663,-0.024777816608548164,0.20052357017993927,0.1903805434703827,-0.18969988822937012,-10.305351257324219
1745664706.9985018,0.07054711878299713,-0.011334788054227829,0.19748196005821228,0.14263597130775452,0.888759434223175,-9.653863906860352
1745664707.0008178,0.011370471678674221,-0.018663592636585236,0.19273746013641357,0.17106303572654724,0.30265384912490845,-9.55308723449707
1745664707.0031052,0.06882759183645248,-0.026360562071204185,0.18926700949668884,-0.04459512606263161,0.6106017231941223,-9.796209335327148
1745664707.0056348,0.037115294486284256,-0.011638236232101917,0.18424420058727264,0.2314494103193283,0.6686729788780212,-9.904397010803223
1745664707.0390427,0.04684875160455704,-0.019070541486144066,0.1847853660583496,0.015800971537828445,0.1567627489566803,-9.910451889038086
1745664707.0411515,0.05527033284306526,-0.011405045166611671,0.18397173285484314,0.28714409470558167,0.5936287045478821,-9.369321823120117
1745664707.0436103,0.028252597898244858,-0.018139135092496872,0.18469521403312683,0.3370782732963562,0.17051589488983154,-9.858488082885742
1745664707.0454206,0.06056264787912369,-0.013332421891391277,0.18105170130729675,0.16190248727798462,0.6391028761863708,-10.068375587463379
1745664707.0494366,0.032960087060928345,-0.015017097815871239,0.18220505118370056,0.37755364179611206,0.27361035346984863,-9.833592414855957
1745664707.0810728,0.06401790678501129,-0.01457144133746624,0.17833715677261353,0.08641298115253448,0.6707659959793091,-9.575333595275879
1745664707.0848217,0.04405057057738304,-0.015023785643279552,0.17801609635353088,0.14845795929431915,0.43057671189308167,-9.750448226928711
1745664707.0859826,0.050506673753261566,0.0027354122139513493,0.1402663290500641,0.3285398483276367,0.15244626998901367,-9.767192840576172
1745664707.0861278,0.054852813482284546,-0.0009370030020363629,0.13976933062076569,0.2565687894821167,0.33683472871780396,-9.896007537841797
1745664707.1234758,0.05535421520471573,0.012336642481386662,0.1409197300672531,0.40320318937301636,0.18051621317863464,-9.861605644226074
1745664707.1267405,0.04219129681587219,0.0052526891231536865,0.14180229604244232,0.19871532917022705,0.2290504425764084,-9.703580856323242
1745664707.1301637,0.05140053480863571,0.0012039190623909235,0.14527422189712524,0.23841747641563416,0.25862544775009155,-9.697108268737793
1745664707.1333299,0.043229423463344574,0.007151199970394373,0.14464852213859558,0.21982698142528534,0.40982532501220703,-9.797998428344727
1745664707.1363382,0.05122401565313339,0.01622176170349121,0.14187274873256683,-0.02854112908244133,0.45077723264694214,-9.841714859008789
1745664707.1733236,0.05505654960870743,0.00037803221493959427,0.14089372754096985,0.34259194135665894,0.39184460043907166,-9.562094688415527
1745664707.1755984,0.05884677171707153,0.012402285821735859,0.1382998675107956,0.07341982424259186,0.5443723201751709,-9.829156875610352
1745664707.180089,0.06326397508382797,0.00927341915667057,0.13797497749328613,0.2748289704322815,0.16774067282676697,-9.97558879852295
1745664707.18317,0.06243043392896652,0.006054119672626257,0.13931016623973846,0.23558227717876434,0.3035549521446228,-9.613770484924316
1745664707.2083907,0.06217183917760849,0.01696118898689747,0.1426144540309906,0.2740025520324707,0.051666878163814545,-9.615509033203125
1745664707.2131202,0.05050616338849068,0.003079715883359313,0.1457436978816986,0.23938219249248505,0.13359984755516052,-9.876432418823242
1745664707.21319,0.05389968305826187,0.01659148745238781,0.14455755054950714,0.1476464569568634,0.3378073275089264,-9.912528038024902
1745664707.2143645,0.04174031689763069,0.009035816416144371,0.14380809664726257,0.28905749320983887,0.15014387667179108,-9.646624565124512
1745664707.217555,0.05050098896026611,0.011043185368180275,0.1403861939907074,0.12704922258853912,0.5648072361946106,-9.663778305053711
1745664707.2573416,0.04562271013855934,0.006609109230339527,0.1384800523519516,0.2955530285835266,0.05715671181678772,-9.930584907531738
1745664707.258199,0.044535163789987564,0.014691120013594627,0.13846641778945923,0.09142018854618073,0.3839188516139984,-9.791431427001953
1745664707.2629724,0.04549608379602432,0.014011109247803688,0.1397874802350998,0.22642545402050018,0.09118146449327469,-9.61199951171875
1745664707.2663107,0.040247827768325806,0.006998664233833551,0.14365606009960175,0.30108147859573364,0.16365744173526764,-9.656193733215332
1745664707.2981272,0.046700529754161835,0.013417446985840797,0.14389361441135406,0.2656497359275818,0.34340375661849976,-10.011716842651367
1745664707.3006787,0.05470099300146103,0.011522063054144382,0.14249148964881897,0.32913509011268616,0.2728179395198822,-9.886448860168457
1745664707.3019285,0.03828388825058937,0.016692668199539185,0.1385030299425125,0.25623446702957153,0.1468999683856964,-9.729990005493164
1745664707.3031456,0.03963080793619156,0.006305841263383627,0.13924789428710938,0.3308044672012329,0.17744655907154083,-9.9336576461792
1745664707.3407898,0.042224667966365814,0.013636213727295399,0.1399974524974823,0.1940866857767105,0.23360669612884521,-9.847456932067871
1745664707.342207,0.03128179907798767,0.011603734456002712,0.14143800735473633,0.2868926525115967,0.03943482041358948,-9.657220840454102
1745664707.3446846,0.04011223837733269,0.010744146071374416,0.14199182391166687,0.0883660763502121,0.2747180461883545,-9.670454978942871
1745664707.347018,0.03413524478673935,0.010250050574541092,0.14281874895095825,0.2754722237586975,0.16498269140720367,-9.80810546875
1745664707.347063,0.03363910689949989,0.011654665693640709,0.13922016322612762,0.12257315963506699,0.36412930488586426,-9.869413375854492
1745664707.3832016,0.04824017733335495,0.015033009462058544,0.13869118690490723,0.2731841504573822,0.3387266993522644,-9.70834732055664
1745664707.3848026,0.031049678102135658,0.007032179273664951,0.1363556683063507,0.2783607542514801,0.23603090643882751,-9.741899490356445
1745664707.389413,0.05034031346440315,0.011279386468231678,0.13678278028964996,0.26158177852630615,0.23075918853282928,-9.762929916381836
1745664707.391993,0.03152640163898468,0.011294427327811718,0.13928203284740448,0.35158729553222656,0.06121283024549484,-9.839675903320312
1745664707.4257128,0.04028346762061119,0.009028102271258831,0.14144203066825867,0.1684722602367401,0.18794599175453186,-9.805620193481445
1745664707.4267414,0.0359891802072525,0.00802872609347105,0.1394258737564087,0.30945414304733276,0.12138637155294418,-9.696080207824707
1745664707.4280934,0.03202017396688461,0.004512249957770109,0.14078876376152039,0.2055094987154007,0.26518315076828003,-9.758437156677246
1745664707.4312277,0.04663226008415222,-0.0019494376610964537,0.06382809579372406,0.46233469247817993,-0.19395573437213898,-9.564476013183594
1745664707.4682217,0.03682921081781387,-0.0017489331075921655,0.06142169237136841,0.3395809531211853,0.11095724999904633,-10.179011344909668
1745664707.4707112,0.020880844444036484,0.007008238695561886,0.06126639246940613,0.12231390178203583,-0.06284590810537338,-10.171124458312988
1745664707.4796526,0.051478080451488495,0.0033306225668638945,0.06113435700535774,0.3786788284778595,0.0973818302154541,-9.265087127685547
1745664707.4797623,0.02337496355175972,-0.00011144871677970514,0.05646216869354248,0.1107504591345787,0.2622441351413727,-9.516539573669434
1745664707.5122733,0.059548281133174896,0.002701507182791829,0.05642669275403023,0.318439245223999,0.1918017715215683,-10.12924575805664
1745664707.5155468,0.04759449511766434,0.00593126704916358,0.051513493061065674,0.27508360147476196,0.49533867835998535,-9.932746887207031
1745664707.5160384,0.0659438893198967,0.008353093639016151,0.048185352236032486,0.286301851272583,0.06805141270160675,-9.548114776611328
1745664707.5190814,0.05927661061286926,-0.0041236779652535915,0.04601794481277466,0.4123849868774414,0.36791664361953735,-9.605942726135254
1745664707.5235515,0.06673426926136017,0.003639762056991458,0.04221522808074951,0.45735329389572144,0.09972859174013138,-10.144697189331055
1745664707.5574267,0.07335416972637177,0.0010267759207636118,0.03691781312227249,0.429577112197876,0.26160815358161926,-10.024636268615723
1745664707.559614,0.07713620364665985,0.00815066508948803,0.030242588371038437,0.44665437936782837,0.34984466433525085,-9.390342712402344
1745664707.5618494,0.08672647178173065,-0.0020646671764552593,0.02929050102829933,0.585890531539917,-0.007549306843429804,-9.640691757202148
1745664707.5622206,0.07731445133686066,-0.003716450883075595,0.023873796686530113,0.38030916452407837,0.15743738412857056,-10.153793334960938
1745664707.5971785,0.09866251051425934,0.010962743312120438,0.02368866093456745,0.33266833424568176,-0.10814259946346283,-10.074689865112305
1745664707.5984073,0.07419885694980621,0.010146352462470531,0.0207463838160038,0.21754245460033417,-0.10824853181838989,-9.337850570678711
1745664707.6011956,0.09144226461648941,0.007096579764038324,0.018839476630091667,0.3505634665489197,-0.022192802280187607,-9.366827011108398
1745664707.605254,0.0645870640873909,0.0008336424943991005,0.011723252013325691,0.4800144135951996,-0.0029013841412961483,-10.16722583770752
1745664707.6078353,0.07991886138916016,0.01789110340178013,0.006944823078811169,0.25258246064186096,0.01794159971177578,-10.27968692779541
1745664707.6414673,0.07738461345434189,0.013730687089264393,0.0024616229347884655,0.5271891355514526,0.12308730185031891,-9.281118392944336
1745664707.6431372,0.04288803040981293,0.010031801648437977,-0.0030741021037101746,0.3352448642253876,-0.17499014735221863,-9.478608131408691
1745664707.6449032,0.07431892305612564,0.0037076338194310665,-0.002770948689430952,0.5885249972343445,0.03970187157392502,-10.054784774780273
1745664707.647084,0.041478563100099564,0.018436886370182037,-0.006035275291651487,0.30043330788612366,0.15208867192268372,-10.271341323852539
1745664707.684597,0.11386346817016602,0.010133820585906506,-0.020543258637189865,0.4427877962589264,0.2050163298845291,-10.168618202209473
1745664707.6869974,0.12912794947624207,0.014143435284495354,-0.02327585779130459,0.24841086566448212,0.1847223937511444,-9.473905563354492
1745664707.689079,0.11851310729980469,0.01270601712167263,-0.02482137456536293,0.4649600088596344,-0.12385290861129761,-9.4125337600708
1745664707.699751,0.11574385315179825,0.0035134057980030775,-0.0274329986423254,0.40168505907058716,-0.22743932902812958,-10.04774284362793
1745664707.6998315,0.11925716698169708,0.017275582998991013,-0.030581578612327576,0.46590980887413025,-0.14717265963554382,-10.045378684997559
1745664707.7304537,0.08149347454309464,0.01607896201312542,-0.03336847573518753,0.5459049940109253,-0.211637943983078,-9.619423866271973
1745664707.7334666,0.09970247745513916,0.00816074013710022,-0.039702631533145905,0.43826428055763245,-0.1777884066104889,-9.59543514251709
1745664707.7379763,0.07960236072540283,0.008053787052631378,-0.04168549180030823,0.5045807361602783,-0.17810721695423126,-9.87309741973877
1745664707.7420611,0.07188571989536285,0.019092341884970665,-0.04352770373225212,0.27229586243629456,-0.11081133782863617,-10.008252143859863
1745664707.7723584,0.08584204316139221,0.019105330109596252,-0.04632960632443428,0.4186144471168518,-0.12141617387533188,-9.557920455932617
1745664707.7749345,0.07088978588581085,0.009426381438970566,-0.05059868097305298,0.2696790099143982,0.08008559048175812,-9.547907829284668
1745664707.7785342,0.08848237991333008,0.02179475873708725,-0.05006624385714531,0.4095635414123535,0.08397909253835678,-9.963798522949219
1745664707.7856314,0.09177379310131073,0.01407304871827364,-0.0576837882399559,0.43693846464157104,0.14912594854831696,-9.945310592651367
1745664707.8137765,0.10093767940998077,0.014050858095288277,-0.13331714272499084,0.4532107710838318,-0.07196889817714691,-9.503348350524902
1745664707.8172963,0.07993573695421219,-0.0014276602305471897,-0.13524942100048065,0.6255931854248047,-0.2493160516023636,-9.593709945678711
1745664707.818306,0.0948956161737442,0.0024363715201616287,-0.13962721824645996,0.4548640847206116,-0.1942555010318756,-10.037656784057617
1745664707.8220284,0.10034684091806412,0.011482165195047855,-0.14149267971515656,0.5187065005302429,-0.3102472722530365,-9.887945175170898
1745664707.865199,0.08556034415960312,0.0035847884137183428,-0.1401064693927765,0.45023828744888306,-0.38278675079345703,-9.476766586303711
1745664707.8689682,0.09168262779712677,0.005980691872537136,-0.14219389855861664,0.5754356384277344,-0.3723140358924866,-9.510292053222656
1745664707.874296,0.060132063925266266,-0.004490132909268141,-0.14511477947235107,0.5466456413269043,-0.4973824620246887,-10.113616943359375
1745664707.878364,0.09504779428243637,0.01045785378664732,-0.1482272893190384,0.4261135160923004,-0.2159040868282318,-9.978376388549805
1745664707.880186,0.06020977348089218,0.004524783696979284,-0.151536226272583,0.5342287421226501,-0.4332822263240814,-9.466506004333496
1745664707.9011052,0.06913642585277557,-0.0009492120589129627,-0.15124432742595673,0.4874161183834076,-0.29092979431152344,-9.546690940856934
1745664707.9061456,0.06817840784788132,-0.0004049256385769695,-0.1555085927248001,0.6226446032524109,-0.36266347765922546,-9.957771301269531
1745664707.9085588,0.06157156825065613,0.00016132583550643176,-0.15526947379112244,0.3557041585445404,-0.37918683886528015,-10.099355697631836
1745664707.911951,0.08447642624378204,0.009349167346954346,-0.15821056067943573,0.5777100324630737,-0.2666262984275818,-9.45484733581543
1745664707.9460144,0.05846162885427475,-0.0022641464602202177,-0.15789440274238586,0.4980795979499817,-0.2683984935283661,-9.515169143676758
1745664707.949694,0.08062349259853363,-0.0023355898447334766,-0.16133615374565125,0.46632736921310425,-0.23895283043384552,-9.959124565124512
1745664707.9529276,0.06846953928470612,0.0008057629456743598,-0.163097083568573,0.535182774066925,-0.31475868821144104,-10.006704330444336
1745664707.9564395,0.08094216138124466,0.001311223371885717,-0.1662256270647049,0.3809428811073303,-0.3353573977947235,-9.702423095703125
1745664707.9596746,0.07274036109447479,-0.00393968028947711,-0.1678081899881363,0.6559679508209229,-0.35738635063171387,-9.455497741699219
1745664707.987896,0.05763236805796623,-0.004098199307918549,-0.16921742260456085,0.44431909918785095,-0.3083110451698303,-9.870073318481445
1745664707.9900982,0.07534273713827133,0.001476774807088077,-0.1728328913450241,0.5723485350608826,-0.40580448508262634,-9.90648365020752
1745664707.9915547,0.05644990876317024,0.003910268656909466,-0.17602406442165375,0.5676003694534302,-0.3197767734527588,-9.62101936340332
1745664707.9940236,0.08116679638624191,-0.002489522099494934,-0.17708756029605865,0.6546987295150757,-0.3945472836494446,-9.648244857788086
1745664708.0305784,0.07556114345788956,-9.053652320289984e-05,-0.1871921569108963,0.5902588963508606,-0.3700005114078522,-10.014302253723145
1745664708.0337307,0.06574171781539917,-0.001277747331187129,-0.19065459072589874,0.5208531618118286,-0.32232245802879333,-9.95886516571045
1745664708.0368056,0.0683416947722435,0.004620733205229044,-0.19508710503578186,0.6381375789642334,-0.4384098947048187,-9.610604286193848
1745664708.0388596,0.04609616473317146,-0.010624928399920464,-0.19579191505908966,0.6307516098022461,-0.6041216850280762,-9.649325370788574
1745664708.071992,0.0747971385717392,-0.0006191094871610403,-0.19409829378128052,0.47310176491737366,-0.2746049761772156,-9.862594604492188
1745664708.0744212,0.03730308264493942,-0.0009630281710997224,-0.1964966505765915,0.5474626421928406,-0.5652415156364441,-9.90938663482666
1745664708.0749984,0.07673759758472443,-0.000976547715254128,-0.19905798137187958,0.46093112230300903,-0.2521485388278961,-9.58012580871582
1745664708.0775166,0.05729329586029053,-0.00740030175074935,-0.2011527717113495,0.6527315974235535,-0.15099003911018372,-9.585195541381836
1745664708.1162324,0.06402911990880966,-0.0030316240154206753,-0.20509903132915497,0.3836804926395416,-0.4140954911708832,-10.083892822265625
1745664708.1182368,0.08806909620761871,0.002568902913480997,-0.20686626434326172,0.4840308129787445,-0.15091899037361145,-9.749792098999023
1745664708.1206937,0.0630013719201088,-0.006075995974242687,-0.2104596346616745,0.5125530362129211,-0.5450540781021118,-9.590780258178711
1745664708.1218421,0.08472242206335068,-0.0028287770692259073,-0.20755398273468018,0.48702535033226013,-0.4050975739955902,-9.740180015563965
1745664708.124077,0.06316004693508148,-0.009679073467850685,-0.2102963924407959,0.646371603012085,-0.5839855074882507,-9.942304611206055
1745664708.1572008,0.07208780199289322,0.0013588210567831993,-0.21208612620830536,0.5124882459640503,-0.4863866865634918,-9.825765609741211
1745664708.1585906,0.062452781945466995,-0.015205180272459984,-0.25321823358535767,0.618991494178772,-0.6866711974143982,-9.666803359985352
1745664708.1608028,0.06735946238040924,-0.011578397825360298,-0.2539519965648651,0.42906269431114197,-0.4566323757171631,-9.766561508178711
1745664708.1629534,0.05897265672683716,-0.013747130520641804,-0.25618743896484375,0.6391795873641968,-0.771579921245575,-9.924924850463867
1745664708.2038987,0.058807481080293655,-0.015142058953642845,-0.25541627407073975,0.4707440435886383,-0.42473044991493225,-9.752620697021484
1745664708.2069867,0.044934194535017014,-0.011484062299132347,-0.25610631704330444,0.5633517503738403,-0.7735257744789124,-9.750066757202148
1745664708.2075684,0.06427618116140366,-0.02044721134006977,-0.2586889863014221,0.5015872716903687,-0.501736044883728,-9.637962341308594
1745664708.2088442,0.04393963888287544,-0.00988705363124609,-0.2588764429092407,0.5003775358200073,-0.3940574824810028,-9.768778800964355
1745664708.2449918,0.05721645429730415,-0.01323861163109541,-0.2600826621055603,0.592008650302887,-0.7307373881340027,-9.861662864685059
1745664708.2484057,0.06895359605550766,-0.011348712258040905,-0.2599480450153351,0.37080344557762146,-0.13558802008628845,-9.660130500793457
1745664708.2511053,0.06036629155278206,-0.011703111231327057,-0.2588818073272705,0.5809853076934814,-0.7237035036087036,-9.8313570022583
1745664708.2527502,0.08000577986240387,-0.015130661427974701,-0.2615627348423004,0.34253448247909546,-0.33899012207984924,-9.798995971679688
1745664708.2538428,0.0692240446805954,-0.013703344389796257,-0.2635764479637146,0.5623193979263306,-0.6355904936790466,-9.725568771362305
1745664708.2885082,0.06885604560375214,-0.018169280141592026,-0.26314520835876465,0.5000821352005005,-0.5152808427810669,-9.732507705688477
1745664708.2914884,0.06324441730976105,-0.009897400625050068,-0.2643809914588928,0.5205736756324768,-0.640866756439209,-9.76934814453125
1745664708.2950237,0.07147988677024841,-0.019566621631383896,-0.2648885250091553,0.5916072130203247,-0.5932779312133789,-9.633561134338379
1745664708.298371,0.04550798609852791,-0.0092381052672863,-0.2656129002571106,0.4138731360435486,-0.5338364839553833,-9.835145950317383
1745664708.3292537,0.06523825228214264,-0.016156364232301712,-0.26583102345466614,0.611577033996582,-0.7943700551986694,-9.881462097167969
1745664708.3323288,0.061879802495241165,-0.017375711351633072,-0.26773402094841003,0.36621490120887756,-0.2995510995388031,-9.6773099899292
1745664708.3375258,0.04860752075910568,-0.01319078542292118,-0.26755619049072266,0.566473662853241,-0.8427841067314148,-9.72082233428955
1745664708.3397918,0.07379163801670074,-0.016384344547986984,-0.2682357430458069,0.4292149543762207,-0.32696467638015747,-9.690042495727539
1745664708.343439,0.055041104555130005,-0.011127449572086334,-0.26877573132514954,0.5354130864143372,-0.6738756895065308,-9.841524124145508
1745664708.3731875,0.06790413707494736,-0.01652326062321663,-0.26937276124954224,0.5128031373023987,-0.5986834168434143,-9.777628898620605
1745664708.3756387,0.04578437656164169,-0.011346263810992241,-0.2733936309814453,0.589232325553894,-0.7929772138595581,-9.784825325012207
1745664708.379312,0.06681884825229645,-0.01842004805803299,-0.27379894256591797,0.45093750953674316,-0.4391021728515625,-9.884719848632812
1745664708.3803778,0.048793353140354156,-0.012887122109532356,-0.2762165367603302,0.42596450448036194,-0.53985595703125,-9.911818504333496
1745664708.4159937,0.0691719800233841,-0.015840960666537285,-0.2750142216682434,0.5082840323448181,-0.6567715406417847,-9.63450813293457
1745664708.4188514,0.06456808745861053,-0.01283654011785984,-0.27555567026138306,0.3658493459224701,-0.43982601165771484,-9.522087097167969
1745664708.420009,0.060439951717853546,-0.015803378075361252,-0.27565428614616394,0.6571741104125977,-0.8111001253128052,-9.772679328918457
1745664708.4212012,0.06315137445926666,-0.014364860951900482,-0.27654868364334106,0.4014431834220886,-0.5175477266311646,-9.96398639678955
1745664708.4578855,0.0635242685675621,-0.009691616520285606,-0.2746453881263733,0.5581523180007935,-0.7633452415466309,-9.84154224395752
1745664708.4598029,0.056098200380802155,-0.017013585194945335,-0.2784990668296814,0.4610615670681,-0.49256792664527893,-9.562931060791016
1745664708.46188,0.049695271998643875,-0.014268353581428528,-0.27745214104652405,0.4944576323032379,-0.8620136380195618,-9.796751022338867
1745664708.4646256,0.06440591812133789,-0.02086196467280388,-0.2787986695766449,0.5194839835166931,-0.5509496927261353,-9.809915542602539
1745664708.4659111,0.04010123759508133,-0.011126192286610603,-0.27958038449287415,0.4334307312965393,-0.5224628448486328,-9.796870231628418
1745664708.5030427,0.061500947922468185,-0.013585060834884644,-0.2787572741508484,0.5986322164535522,-0.8190624117851257,-9.622644424438477
1745664708.5058584,0.05588319152593613,-0.01695382036268711,-0.28053992986679077,0.37486371397972107,-0.30208921432495117,-9.684333801269531
1745664708.5092835,0.05920519307255745,-0.016225304454565048,-0.28475117683410645,0.5522635579109192,-0.7768335342407227,-9.813718795776367
1745664708.5151017,0.03448433429002762,-0.021625205874443054,-0.28903427720069885,0.380604088306427,-0.5171030759811401,-9.793235778808594
1745664708.5481424,0.05639039725065231,-0.01737138070166111,-0.2860186696052551,0.5517995953559875,-0.8524144291877747,-9.778790473937988
1745664708.549707,0.050837378948926926,-0.024142730981111526,-0.2865270674228668,0.45184963941574097,-0.581559956073761,-9.708086967468262
1745664708.5521472,0.05120619386434555,-0.02042813040316105,-0.28748899698257446,0.4458288550376892,-0.8449543118476868,-9.794870376586914
1745664708.5546196,0.045199163258075714,-0.021518472582101822,-0.2847881019115448,0.5037358403205872,-0.7829440832138062,-9.686488151550293
1745664708.5555828,0.04673122614622116,-0.016589993610978127,-0.2861846089363098,0.37189438939094543,-0.7414286136627197,-9.70784854888916
1745664708.596766,0.04496830701828003,-0.021354088559746742,-0.28614678978919983,0.6516129374504089,-0.7385155558586121,-9.663398742675781
1745664708.5968285,0.025051364675164223,-0.02471325546503067,-0.288851797580719,0.4002367854118347,-0.7717117071151733,-9.940454483032227
1745664708.5969262,0.055418968200683594,-0.018876010552048683,-0.28811848163604736,0.5474047660827637,-0.8073927164077759,-9.857320785522461
1745664708.5986192,0.0225625429302454,-0.026330221444368362,-0.289669930934906,0.43672651052474976,-0.5739628672599792,-9.556029319763184
1745664708.6329417,0.04213952273130417,-0.015389454551041126,-0.28897273540496826,0.479810893535614,-0.9319866299629211,-9.621914863586426
1745664708.635528,0.039777033030986786,-0.023273002356290817,-0.2868846356868744,0.5000384449958801,-0.5465935468673706,-9.711880683898926
1745664708.6381838,0.03644084185361862,-0.019334929063916206,-0.2879817485809326,0.4204043447971344,-0.805469810962677,-10.012537002563477
1745664708.6412282,0.05022669956088066,-0.02077723853290081,-0.2873551845550537,0.5417747497558594,-0.690035879611969,-9.766292572021484
1745664708.6728568,0.046341218054294586,-0.0248974971473217,-0.2853127717971802,0.3421332836151123,-0.6957679986953735,-9.661232948303223
1745664708.677427,0.04271993413567543,-0.023405825719237328,-0.2878133952617645,0.5673645734786987,-0.8904975056648254,-9.730374336242676
1745664708.6794074,0.03408113867044449,-0.024451082572340965,-0.2859641909599304,0.4255010485649109,-0.7018369436264038,-9.82298469543457
1745664708.6891358,0.05035680532455444,-0.015804579481482506,-0.2871527671813965,0.5055528283119202,-0.8964914083480835,-9.668495178222656
1745664708.689195,0.019377190619707108,-0.024232637137174606,-0.2877694070339203,0.5168859958648682,-0.6671125888824463,-9.591269493103027
1745664708.7186103,0.03805249184370041,-0.018906181678175926,-0.2874404191970825,0.4464859068393707,-0.9525483846664429,-9.91490364074707
1745664708.7190945,0.032937176525592804,-0.026159275323152542,-0.2878039479255676,0.5206242799758911,-0.5754824876785278,-9.843893051147461
1745664708.7224786,0.03692004829645157,-0.020373379811644554,-0.287728875875473,0.44456085562705994,-0.8738865852355957,-9.720613479614258
1745664708.725458,0.022949807345867157,-0.026100143790245056,-0.2858983874320984,0.5457213521003723,-0.6463572978973389,-9.632577896118164
1745664708.7602825,0.0341237410902977,-0.02271568961441517,-0.2883632481098175,0.35818034410476685,-0.8922284841537476,-9.86026382446289
1745664708.763773,0.032569367438554764,-0.02078915946185589,-0.2872379422187805,0.546855628490448,-0.6128955483436584,-9.602533340454102
1745664708.7670465,0.010860258713364601,-0.02085157297551632,-0.2882634103298187,0.4314853549003601,-0.9036386609077454,-9.739842414855957
1745664708.7694108,0.04852915555238724,-0.01707788184285164,-0.28717824816703796,0.4679384231567383,-0.7631253600120544,-9.755452156066895
1745664708.8047302,0.012390964664518833,-0.024087198078632355,-0.2875460982322693,0.3939993381500244,-0.5993150472640991,-9.823057174682617
1745664708.808283,0.04459250718355179,-0.012443860992789268,-0.28925076127052307,0.43161433935165405,-0.7960719466209412,-9.759183883666992
1745664708.8093672,0.02354418858885765,-0.024472109973430634,-0.29032787680625916,0.48788899183273315,-0.6594801545143127,-9.568635940551758
1745664708.8126733,0.03878168761730194,-0.020646439865231514,-0.2877306342124939,0.4410319924354553,-0.8242009878158569,-9.80285358428955
1745664708.8561769,0.022787101566791534,-0.019228702411055565,-0.28558629751205444,0.5418099761009216,-0.866599440574646,-9.862311363220215
1745664708.856259,0.03322150558233261,-0.017268767580389977,-0.28630122542381287,0.3421977460384369,-0.8086554408073425,-9.782661437988281
1745664708.856308,0.028858521953225136,-0.01565794087946415,-0.2866279184818268,0.540881335735321,-0.6721428632736206,-9.513595581054688
1745664708.8568544,0.018875423818826675,-0.015307160094380379,-0.2863357961177826,0.4581710696220398,-0.7605866193771362,-9.586993217468262
1745664708.890436,0.0017452125903218985,-0.02259835973381996,-0.2854412794113159,0.5097619891166687,-1.0040651559829712,-9.775525093078613
1745664708.8958416,0.029810508713126183,-0.016158679500222206,-0.2872450053691864,0.33861690759658813,-0.6455605626106262,-9.825187683105469
1745664708.8995004,-0.0011549044866114855,-0.020665116608142853,-0.28632450103759766,0.6006778478622437,-0.838635265827179,-9.736599922180176
1745664708.9025524,0.025909313932061195,-0.016627728939056396,-0.284864604473114,0.37342530488967896,-0.8336690664291382,-9.674813270568848
1745664708.9336598,0.010922630317509174,-0.01824711449444294,-0.28524184226989746,0.5055465698242188,-0.7091705203056335,-9.691597938537598
1745664708.935648,0.014272831380367279,-0.022274930030107498,-0.28484058380126953,0.430522620677948,-0.8785750269889832,-9.935074806213379
1745664708.9372725,0.017540637403726578,-0.01349493395537138,-0.2841385006904602,0.37405022978782654,-0.7288658618927002,-9.761509895324707
1745664708.939733,0.010322356596589088,-0.025555942207574844,-0.2848879396915436,0.5207709074020386,-0.8836876153945923,-9.586817741394043
1745664708.9436631,0.007979726418852806,-0.021228153258562088,-0.2839531898498535,0.443211168050766,-0.8069362640380859,-9.788036346435547
1745664708.9753995,-0.002553078345954418,-0.022967461496591568,-0.2859466075897217,0.6024044752120972,-0.9344686269760132,-9.911184310913086
1745664708.9774919,0.015101770870387554,-0.020806264132261276,-0.28419822454452515,0.3954855799674988,-0.703891396522522,-9.69658088684082
1745664708.9791136,-0.015271157026290894,-0.01817309856414795,-0.2849556505680084,0.5202392339706421,-0.8971083760261536,-9.588934898376465
1745664708.9820585,0.013301009312272072,-0.02257847972214222,-0.28127962350845337,0.4404049515724182,-0.7658135294914246,-9.756589889526367
1745664709.0196831,0.00548702385276556,-0.022028226405382156,-0.28467467427253723,0.40535348653793335,-0.6079931855201721,-9.861028671264648
1745664709.0232527,0.005329982843250036,-0.02222842536866665,-0.28345194458961487,0.46576595306396484,-0.8688610792160034,-9.777040481567383
1745664709.0349684,0.027172934263944626,-0.01430346630513668,-0.28330594301223755,0.32151365280151367,-0.5759850740432739,-9.55810260772705
1745664709.035072,-0.0007855293224565685,-0.027083132416009903,-0.2858767509460449,0.6148300170898438,-0.9547927975654602,-9.685693740844727
1745664709.0351312,0.02199418470263481,-0.01768270879983902,-0.28258803486824036,0.41426515579223633,-0.7477298974990845,-9.93379020690918
1745664709.0613196,0.0015413410728797317,-0.021063510328531265,-0.2834663391113281,0.5205771923065186,-1.0230846405029297,-9.876472473144531
1745664709.0635324,0.0059274048544466496,-0.0247615035623312,-0.2812296748161316,0.39684027433395386,-0.8426653742790222,-9.624902725219727
1745664709.0669427,-0.012143075466156006,-0.01999509148299694,-0.2827445864677429,0.468295156955719,-0.872560977935791,-9.626104354858398
1745664709.0708902,0.01926475390791893,-0.021045053377747536,-0.28037795424461365,0.3898288309574127,-0.7040165066719055,-9.815363883972168
1745664709.1064117,0.004319219850003719,-0.020578661933541298,-0.2786305844783783,0.4807564616203308,-0.7927811145782471,-9.611528396606445
1745664709.1083312,0.012273550033569336,-0.028077736496925354,-0.27894073724746704,0.5149981379508972,-0.7396923899650574,-9.637189865112305
1745664709.111786,0.007422253489494324,-0.018047768622636795,-0.27892428636550903,0.45571479201316833,-0.8351448178291321,-9.887533187866211
1745664709.1196125,0.0006013728561811149,-0.02441430650651455,-0.27965372800827026,0.5276437997817993,-0.8883236646652222,-9.884378433227539
1745664709.1217523,0.0037368647754192352,-0.01830204762518406,-0.2789359986782074,0.3411124348640442,-0.6548643112182617,-9.625679016113281
1745664709.149504,-0.012175015173852444,-0.02348443865776062,-0.2802351117134094,0.47207289934158325,-1.0484381914138794,-9.665733337402344
1745664709.1526732,0.014178460463881493,-0.022576941177248955,-0.2793298661708832,0.3056486248970032,-0.5631882548332214,-9.688848495483398
1745664709.155178,-0.02103472873568535,-0.01843878999352455,-0.28177034854888916,0.5752716064453125,-0.9330247044563293,-9.816840171813965
1745664709.1593843,0.012165775522589684,-0.01992504671216011,-0.27733558416366577,0.4080026149749756,-0.7328487634658813,-9.749565124511719
1745664709.2017956,-0.0022775079123675823,-0.016859691590070724,-0.2807789742946625,0.40994691848754883,-0.5994206070899963,-9.618897438049316
1745664709.2073088,0.006259785499423742,-0.021786360070109367,-0.2767675220966339,0.47892284393310547,-0.8850892782211304,-9.805102348327637
1745664709.2073886,0.010858562774956226,-0.01828431710600853,-0.27718883752822876,0.323866605758667,-0.6335099339485168,-9.837418556213379
1745664709.2074506,0.005858825985342264,-0.02365783229470253,-0.2783030569553375,0.531145453453064,-0.8976602554321289,-9.73666000366211
1745664709.232695,0.006586032919585705,-0.015409368090331554,-0.27375543117523193,0.5258952975273132,-0.9108980298042297,-9.587451934814453
1745664709.235438,0.008617570623755455,-0.017642594873905182,-0.2737736403942108,0.27975544333457947,-0.6061052083969116,-9.59529972076416
1745664709.236295,0.0074477666057646275,-0.015275269746780396,-0.2717558741569519,0.5410273671150208,-0.9028345346450806,-9.911375045776367
1745664709.2394354,0.010347931645810604,-0.015069348737597466,-0.27132847905158997,0.38532084226608276,-0.6183807849884033,-9.855770111083984
1745664709.2787917,0.00791650265455246,-0.009689608588814735,-0.27374744415283203,0.413534551858902,-0.8402268290519714,-9.624478340148926
1745664709.280185,0.019110072404146194,-0.019881758838891983,-0.2714352309703827,0.49091586470603943,-0.5808669924736023,-9.489255905151367
1745664709.2815137,-0.004534720443189144,-0.011745561845600605,-0.275420606136322,0.33245372772216797,-0.8260289430618286,-10.038125991821289
1745664709.2835639,0.01903201825916767,-0.016273610293865204,-0.2751075029373169,0.5284048318862915,-0.8044948577880859,-9.944425582885742
1745664709.2850275,0.004415413364768028,-0.014063149690628052,-0.27482059597969055,0.32271629571914673,-0.5968034267425537,-9.565107345581055
1745664709.3203814,0.0010177015792578459,-0.013405218720436096,-0.27296796441078186,0.5138136148452759,-1.0234136581420898,-9.583024024963379
1745664709.3227947,0.015458570793271065,-0.013763144612312317,-0.2731660008430481,0.3490407168865204,-0.49600109457969666,-9.724007606506348
1745664709.3249655,0.0014128867769613862,-0.010959632694721222,-0.27376580238342285,0.52367103099823,-0.9480768442153931,-9.956031799316406
1745664709.328315,0.016326207667589188,-0.014563185162842274,-0.27253228425979614,0.41559702157974243,-0.6167681813240051,-9.731921195983887
1745664709.3627362,0.006993849761784077,-0.012254040688276291,-0.2725893557071686,0.33739787340164185,-0.8396028280258179,-9.728796005249023
1745664709.3651686,0.006842656992375851,-0.02174276113510132,-0.27378958463668823,0.469245046377182,-0.8073824048042297,-9.804750442504883
1745664709.3682086,-0.0004356665594968945,-0.011607818305492401,-0.2731855511665344,0.31626471877098083,-0.6691083908081055,-9.811552047729492
1745664709.3689277,0.009878920391201973,-0.01251779031008482,-0.27412256598472595,0.5392138361930847,-0.9497499465942383,-9.616745948791504
1745664709.4069502,-0.0021600022446364164,-0.016258787363767624,-0.2735349237918854,0.3656003773212433,-0.512798547744751,-9.596893310546875
1745664709.4084656,-0.0014657325809821486,-0.007206670939922333,-0.27475470304489136,0.5350663661956787,-1.0368294715881348,-9.96165657043457
1745664709.4098153,0.01126903761178255,-0.018259327858686447,-0.27097418904304504,0.3434329628944397,-0.5038100481033325,-9.840459823608398
1745664709.4110801,-0.005076414905488491,-0.01033132802695036,-0.27419382333755493,0.3744484484195709,-0.8074243664741516,-9.758196830749512
1745664709.449467,0.008925044909119606,-0.019035380333662033,-0.2719016671180725,0.4400336742401123,-0.5265944600105286,-9.720243453979492
1745664709.4526327,-0.008759064599871635,-0.009641246870160103,-0.2743534445762634,0.38130983710289,-0.729661226272583,-9.847861289978027
1745664709.456243,0.016017360612750053,-0.011837921105325222,-0.27268701791763306,0.4728889465332031,-0.7569526433944702,-9.637104034423828
1745664709.4574876,0.0006574817234650254,-0.01468878798186779,-0.27342158555984497,0.31160980463027954,-0.5139815807342529,-9.668280601501465
1745664709.4592826,0.010494197718799114,-0.01529751904308796,-0.2729017734527588,0.5273417830467224,-0.9380873441696167,-9.919439315795898
1745664709.4939165,0.003977332264184952,-0.013316266238689423,-0.27296799421310425,0.3243820369243622,-0.5753089785575867,-9.834722518920898
1745664709.499378,0.010792884044349194,-0.012530130334198475,-0.27203792333602905,0.5123578310012817,-0.9443553686141968,-9.6748628616333
1745664709.502407,0.0006254032487049699,-0.019336000084877014,-0.27071958780288696,0.48915448784828186,-0.6577516794204712,-9.625651359558105
1745664709.5048096,0.004221590701490641,-0.01119871623814106,-0.2727283835411072,0.36830657720565796,-0.8163978457450867,-9.88796329498291
1745664709.536555,0.01499856449663639,-0.014038823544979095,-0.2712908387184143,0.48900285363197327,-0.6262543201446533,-9.673591613769531
1745664709.5396495,-0.005692543461918831,-0.011201025918126106,-0.26987773180007935,0.2565167248249054,-0.7303929924964905,-9.764810562133789
1745664709.5429125,0.024862531572580338,-0.01521514542400837,-0.2708563804626465,0.49522820115089417,-0.7930981516838074,-9.792888641357422
1745664709.5452864,0.0032512277830392122,-0.017384137958288193,-0.27339068055152893,0.282657265663147,-0.4906458854675293,-9.761835098266602
1745664709.5476673,0.015493044629693031,-0.0070204176008701324,-0.2727352976799011,0.4638252258300781,-0.9560385942459106,-9.709681510925293
1745664709.5866616,0.019137490540742874,-0.01328317355364561,-0.2738727927207947,0.43015623092651367,-0.4912702441215515,-9.516080856323242
1745664709.5867162,-0.003712326753884554,-0.027396490797400475,-0.2661053538322449,0.37688735127449036,-0.5305501818656921,-9.488828659057617
1745664709.5867515,0.016729306429624557,-0.015135958790779114,-0.2663930654525757,0.42975053191185,-0.8547770380973816,-9.788742065429688
1745664709.5875592,0.018545182421803474,-0.020751267671585083,-0.2673819959163666,0.37902554869651794,-0.4422788619995117,-9.829900741577148
1745664709.6224153,0.01894531212747097,-0.015019787475466728,-0.2703227400779724,0.33756810426712036,-0.7470327615737915,-9.78984546661377
1745664709.625405,0.024175530299544334,-0.018628763034939766,-0.2678438425064087,0.4967915415763855,-0.6924780011177063,-9.567525863647461
1745664709.6287806,0.011367667466402054,-0.02353561297059059,-0.2693709433078766,0.3261953890323639,-0.8080712556838989,-9.887994766235352
1745664709.6323807,0.013398702256381512,-0.019020745530724525,-0.26859837770462036,0.5321584343910217,-0.9369016885757446,-9.917248725891113
1745664709.6630223,-0.005545889493077993,-0.01855894923210144,-0.26811766624450684,0.36107125878334045,-0.7445024847984314,-9.693463325500488
1745664709.66916,0.012140678241848946,-0.019287412986159325,-0.2657383382320404,0.5174751281738281,-0.902534008026123,-9.518977165222168
1745664709.6702867,-0.012880770489573479,-0.021993624046444893,-0.26881536841392517,0.47301965951919556,-0.5292990803718567,-9.671670913696289
1745664709.6796744,0.004040190950036049,-0.014724652282893658,-0.26712509989738464,0.3597524166107178,-0.8180879354476929,-10.072527885437012
1745664709.6797335,0.012795100919902325,-0.02176147699356079,-0.2684595286846161,0.39208534359931946,-0.5170490741729736,-9.735893249511719
1745664709.7073283,0.004415498580783606,-0.018683776259422302,-0.26758843660354614,0.24816951155662537,-0.6697292327880859,-9.636218070983887
1745664709.712182,0.028661588206887245,-0.019140172749757767,-0.26788240671157837,0.46919775009155273,-0.65449458360672,-9.670893669128418
1745664709.7180135,0.009049149230122566,-0.02057211846113205,-0.2677672505378723,0.32750722765922546,-0.650700569152832,-9.828805923461914
1745664709.7191877,0.0296514630317688,-0.015232399106025696,-0.26750123500823975,0.5684304237365723,-0.8009581565856934,-9.72636890411377
1745664709.7514625,0.00823485292494297,-0.024121811613440514,-0.2674465477466583,0.48174914717674255,-0.8045812845230103,-9.74311637878418
1745664709.7520852,0.01766354590654373,-0.019576838240027428,-0.2645725607872009,0.43535104393959045,-0.8517282605171204,-9.90173625946045
1745664709.7537618,-0.003873178269714117,-0.02406238578259945,-0.2653826177120209,0.4820713400840759,-0.7505678534507751,-9.777032852172852
1745664709.7557116,0.004511336330324411,-0.020815089344978333,-0.267132043838501,0.273171603679657,-0.8879303932189941,-9.74285888671875
1745664709.7978032,0.00660464633256197,-0.021739009767770767,-0.2666483223438263,0.4424247741699219,-0.555631697177887,-9.470756530761719
1745664709.7994192,0.010223043151199818,-0.021969102323055267,-0.2609853744506836,0.5522804260253906,-0.7778080701828003,-9.723962783813477
1745664709.8023646,0.010501770302653313,-0.020195746794342995,-0.26486217975616455,0.3135613799095154,-0.6905630826950073,-9.755724906921387
1745664709.8071575,0.017406392842531204,-0.0201706625521183,-0.2658766806125641,0.505163848400116,-0.6060134768486023,-9.649730682373047
1745664709.8373961,-0.00951406080275774,-0.022567834705114365,-0.26826363801956177,0.3303529620170593,-0.7548688650131226,-9.880613327026367
1745664709.8392963,0.02555122599005699,-0.020878029987215996,-0.26913270354270935,0.43742942810058594,-0.7388448715209961,-9.821979522705078
1745664709.8410838,-0.008102186024188995,-0.027849802747368813,-0.267659068107605,0.43932682275772095,-0.6793060302734375,-9.68734073638916
1745664709.8433325,0.018939580768346786,-0.016204040497541428,-0.2671661972999573,0.3642229437828064,-0.9483572840690613,-9.719449996948242
1745664709.8798616,0.008678743615746498,-0.02133854478597641,-0.2646627426147461,0.4801918566226959,-0.614019513130188,-9.661836624145508
1745664709.882344,0.009383978322148323,-0.021544504910707474,-0.26500990986824036,0.3690754473209381,-0.7344652414321899,-9.891279220581055
1745664709.8843074,0.021941592916846275,-0.01850893720984459,-0.26416969299316406,0.4634634852409363,-0.6435238718986511,-9.80816650390625
1745664709.8871768,0.012013646773993969,-0.02349870465695858,-0.26513296365737915,0.2888879179954529,-0.6876952052116394,-9.7704439163208
1745664709.8910458,0.02200351282954216,-0.02087479829788208,-0.26736384630203247,0.4302343726158142,-0.7329347729682922,-9.695963859558105
1745664709.9232602,-0.0037493184208869934,-0.025585845112800598,-0.2666468620300293,0.38142964243888855,-0.7452763915061951,-9.744047164916992
1745664709.9253163,0.02264331839978695,-0.01733681932091713,-0.2683179974555969,0.3775491714477539,-0.7386841177940369,-9.724803924560547
1745664709.9304116,0.020532503724098206,-0.016170481219887733,-0.2673111855983734,0.3987879157066345,-0.7565268278121948,-9.836267471313477
1745664709.933179,-0.006618398241698742,-0.014307488687336445,-0.26792293787002563,0.5383922457695007,-0.74391770362854,-9.811076164245605
1745664709.9715233,-0.0011633008252829313,-0.016033614054322243,-0.2683296799659729,0.33909186720848083,-0.791345477104187,-9.807480812072754
1745664709.9716268,0.013895359821617603,-0.013071499764919281,-0.2674265205860138,0.3929353356361389,-0.5284304022789001,-9.589134216308594
1745664709.9716783,-0.012484265491366386,-0.022236648947000504,-0.2701801359653473,0.3642459511756897,-0.7510865330696106,-9.820393562316895
1745664709.9730191,0.027847597375512123,-0.010395086370408535,-0.26828935742378235,0.3647836744785309,-0.5504576563835144,-9.869644165039062
1745664710.011178,0.0017724329372867942,-0.018497349694371223,-0.26918449997901917,0.44399142265319824,-0.754119336605072,-9.728311538696289
1745664710.011339,0.022369222715497017,-0.012308280915021896,-0.26755475997924805,0.3042547106742859,-0.6739572286605835,-9.620083808898926
1745664710.0141544,0.014175912365317345,-0.016829777508974075,-0.26570507884025574,0.514345645904541,-0.7809560894966125,-9.67630672454834
1745664710.0172262,0.017698876559734344,-0.015846414491534233,-0.26572751998901367,0.32415199279785156,-0.761765718460083,-9.955472946166992
1745664710.0196817,0.01474345475435257,-0.00950294267386198,-0.26509562134742737,0.4382823407649994,-0.662054717540741,-9.81386947631836
1745664710.0518396,0.003397354856133461,-0.017791494727134705,-0.2665911912918091,0.34240782260894775,-0.8848453760147095,-9.714822769165039
1745664710.054534,0.022053297609090805,-0.011898813769221306,-0.2654300034046173,0.3179747760295868,-0.5948818922042847,-9.550110816955566
1745664710.0555437,-0.012441672384738922,-0.017249882221221924,-0.26728057861328125,0.5072445273399353,-0.7674251794815063,-9.779268264770508
1745664710.0582533,0.02176567353308201,-0.006379508879035711,-0.2686415910720825,0.3279189169406891,-0.6700083613395691,-9.86479377746582
1745664710.0955513,-0.003267827210947871,-0.01251343172043562,-0.268327921628952,0.4596496522426605,-0.6252293586730957,-9.652425765991211
1745664710.0997763,0.012349316850304604,-0.014283200725913048,-0.26867833733558655,0.3240134119987488,-0.7200348377227783,-9.779391288757324
1745664710.1060996,0.017524773254990578,-0.011298386380076408,-0.2652214467525482,0.4613460600376129,-0.674151599407196,-9.809535026550293
1745664710.110447,0.013002720661461353,-0.01767275296151638,-0.2659333348274231,0.35430002212524414,-0.7397009134292603,-9.852899551391602
1745664710.114855,0.025260334834456444,-0.008894599974155426,-0.2647683322429657,0.36931315064430237,-0.6433821320533752,-9.661114692687988
1745664710.138387,0.012059404514729977,-0.017460282891988754,-0.2644265592098236,0.4064423441886902,-0.7677350044250488,-9.611994743347168
1745664710.1415262,0.03443405032157898,-0.01117732934653759,-0.26601871848106384,0.31256479024887085,-0.5195700526237488,-9.6527099609375
1745664710.1461427,-6.849188503110781e-05,-0.012444691732525826,-0.2659144997596741,0.5135442614555359,-0.8373530507087708,-9.903158187866211
1745664710.149368,0.025077497586607933,-0.006931239273399115,-0.2663117051124573,0.4296818673610687,-0.5706728100776672,-9.718440055847168
1745664710.1816258,-0.0005465662106871605,-0.01573372259736061,-0.2658599019050598,0.46470898389816284,-0.8227531313896179,-9.860834121704102
1745664710.1872637,0.03033430501818657,-0.006813038140535355,-0.263679563999176,0.3136550784111023,-0.5447098016738892,-9.739572525024414
1745664710.1881793,0.012210666202008724,-0.01396902371197939,-0.26516255736351013,0.4258064329624176,-0.7651954889297485,-9.72928524017334
1745664710.1903708,0.02979697845876217,-0.01209316961467266,-0.26353955268859863,0.22663958370685577,-0.5466222763061523,-9.799643516540527
1745664710.222306,0.015347222797572613,-0.010952201671898365,-0.2664552330970764,0.44781556725502014,-0.6868544220924377,-9.71630573272705
1745664710.2262387,0.033789489418268204,-0.01200883649289608,-0.26801079511642456,0.31925642490386963,-0.7563437223434448,-9.678384780883789
1745664710.2299783,0.02171963080763817,-0.004834300372749567,-0.26705771684646606,0.48766273260116577,-0.5867557525634766,-9.606302261352539
1745664710.2311537,0.010747256688773632,-0.014665397815406322,-0.2672528624534607,0.5604439973831177,-0.9792512059211731,-9.921104431152344
1745664710.2332778,0.03487842530012131,-0.005525457207113504,-0.26765698194503784,0.3436409831047058,-0.5574684143066406,-9.88101577758789
1745664710.2741082,0.001140387263149023,-0.012642299756407738,-0.2651536464691162,0.49623385071754456,-0.878210186958313,-9.734704971313477
1745664710.2761605,0.031095806509256363,-0.01044896524399519,-0.26699313521385193,0.31541329622268677,-0.6202885508537292,-9.635649681091309
1745664710.2780056,0.011805525049567223,-0.01295423787087202,-0.2635513246059418,0.47940388321876526,-0.7697783708572388,-9.701570510864258
1745664710.282652,-0.006207252852618694,-0.018489202484488487,-0.26161760091781616,0.47971099615097046,-0.8447637557983398,-9.8145170211792
1745664710.3100414,-0.0026901469100266695,-0.016930915415287018,-0.26092958450317383,0.36803311109542847,-0.4482796788215637,-9.644867897033691
1745664710.3191311,0.005513432435691357,-0.02684619463980198,-0.25111252069473267,0.2318613976240158,-1.0624489784240723,-9.86457347869873
1745664710.3223903,0.032228223979473114,-0.029986560344696045,-0.2508837580680847,-0.22912690043449402,-0.46486377716064453,-9.666784286499023
1745664710.3271084,-0.012661988846957684,-0.013148002326488495,-0.24044008553028107,0.3123592734336853,-1.2710583209991455,-9.609333038330078
1745664710.352701,-0.02751271426677704,-0.04736252874135971,-0.2284354716539383,-0.7534621953964233,-1.1785578727722168,-10.100823402404785
1745664710.3573828,-0.030562549829483032,-0.01559748500585556,-0.2289416342973709,-0.33801525831222534,-0.6859782338142395,-9.454706192016602
1745664710.359022,-0.06923402100801468,-0.021078448742628098,-0.23181059956550598,-0.05060403421521187,-0.5151911377906799,-9.296426773071289
1745664710.3619123,-0.06723656505346298,-0.05073515698313713,-0.23241813480854034,0.23272240161895752,-0.7602578997612,-9.959909439086914
1745664710.3628924,-0.06064103916287422,-0.04604778811335564,-0.225928395986557,0.5326582193374634,-0.7032672762870789,-10.562468528747559
1745664710.396447,-0.0862685889005661,-0.04656493663787842,-0.21288485825061798,-0.18750068545341492,-1.069779396057129,-10.25397777557373
1745664710.3999062,-0.03459819778800011,-0.0322251096367836,-0.19746525585651398,-0.011630738154053688,-1.061235785484314,-8.766426086425781
1745664710.402753,-0.09749078005552292,-0.06120864301919937,-0.18712447583675385,-0.0722508653998375,-0.365262508392334,-9.089925765991211
1745664710.4058867,-0.020020153373479843,-0.05279222130775452,-0.18176022171974182,0.047372668981552124,-0.30212846398353577,-10.621480941772461
1745664710.4412193,-0.01157411839812994,-0.04171013832092285,-0.18687237799167633,-0.05826917290687561,0.3442728817462921,-10.338107109069824
1745664710.4433525,-0.014911448583006859,-0.054382987320423126,-0.19072742760181427,-0.33953624963760376,-0.7598380446434021,-9.30573558807373
1745664710.4458292,0.00204778672195971,-0.06567826867103577,-0.19095861911773682,0.17006251215934753,-0.5482041239738464,-8.872488021850586
1745664710.44802,-0.06415213644504547,-0.06305599957704544,-0.1880899965763092,-0.28943946957588196,-1.2573219537734985,-10.608366012573242
1745664710.4817712,-0.036624688655138016,-0.044297873973846436,-0.1794605702161789,0.26144811511039734,-1.091080665588379,-10.218854904174805
1745664710.4846354,-0.08962579071521759,-0.05244782567024231,-0.16959354281425476,0.18938997387886047,-0.9455435872077942,-8.982004165649414
1745664710.488151,-0.09360835701227188,-0.07186444848775864,-0.1642894744873047,0.3128500282764435,-1.455567717552185,-9.361681938171387
1745664710.4915998,-0.10826089233160019,-0.06156487017869949,-0.161846324801445,0.12269648164510727,-0.34535863995552063,-10.454492568969727
1745664710.4956164,-0.11487166583538055,-0.05604610964655876,-0.16152086853981018,-0.30604034662246704,-0.8205772638320923,-10.559377670288086
1745664710.5268989,-0.0368439219892025,-0.0663926899433136,-0.1437993347644806,-0.01674250140786171,-0.17631329596042633,-11.147480964660645
1745664710.5276086,-0.0773349329829216,-0.055255454033613205,-0.15254251658916473,-0.5089340806007385,0.17140856385231018,-10.6474609375
1745664710.5299084,-0.03225032612681389,-0.06078915670514107,-0.1565905660390854,0.1727873980998993,-0.8203607797622681,-8.420470237731934
1745664710.5382657,-0.0570521242916584,-0.07364702224731445,-0.16213907301425934,0.18999698758125305,0.28475064039230347,-9.008735656738281
1745664710.571414,-0.08855870366096497,-0.0844631940126419,-0.15721037983894348,-0.38026857376098633,-1.8361009359359741,-11.673437118530273
1745664710.5756302,-0.014498380944132805,-0.03064430132508278,-0.1358449012041092,0.32323917746543884,-0.9484817385673523,-9.295747756958008
1745664710.5794396,-0.1931266486644745,-0.047952402383089066,-0.12372734397649765,0.08852308243513107,-1.5276861190795898,-8.352453231811523
1745664710.58431,-0.05618266016244888,-0.07866720110177994,-0.1144343838095665,0.38504558801651,-0.9247174263000488,-9.769758224487305
1745664710.611931,-0.16876091063022614,-0.04623410850763321,-0.11446680128574371,0.591362476348877,0.09335117042064667,-11.246047973632812
1745664710.6149676,-0.09655706584453583,-0.04616706073284149,-0.11765898764133453,0.1850404441356659,-0.40846070647239685,-10.52739143371582
1745664710.619184,-0.08866053819656372,-0.06918330490589142,-0.12164727598428726,-0.16224119067192078,0.06982581317424774,-8.273601531982422
1745664710.621021,-0.13598445057868958,-0.06451878696680069,-0.11921588331460953,-0.11747511476278305,-0.5697654485702515,-9.2347412109375
1745664710.6311564,-0.08647700399160385,-0.044521961361169815,-0.11178052425384521,0.04805474355816841,-0.45640701055526733,-10.862081527709961
1745664710.6571922,-0.17969056963920593,0.04489920288324356,0.0731738954782486,0.26644858717918396,-0.10017863661050797,-9.653186798095703
1745664710.6607068,-0.16269910335540771,0.04361201450228691,0.08236494660377502,0.30897068977355957,-0.09341605752706528,-9.652324676513672
1745664710.6722271,-0.13654935359954834,0.045602668076753616,0.08466681092977524,0.33898624777793884,0.30697399377822876,-9.838560104370117
1745664710.7033052,-0.1085183173418045,0.05612025409936905,0.08773909509181976,0.32139500975608826,0.2975512742996216,-9.898557662963867
1745664710.7034943,-0.08802614361047745,0.044515687972307205,0.08983437716960907,0.5451727509498596,0.20963767170906067,-9.724034309387207
1745664710.703607,-0.05974539369344711,0.049763601273298264,0.09355482459068298,0.4455304741859436,0.17940294742584229,-9.761235237121582
1745664710.7049427,-0.0605827197432518,0.0557074248790741,0.09816311299800873,0.5597314834594727,-0.24163809418678284,-9.895792007446289
1745664710.7061257,-0.05989963933825493,0.04375944659113884,0.10226164758205414,0.4322088360786438,-0.22166161239147186,-9.716739654541016
1745664710.740334,-0.07448804378509521,0.055601827800273895,0.10773315280675888,0.5625306367874146,-0.6097027659416199,-9.742076873779297
1745664710.7439747,-0.09219402074813843,0.05349389836192131,0.11196217685937881,0.3649200201034546,-0.44638967514038086,-9.846139907836914
1745664710.7484653,-0.10562525689601898,0.06049071624875069,0.1131601557135582,0.33808594942092896,-0.5192726850509644,-9.719749450683594
1745664710.7505956,-0.12103630602359772,0.05129930377006531,0.11662764847278595,0.4827995300292969,-0.4098007082939148,-9.487848281860352
1745664710.7821527,-0.1296776831150055,0.06262320280075073,0.11747157573699951,0.2628664970397949,-0.40539225935935974,-9.838613510131836
1745664710.7837775,-0.1432676613330841,0.05809802934527397,0.12386796623468399,0.4401480257511139,-0.5592547655105591,-9.897542953491211
1745664710.7859187,-0.14232973754405975,0.06635922193527222,0.13261890411376953,0.28732889890670776,-0.38524848222732544,-9.576674461364746
1745664710.7872784,-0.1498747169971466,0.06948917359113693,0.14000384509563446,0.4356158673763275,-0.4866260886192322,-9.528895378112793
1745664710.7969944,-0.15385378897190094,0.06263265758752823,0.1465587317943573,0.41740497946739197,-0.12275820970535278,-9.748913764953613
1745664710.8266604,-0.15016229450702667,0.0680384412407875,0.14632216095924377,0.5836665034294128,-0.08025375008583069,-9.891788482666016
1745664710.830053,-0.1455080807209015,0.06472177803516388,0.14954328536987305,0.509192168712616,0.045932043343782425,-9.733942031860352
1745664710.8339376,-0.14491182565689087,0.06515080481767654,0.15130148828029633,0.34826576709747314,0.01970703899860382,-9.696276664733887
1745664710.8361065,-0.15095765888690948,0.05790344625711441,0.15336894989013672,0.6415593028068542,-0.11021310091018677,-9.688324928283691
1745664710.869801,-0.1421811580657959,0.061978571116924286,0.15574108064174652,0.42937976121902466,0.07467971742153168,-9.848480224609375
1745664710.8721874,-0.10712359100580215,0.05409196764230728,0.17395833134651184,0.36625832319259644,-0.13130898773670197,-9.785778045654297
1745664710.8747518,-0.11824645102024078,0.05293000489473343,0.17840012907981873,0.5111616849899292,-0.17810523509979248,-9.541945457458496
1745664710.8766377,-0.11354126781225204,0.055662162601947784,0.18192149698734283,0.296944797039032,-0.14357495307922363,-9.67935848236084
1745664710.9137628,-0.1312658041715622,0.0493101067841053,0.18154430389404297,0.49366384744644165,-0.2863694429397583,-9.76634693145752
1745664710.916799,-0.1437985748052597,0.0523194894194603,0.18468861281871796,0.4037674069404602,-0.1723804473876953,-9.731012344360352
1745664710.9198267,-0.1553325206041336,0.05640817806124687,0.18501850962638855,0.5212181806564331,-0.3074676990509033,-9.572517395019531
1745664710.9228866,-0.172991544008255,0.04309752210974693,0.18867278099060059,0.5047211050987244,-0.17108026146888733,-9.675463676452637
1745664710.961786,-0.17422433197498322,0.04869874194264412,0.19092226028442383,0.5517447590827942,-0.19731496274471283,-9.905733108520508
1745664710.9620233,-0.18054720759391785,0.049177248030900955,0.1960354894399643,0.5366331338882446,-0.06282450258731842,-9.759008407592773
1745664710.9624827,-0.1722726970911026,0.04719047620892525,0.19980108737945557,0.30618104338645935,0.13075146079063416,-9.53062915802002
1745664710.9681373,-0.16748948395252228,0.04072386771440506,0.20406897366046906,0.5816645622253418,0.13472099602222443,-9.499761581420898
1745664710.9704964,-0.15452095866203308,0.04387255758047104,0.20695073902606964,0.44297879934310913,0.3742506206035614,-9.894365310668945
1745664711.0008404,-0.13986067473888397,0.042969830334186554,0.20600470900535583,0.5595127940177917,0.31781649589538574,-9.936909675598145
1745664711.0071023,-0.15094879269599915,-0.019488874822854996,0.2764689028263092,0.5207021236419678,0.3884080946445465,-9.764801025390625
1745664711.007237,-0.14081420004367828,-0.009502498432993889,0.2730371356010437,0.40602827072143555,0.4443836808204651,-9.658651351928711
1745664711.0102425,-0.1521943360567093,-0.02429800108075142,0.27548837661743164,0.518908679485321,0.2835235595703125,-9.747125625610352
1745664711.0429564,-0.13785074651241302,-0.023518821224570274,0.27562862634658813,0.43085455894470215,0.4658285081386566,-9.952552795410156
1745664711.0447128,-0.14684927463531494,-0.015347711741924286,0.27910304069519043,0.5605190992355347,0.2547270655632019,-9.840913772583008
1745664711.0512385,-0.1454538106918335,-0.02686249651014805,0.28079885244369507,0.32510074973106384,0.43252497911453247,-9.661439895629883
1745664711.0513668,-0.13848432898521423,-0.026943624019622803,0.2826539874076843,0.5005048513412476,0.2829688489437103,-9.637758255004883
1745664711.0862741,-0.1537967026233673,-0.022790879011154175,0.284828245639801,0.4624311923980713,0.44361382722854614,-9.901394844055176
1745664711.0900352,-0.12992408871650696,-0.019138691946864128,0.2850525677204132,0.4338347911834717,0.4226028025150299,-9.928075790405273
1745664711.0929902,-0.15004563331604004,-0.03274675831198692,0.28576913475990295,0.5358012914657593,0.36820778250694275,-9.698323249816895
1745664711.097239,-0.13479654490947723,-0.02492138370871544,0.28762951493263245,0.3230213522911072,0.4461039900779724,-9.805777549743652
1745664711.098968,-0.15426543354988098,-0.023500464856624603,0.28749775886535645,0.49094900488853455,0.2866281569004059,-9.774712562561035
1745664711.129182,-0.1441674530506134,-0.03211180493235588,0.2895726263523102,0.3795672655105591,0.4415742754936218,-9.734600067138672
1745664711.1313717,-0.1492430865764618,-0.026761358603835106,0.28921613097190857,0.5455508828163147,0.35397225618362427,-9.78259563446045
1745664711.1334765,-0.15379835665225983,-0.027951378375291824,0.2911199629306793,0.37980765104293823,0.43755459785461426,-9.894081115722656
1745664711.1369212,-0.1447526216506958,-0.02692450024187565,0.2926007807254791,0.38547590374946594,0.45883774757385254,-9.774201393127441
1745664711.1764078,-0.15181617438793182,-0.030625158920884132,0.2960166037082672,0.5465788841247559,0.48175573348999023,-9.653221130371094
1745664711.1786609,-0.14113348722457886,-0.02368955686688423,0.2966143488883972,0.34570783376693726,0.49324578046798706,-9.891433715820312
1745664711.1831267,-0.14306232333183289,-0.02991936169564724,0.29745998978614807,0.5115448832511902,0.5208377838134766,-9.815459251403809
1745664711.1862504,-0.14134691655635834,-0.032093822956085205,0.29668891429901123,0.3579588830471039,0.5520569086074829,-9.840341567993164
1745664711.1902618,-0.13274188339710236,-0.024471495300531387,0.3002914786338806,0.4714600443840027,0.46833324432373047,-9.740324020385742
1745664711.2149725,-0.15077142417430878,-0.030977901071310043,0.2988571226596832,0.38525137305259705,0.5340909361839294,-9.778395652770996
1745664711.2181885,-0.1262657344341278,-0.030175868421792984,0.301941841840744,0.503429114818573,0.4866957664489746,-9.844429969787598
1745664711.2213979,-0.14318892359733582,-0.030037682503461838,0.30417734384536743,0.3037084937095642,0.5968286395072937,-9.74840259552002
1745664711.2247016,-0.13335756957530975,-0.027363359928131104,0.3083166778087616,0.44121915102005005,0.37801462411880493,-9.926080703735352
1745664711.2576811,-0.13981977105140686,-0.03520575910806656,0.3080487847328186,0.39767417311668396,0.7090662717819214,-9.76164436340332
1745664711.2602494,-0.1282288134098053,-0.029479574412107468,0.3089890778064728,0.4619351327419281,0.5444477796554565,-9.797027587890625
1745664711.2628777,-0.1339123398065567,-0.03282049298286438,0.308886855840683,0.42957791686058044,0.648727536201477,-9.863635063171387
1745664711.265652,-0.13547387719154358,-0.028613680973649025,0.3091219365596771,0.30015304684638977,0.5151253938674927,-9.842794418334961
1745664711.2999508,-0.12952196598052979,-0.03301013261079788,0.3066430985927582,0.5481705665588379,0.499426931142807,-9.61021900177002
1745664711.3040347,-0.14349336922168732,-0.027634423226118088,0.3098369240760803,0.28434404730796814,0.6624999046325684,-9.836907386779785
1745664711.3083003,-0.13661403954029083,-0.030360514298081398,0.3111204504966736,0.5236907005310059,0.38975390791893005,-9.929140090942383
1745664711.3137732,-0.1393720507621765,-0.0282522551715374,0.3115376830101013,0.38667434453964233,0.7109832763671875,-9.71021842956543
1745664711.3148966,-0.1358272284269333,-0.023144211620092392,0.31419405341148376,0.4241951107978821,0.5362862348556519,-9.7456636428833
1745664711.3457959,-0.13649141788482666,-0.034065183252096176,0.3148115575313568,0.429032564163208,0.6306377649307251,-9.830982208251953
1745664711.3464832,-0.13090640306472778,-0.024204345420002937,0.3168497681617737,0.4174976348876953,0.7129488587379456,-9.838030815124512
1745664711.3499284,-0.09847361594438553,-0.017611199989914894,0.33259809017181396,0.48161762952804565,0.7704160213470459,-9.647969245910645
1745664711.3503833,-0.11065693199634552,-0.02516896091401577,0.3323102295398712,0.2830198407173157,0.8407131433486938,-9.80729866027832
1745664711.3857346,-0.08880623430013657,-0.02114745043218136,0.3351733088493347,0.5474372506141663,0.7518712878227234,-9.710065841674805
1745664711.3887365,-0.11295976489782333,-0.019400622695684433,0.33348435163497925,0.4181066155433655,0.8807412385940552,-9.756410598754883
1745664711.3888397,-0.09833548218011856,-0.022358423098921776,0.33391016721725464,0.3529893755912781,0.7286416292190552,-9.854415893554688
1745664711.3907678,-0.10116080939769745,-0.025744270533323288,0.33481743931770325,0.5409430861473083,0.8185623288154602,-9.664124488830566
1745664711.4305453,-0.10199113190174103,-0.01621977426111698,0.3330017030239105,0.3271394371986389,0.9378984570503235,-9.719846725463867
1745664711.4344058,-0.09999679774045944,-0.023087166249752045,0.3377278745174408,0.4802395701408386,0.6761226058006287,-9.768511772155762
1745664711.437807,-0.10473525524139404,-0.02725035510957241,0.3354351222515106,0.37154415249824524,1.010719656944275,-9.644803047180176
1745664711.4414723,-0.09383091330528259,-0.01943039521574974,0.33683615922927856,0.5281680226325989,0.8066256642341614,-9.76481819152832
1745664711.473151,-0.10051244497299194,-0.023200124502182007,0.33452004194259644,0.35049423575401306,0.9749543070793152,-9.862954139709473
1745664711.4752796,-0.09429789334535599,-0.01981877163052559,0.33503273129463196,0.3863888084888458,0.785986602306366,-9.6961030960083
1745664711.475906,-0.09321506321430206,-0.02775939181447029,0.335745632648468,0.5228255391120911,0.8920601010322571,-9.515832901000977
1745664711.4782243,-0.09835660457611084,-0.018000107258558273,0.3364577889442444,0.31570619344711304,0.9964265823364258,-9.830436706542969
1745664711.4805808,-0.0905318483710289,-0.028101706877350807,0.3369468152523041,0.5186874866485596,0.732280969619751,-9.89564323425293
1745664711.5156314,-0.08796447515487671,-0.020889952778816223,0.3365420699119568,0.3426905572414398,1.0444166660308838,-9.632047653198242
1745664711.5186775,-0.08683077991008759,-0.015814345329999924,0.33736997842788696,0.4876985549926758,0.848107635974884,-9.595357894897461
1745664711.5187705,-0.0890914723277092,-0.030476372689008713,0.3376515507698059,0.33036038279533386,0.9471639394760132,-9.788904190063477
1745664711.5188143,-0.07930846512317657,-0.020424116402864456,0.33701586723327637,0.4812210202217102,0.892932116985321,-9.787497520446777
1745664711.5582345,-0.0855681449174881,-0.023138377815485,0.33875802159309387,0.451056569814682,0.889653205871582,-9.688241004943848
1745664711.563145,-0.07661549001932144,-0.017528412863612175,0.3377796411514282,0.30824849009513855,1.0627765655517578,-9.69714069366455
1745664711.5668411,-0.08501946181058884,-0.030700480565428734,0.338580459356308,0.5304876565933228,0.74876469373703,-9.775503158569336
1745664711.5776887,-0.08181651681661606,-0.027357876300811768,0.33776870369911194,0.3601098656654358,0.9340811967849731,-9.857320785522461
1745664711.6001437,-0.059868138283491135,-0.027421677485108376,0.33904021978378296,0.3452922999858856,1.0477632284164429,-9.83008861541748
1745664711.6023152,-0.0768987312912941,-0.026751946657896042,0.33723577857017517,0.5556089282035828,0.8760461807250977,-9.584866523742676
1745664711.6033041,-0.0566721186041832,-0.02789711393415928,0.33761316537857056,0.3383869528770447,1.105076551437378,-9.681595802307129
1745664711.605642,-0.06847010552883148,-0.0298178531229496,0.33796781301498413,0.43461042642593384,0.9018136262893677,-9.868684768676758
1745664711.6067834,-0.06230013445019722,-0.030126173049211502,0.33501559495925903,0.3053019344806671,0.9631881713867188,-9.748074531555176
1745664711.6443875,-0.055576395243406296,-0.021456029266119003,0.33454984426498413,0.4774603843688965,0.9735859036445618,-9.459346771240234
1745664711.6474113,-0.07641448825597763,-0.0337703563272953,0.3368028998374939,0.32978755235671997,0.8048433065414429,-9.751663208007812
1745664711.6485221,-0.049209918826818466,-0.02544465661048889,0.3366468846797943,0.4294637143611908,0.977678656578064,-9.861480712890625
1745664711.6522403,-0.07304676622152328,-0.025510579347610474,0.3393755555152893,0.5151286721229553,0.8894486427307129,-9.734097480773926
1745664711.693349,-0.057034075260162354,-0.027797365561127663,0.3363131582736969,0.31974542140960693,1.003109335899353,-9.5733642578125
1745664711.6934047,-0.06043291091918945,-0.03398583456873894,0.3374442160129547,0.5581267476081848,0.9289613962173462,-9.693008422851562
1745664711.6956258,-0.062335170805454254,-0.025957519188523293,0.33796435594558716,0.3262116312980652,1.064800500869751,-9.979780197143555
1745664711.6979456,-0.04655425623059273,-0.026571203023195267,0.33749449253082275,0.4822460114955902,1.0056684017181396,-9.677270889282227
1745664711.7283006,-0.02040128782391548,-0.028363406658172607,0.3373660147190094,0.38146212697029114,1.127910852432251,-9.793706893920898
1745664711.731517,-0.011712387204170227,-0.022310297936201096,0.3353224992752075,0.35424718260765076,1.1343193054199219,-9.813019752502441
1745664711.7358153,-0.020787768065929413,-0.035806894302368164,0.33419275283813477,0.4481425881385803,0.8598216772079468,-9.688794136047363
1745664711.7374513,-0.004087221808731556,-0.024303454905748367,0.3355535864830017,0.39424794912338257,1.1172277927398682,-9.587628364562988
1745664711.7399268,-0.030850965529680252,-0.027825400233268738,0.33447784185409546,0.41452574729919434,0.8384345769882202,-9.875436782836914
1745664711.7731473,-0.016405807808041573,-0.029456228017807007,0.33419060707092285,0.3215066194534302,1.0097049474716187,-9.844833374023438
1745664711.7772076,-0.0197982769459486,-0.025211621075868607,0.3325079083442688,0.5699700713157654,0.9038532376289368,-9.593770980834961
1745664711.790136,-0.02999785915017128,-0.026129182428121567,0.3368307054042816,0.27163904905319214,1.002982258796692,-9.744502067565918
1745664711.7903059,-0.012549239210784435,-0.029486019164323807,0.3371139168739319,0.433582067489624,0.9299135208129883,-9.770240783691406
1745664711.815542,-0.029748165979981422,-0.02891060709953308,0.3364124298095703,0.44579416513442993,0.955985426902771,-9.716854095458984
1745664711.817975,-0.009848278015851974,-0.024422358721494675,0.335803359746933,0.30693063139915466,1.0759503841400146,-9.751256942749023
1745664711.8180692,-0.026234691962599754,-0.0305829755961895,0.3358546197414398,0.383340448141098,0.919162929058075,-9.787233352661133
1745664711.8202631,-0.00988872442394495,-0.026490341871976852,0.336102694272995,0.31330639123916626,1.0824167728424072,-9.742545127868652
1745664711.8211944,-0.016725797206163406,-0.023653002455830574,0.3333578109741211,0.49512290954589844,1.0104275941848755,-9.625221252441406
1745664711.8591688,-0.02379107102751732,-0.030738577246665955,0.33371567726135254,0.225260928273201,0.9686232805252075,-9.80537223815918
1745664711.8619797,-0.00557026406750083,-0.025358697399497032,0.33465781807899475,0.5499951839447021,0.9738756418228149,-9.69361400604248
1745664711.86358,-0.03224442899227142,-0.026901278644800186,0.33308786153793335,0.4190903306007385,0.9546844363212585,-9.776153564453125
1745664711.8670342,-0.011764587834477425,-0.023686565458774567,0.33515578508377075,0.3398669362068176,0.9384437799453735,-9.782861709594727
1745664711.9029217,-0.022338518872857094,-0.029312867671251297,0.33599215745925903,0.46601930260658264,0.9812278747558594,-9.658856391906738
1745664711.9052505,-0.017522946000099182,-0.018865341320633888,0.3340578079223633,0.32092002034187317,1.10154128074646,-9.725323677062988
1745664711.9067323,-0.009926577098667622,-0.027451151981949806,0.3354416787624359,0.5024921298027039,1.0279059410095215,-9.754921913146973
1745664711.9085226,-0.012769843451678753,-0.027101263403892517,0.3343715965747833,0.23479771614074707,1.1617131233215332,-9.857317924499512
1745664711.9519253,-0.012500742450356483,-0.02999921143054962,0.3316005766391754,0.48806411027908325,0.7905304431915283,-9.598231315612793
1745664711.952237,-0.01482832245528698,-0.0292848851531744,0.33300960063934326,0.3762008547782898,1.064774751663208,-9.672605514526367
1745664711.9522915,-0.01571767032146454,-0.02066655084490776,0.33639952540397644,0.4378949999809265,0.8369572758674622,-9.927668571472168
1745664711.9541035,-0.020057734102010727,-0.02508220449090004,0.3343668282032013,0.27820640802383423,1.1030046939849854,-9.745234489440918
1745664711.9573328,-0.008435755036771297,-0.023969633504748344,0.3353601396083832,0.43855008482933044,0.9294359087944031,-9.552586555480957
1745664711.989759,-0.014116746373474598,-0.027012014761567116,0.3348967134952545,0.41285404562950134,1.0266985893249512,-9.739447593688965
1745664711.9929667,-0.014680178835988045,-0.018633928149938583,0.3345028758049011,0.30664029717445374,1.0696039199829102,-9.952180862426758
1745664711.9966886,-0.009970271959900856,-0.030704354867339134,0.33312439918518066,0.5249682664871216,0.870048999786377,-9.661270141601562
1745664712.0013957,-0.007074848748743534,-0.020768947899341583,0.3345783054828644,0.36633819341659546,1.2101197242736816,-9.56700611114502
1745664712.0324726,-0.014380419626832008,-0.024288838729262352,0.3351307511329651,0.43822088837623596,0.831774115562439,-9.872354507446289
1745664712.0342836,-0.004469756968319416,-0.028970221057534218,0.3336791694164276,0.30625811219215393,1.1256487369537354,-9.856618881225586
1745664712.0366557,0.0005963666480965912,-0.01668228581547737,0.33513134717941284,0.48887744545936584,0.9870113134384155,-9.585099220275879
1745664712.0414827,-0.010552383959293365,-0.026074830442667007,0.3356509804725647,0.32307168841362,0.9930757284164429,-9.686537742614746
1745664712.0740461,0.0025048195384442806,-0.02557196095585823,0.3330482840538025,0.39650803804397583,1.096253752708435,-9.798622131347656
1745664712.0761077,0.005548995919525623,-0.028549233451485634,0.3345801830291748,0.43543997406959534,0.9539157152175903,-9.669886589050293
1745664712.0771947,0.007286386098712683,-0.023009080439805984,0.33120325207710266,0.28023895621299744,1.0000041723251343,-9.896963119506836
1745664712.0792677,0.0029647022020071745,-0.02910502254962921,0.33216172456741333,0.5192741751670837,0.7673723697662354,-9.754377365112305
1745664712.0802267,0.0024993405677378178,-0.021054338663816452,0.33305662870407104,0.35365530848503113,1.1167508363723755,-9.560850143432617
1745664712.1177762,-0.005978145636618137,-0.029178911820054054,0.3333400785923004,0.4194486737251282,0.7158510088920593,-9.773344039916992
1745664712.1194885,0.004568859003484249,-0.032023996114730835,0.33268728852272034,0.35185763239860535,1.0916507244110107,-9.823188781738281
1745664712.122294,0.0006475471891462803,-0.017590055242180824,0.3347718417644501,0.4636211395263672,0.9982921481132507,-9.761517524719238
1745664712.1227384,0.0017253305995836854,-0.028998330235481262,0.3318461775779724,0.3300853371620178,1.041548728942871,-9.629817962646484
1745664712.1606717,0.019662778824567795,-0.027730608358979225,0.33273008465766907,0.3912801146507263,1.0845797061920166,-9.667767524719238
1745664712.164619,0.003326915670186281,-0.025796353816986084,0.33255892992019653,0.4646640717983246,0.9304441213607788,-9.831073760986328
1745664712.167646,0.02132589742541313,-0.02488609217107296,0.3323479890823364,0.3193541169166565,1.115760326385498,-9.784575462341309
