timestamp,angular_vel_x,angular_vel_y,angular_vel_z,linear_acc_x,linear_acc_y,linear_acc_z
1745736487.9682393,-0.0674176812171936,-0.01784454844892025,0.4846777319908142,0.5549077987670898,0.956628680229187,-9.694435119628906
1745736487.9694667,-0.0777798593044281,-0.014640426263213158,0.48387521505355835,0.6155646443367004,0.651304304599762,-9.74305534362793
1745736487.9724407,-0.06399847567081451,-0.023961327970027924,0.4827652871608734,0.526665449142456,1.0025644302368164,-9.686941146850586
1745736487.9742658,-0.06437397003173828,-0.0169906597584486,0.48490554094314575,0.5791486501693726,0.8414894938468933,-9.722349166870117
1745736488.009991,-0.055239707231521606,-0.024134404957294464,0.4800458550453186,0.653378427028656,0.9940627217292786,-9.686528205871582
1745736488.011371,-0.05600523203611374,-0.017040008679032326,0.47910046577453613,0.5026413202285767,0.9507558941841125,-9.84438705444336
1745736488.0131745,-0.06197385862469673,-0.023698095232248306,0.4781250059604645,0.6613520383834839,0.6766869425773621,-9.749513626098633
1745736488.0165453,-0.04137570783495903,-0.019366919994354248,0.47875314950942993,0.5683931112289429,1.0109797716140747,-9.557454109191895
1745736488.0514412,-0.07775072753429413,-0.020759765058755875,0.4780731201171875,0.6558045148849487,0.6013967990875244,-9.825323104858398
1745736488.0538902,-0.05129801481962204,-0.029031027108430862,0.47804775834083557,0.6067305207252502,0.9313972592353821,-9.81804370880127
1745736488.0556135,-0.06260250508785248,-0.017020005732774734,0.47834333777427673,0.6421460509300232,0.7998633980751038,-9.698585510253906
1745736488.0572577,-0.029826167970895767,-0.024433428421616554,0.45386019349098206,0.44954752922058105,0.6624960899353027,-9.79857063293457
1745736488.0588133,-0.024370752274990082,-0.037214651703834534,0.4533982276916504,0.5882725715637207,0.959540069103241,-9.542378425598145
1745736488.0966508,-0.021537482738494873,-0.027437174692749977,0.4536791741847992,0.5736483335494995,0.8369890451431274,-9.749156951904297
1745736488.1015584,-0.032124683260917664,-0.02934902347624302,0.45384126901626587,0.6515564918518066,0.8649822473526001,-9.919111251831055
1745736488.1072729,-0.016291366890072823,-0.03175114840269089,0.4532626271247864,0.47728514671325684,1.0974727869033813,-9.739595413208008
1745736488.1103761,-0.02607344463467598,-0.030778270214796066,0.4498051106929779,0.649111270904541,0.7703636884689331,-9.611322402954102
1745736488.1373863,-0.014530090615153313,-0.03189219534397125,0.4488586485385895,0.5250533223152161,1.2016812562942505,-9.749250411987305
1745736488.1407056,-0.029269423335790634,-0.029062414541840553,0.44637903571128845,0.5260825157165527,0.7846231460571289,-9.950467109680176
1745736488.1456816,-0.013496382161974907,-0.037062644958496094,0.4451279044151306,0.5994467735290527,0.9079456329345703,-9.611757278442383
1745736488.1480477,-0.015891058370471,-0.025303399190306664,0.44559168815612793,0.5091689825057983,0.9825165867805481,-9.580689430236816
1745736488.149532,-0.025945883244276047,-0.03778756782412529,0.4480751156806946,0.6242824792861938,0.8185275197029114,-9.831804275512695
1745736488.197728,-0.00432997103780508,-0.0329790934920311,0.4444403052330017,0.5131632089614868,0.9875451922416687,-9.870370864868164
1745736488.1995783,-0.01671607792377472,-0.026863301172852516,0.4463236331939697,0.6710572242736816,0.8093208074569702,-9.63882827758789
1745736488.2017598,-0.008097315207123756,-0.03380989655852318,0.44580307602882385,0.49063143134117126,1.074467658996582,-9.612892150878906
1745736488.211627,-0.00944170169532299,-0.03337448090314865,0.4446972906589508,0.5577772259712219,0.8617973327636719,-9.8112211227417
1745736488.223103,-0.0046517630107700825,-0.03541172668337822,0.4437711834907532,0.5646937489509583,0.9578307867050171,-9.84389877319336
1745736488.2260187,-0.00401310995221138,-0.025964289903640747,0.44364386796951294,0.44877544045448303,0.9172784090042114,-9.706064224243164
1745736488.2296262,-0.01963101327419281,-0.03627420961856842,0.44155511260032654,0.5979970693588257,0.7754358053207397,-9.576713562011719
1745736488.2309859,0.004951678682118654,-0.03431205078959465,0.4402998089790344,0.5208139419555664,0.903248131275177,-9.722038269042969
1745736488.2320156,-0.02231551893055439,-0.026744509115815163,0.44198545813560486,0.6686061024665833,0.7955881953239441,-9.947657585144043
1745736488.267468,8.12806174508296e-05,-0.04227307066321373,0.4386637806892395,0.5044293999671936,1.1713241338729858,-9.759688377380371
1745736488.2689385,-0.0026559617836028337,-0.0385291688144207,0.43116194009780884,0.3144834041595459,1.0199028253555298,-9.773706436157227
1745736488.2707345,0.028328781947493553,-0.05134308338165283,0.4038597047328949,0.31895872950553894,0.24403245747089386,-9.855677604675293
1745736488.271803,0.0378815233707428,-0.03865368291735649,0.40422457456588745,0.5626109838485718,0.5334487557411194,-9.848910331726074
1745736488.3136249,-0.013795517385005951,-0.044867001473903656,0.40044498443603516,0.3380168378353119,0.384581983089447,-9.917137145996094
1745736488.3220127,-0.010868040844798088,-0.04774338752031326,0.3986033499240875,0.4094570577144623,0.3915604054927826,-9.543405532836914
1745736488.322112,-0.052967436611652374,-0.04646837338805199,0.395374596118927,0.3930809795856476,0.6109830737113953,-9.63054370880127
1745736488.3248358,-0.03900137171149254,-0.05299588292837143,0.38763368129730225,0.27414563298225403,0.9578782320022583,-9.97734546661377
1745736488.3545232,-0.06551184505224228,-0.0526743121445179,0.38043132424354553,0.31799426674842834,1.01170015335083,-9.895159721374512
1745736488.357985,-0.02090640552341938,-0.05835994333028793,0.37594443559646606,0.15150406956672668,1.3347262144088745,-9.57185173034668
1745736488.3580434,-0.012893271632492542,-0.05235125496983528,0.3725188374519348,0.40428394079208374,1.345394492149353,-9.533319473266602
1745736488.3592756,0.021856190636754036,-0.062236834317445755,0.36895498633384705,0.21585829555988312,1.3595116138458252,-10.029867172241211
1745736488.3963556,0.05656886100769043,-0.05455616116523743,0.3687130808830261,0.31176483631134033,1.162274718284607,-9.889638900756836
1745736488.3985221,0.07628630101680756,-0.05843226984143257,0.36977967619895935,0.35506176948547363,1.070282220840454,-9.576083183288574
1745736488.4004953,0.08576589077711105,-0.05779877305030823,0.36679595708847046,0.14185945689678192,1.0621559619903564,-9.650827407836914
1745736488.4019203,0.071407750248909,-0.06553243100643158,0.3628084063529968,0.3586234450340271,0.49759960174560547,-9.897237777709961
1745736488.4083164,0.11936304718255997,-0.04327274113893509,0.2871371805667877,0.2885878086090088,0.8811348080635071,-10.047863006591797
1745736488.4413474,0.1031123623251915,-0.03456813469529152,0.28654712438583374,0.15426573157310486,0.4921550750732422,-9.72960376739502
1745736488.4446006,0.10078193992376328,-0.050984155386686325,0.28409358859062195,0.3548509478569031,0.5719016790390015,-9.367399215698242
1745736488.4496043,0.09809255599975586,-0.037055499851703644,0.2816636562347412,0.09086744487285614,0.5722739100456238,-9.918830871582031
1745736488.454387,0.07132254540920258,-0.03688148409128189,0.2775851786136627,0.24309854209423065,0.44932880997657776,-10.068161010742188
1745736488.4859915,0.08434043824672699,-0.03657723590731621,0.27628347277641296,0.11893676221370697,0.6105901598930359,-9.55734920501709
1745736488.4907637,0.0653233751654625,-0.03151852637529373,0.2731601595878601,0.2961988151073456,0.515787661075592,-9.428001403808594
1745736488.495166,0.06747613847255707,-0.040012359619140625,0.27209189534187317,0.2666162848472595,0.7168750166893005,-9.951482772827148
1745736488.498379,0.0795191079378128,-0.020532134920358658,0.2731319069862366,0.2892914414405823,0.5792977213859558,-10.109057426452637
1745736488.526911,0.07435677945613861,-0.032652951776981354,0.2703584134578705,0.27272331714630127,0.7798234820365906,-9.612801551818848
1745736488.5286667,0.09391137957572937,-0.025948453694581985,0.27070075273513794,0.16353145241737366,0.7557593584060669,-9.508467674255371
1745736488.5307305,0.09267593175172806,-0.028234731405973434,0.26918965578079224,0.3450849950313568,0.7771990299224854,-9.891006469726562
1745736488.5332236,0.1081155315041542,-0.026497095823287964,0.2658482491970062,0.10735435783863068,0.9106820821762085,-10.105790138244629
1745736488.5351205,0.11288634687662125,-0.019313598051667213,0.2645506262779236,0.3042562007904053,0.605060875415802,-9.682802200317383
1745736488.572512,0.112326480448246,-0.028942232951521873,0.25827792286872864,0.16389720141887665,0.8897644281387329,-9.453633308410645
1745736488.5742328,0.11057357490062714,-0.02266521379351616,0.25751474499702454,0.2972239553928375,0.3412379026412964,-9.940027236938477
1745736488.576267,0.107775017619133,-0.025608759373426437,0.2567642033100128,0.40722545981407166,0.5913393497467041,-10.040645599365234
1745736488.5801635,0.10074847936630249,-0.019151810556650162,0.25622135400772095,0.13354447484016418,0.40790146589279175,-9.917841911315918
1745736488.6110253,0.09449775516986847,-0.023773550987243652,0.2564029097557068,0.4795103967189789,0.40812039375305176,-9.425681114196777
1745736488.6135592,0.10684583336114883,-0.026183467358350754,0.25008827447891235,0.3556928038597107,0.9244726300239563,-9.778572082519531
1745736488.617109,0.10104222595691681,-0.021871773526072502,0.2381645143032074,-0.12538975477218628,0.7392932176589966,-10.479246139526367
1745736488.6193292,0.12418939918279648,-0.025281991809606552,0.22613899409770966,0.1795661747455597,0.956558883190155,-9.277758598327637
1745736488.6221657,0.14332064986228943,-0.008559422567486763,0.21897995471954346,0.13009747862815857,0.6644350290298462,-9.373136520385742
1745736488.6541226,0.107813261449337,-0.03272710740566254,0.21376991271972656,0.3052445352077484,-0.16220800578594208,-9.723662376403809
1745736488.6594672,0.08935477584600449,-0.007920505478978157,0.20600727200508118,0.3683561384677887,0.23801898956298828,-10.706130981445312
1745736488.660283,0.0961708053946495,0.017910022288560867,0.19426360726356506,-0.03957293555140495,0.5695263743400574,-9.871103286743164
1745736488.6676872,0.05903957039117813,0.0038375176955014467,0.17754557728767395,0.8187903165817261,0.6512480974197388,-8.415626525878906
1745736488.6985435,0.061737608164548874,-0.021033503115177155,0.1647249013185501,1.006564736366272,0.6039196848869324,-9.792933464050293
1745736488.701313,0.11484447866678238,-7.86419041105546e-05,0.1577025204896927,0.5650933980941772,1.0804922580718994,-11.386680603027344
1745736488.7018309,0.09961377084255219,0.013013437390327454,0.15581420063972473,0.3301753103733063,0.553643524646759,-9.957977294921875
1745736488.7052016,0.1702655851840973,0.009965662844479084,0.15344858169555664,0.3228842616081238,0.6275875568389893,-8.102328300476074
1745736488.7068353,0.13970914483070374,-0.006444625556468964,0.15451857447624207,0.6266227960586548,0.8041298985481262,-9.515806198120117
1745736488.7424502,0.20243589580059052,0.006152935791760683,0.14162462949752808,0.15650206804275513,1.2222790718078613,-11.483986854553223
1745736488.744903,0.22503598034381866,0.03270135447382927,0.12456010282039642,0.21651509404182434,0.841300368309021,-9.86153507232666
1745736488.7474945,0.21304428577423096,0.013416903093457222,0.11241914331912994,0.48194044828414917,0.7024424076080322,-8.077041625976562
1745736488.748663,0.1940278261899948,0.002135800663381815,0.10271165519952774,0.6688151359558105,-2.8005242711515166e-05,-9.763766288757324
1745736488.7857742,0.24544736742973328,0.03592183440923691,-0.032482076436281204,0.20980775356292725,0.31991520524024963,-9.778780937194824
1745736488.7898395,0.2170371115207672,0.03364323452115059,-0.041348181664943695,0.45194539427757263,-0.08147980272769928,-10.042182922363281
1745736488.793019,0.22942307591438293,0.02958429977297783,-0.04634612053632736,0.36832094192504883,-0.054115138947963715,-9.666051864624023
1745736488.7940931,0.17727233469486237,0.030619759112596512,-0.04823236167430878,0.43044623732566833,-0.5611523985862732,-9.621363639831543
1745736488.8265593,0.1834191530942917,0.02290966734290123,-0.05184082314372063,0.35241079330444336,-0.3269454836845398,-9.647199630737305
1745736488.827783,0.14470812678337097,0.03447553515434265,-0.049202024936676025,0.6035264134407043,-0.4953072667121887,-9.76194953918457
1745736488.8311608,0.14746059477329254,0.019994687288999557,-0.0504789724946022,0.6221038103103638,-0.24565871059894562,-9.803510665893555
1745736488.8350687,0.15504834055900574,0.02358577586710453,-0.050461143255233765,0.40594062209129333,0.09492158144712448,-9.764625549316406
1745736488.8697007,0.14421550929546356,0.02223156951367855,-0.05496537685394287,0.4018628001213074,-0.0005008637672290206,-9.744141578674316
1745736488.873918,0.18483635783195496,0.022961854934692383,-0.05636122077703476,0.1982928216457367,0.2877630591392517,-9.60902214050293
1745736488.8783457,0.16981659829616547,0.020708050578832626,-0.060256123542785645,0.40343207120895386,-0.005252200178802013,-9.707947731018066
1745736488.8799696,0.20169603824615479,0.012869331054389477,-0.06290476024150848,0.3139011263847351,0.2762094736099243,-9.78940486907959
1745736488.8847232,0.1909179985523224,0.024461019784212112,-0.06673472374677658,0.3936898112297058,-0.2729015052318573,-9.762807846069336
1745736488.912819,0.19632215797901154,0.013491344638168812,-0.06689392030239105,0.5693049430847168,-0.04087289795279503,-9.477563858032227
1745736488.914528,0.18688252568244934,0.016642697155475616,-0.07025784254074097,0.601904034614563,-0.4102850556373596,-9.785919189453125
1745736488.9167762,0.16650602221488953,0.009493855759501457,-0.072844959795475,0.6884914636611938,-0.3112751841545105,-10.055048942565918
1745736488.9180782,0.1734021008014679,0.011912000365555286,-0.07366655766963959,0.41332998871803284,-0.3497362732887268,-9.856407165527344
1745736488.955903,0.1478729546070099,0.010959012433886528,-0.07689972221851349,0.4717218279838562,-0.39989203214645386,-9.436854362487793
1745736488.9594285,0.1511450856924057,0.00319136050529778,-0.07690434157848358,0.34283095598220825,-0.14711929857730865,-9.595842361450195
1745736488.9632583,0.14898523688316345,0.010139426216483116,-0.08142673969268799,0.4099311828613281,-0.20148475468158722,-9.98484992980957
1745736488.9664998,0.14986155927181244,0.0015537880826741457,-0.08764513581991196,0.34648504853248596,0.0315525121986866,-9.802995681762695
1745736488.9687996,0.16493767499923706,0.012101340107619762,-0.0857618898153305,0.34309667348861694,-0.2692182660102844,-9.539522171020508
1745736489.0002313,0.15703395009040833,-0.003934686537832022,-0.08950064331293106,0.5229154229164124,-0.1761532425880432,-9.627019882202148
1745736489.0015316,0.13373902440071106,-0.0009049383806996047,-0.09133552014827728,0.5041282773017883,-0.3706364035606384,-9.550054550170898
1745736489.002861,0.13302162289619446,-0.006538142450153828,-0.09439774602651596,0.4617200791835785,-0.21810689568519592,-9.950506210327148
1745736489.0054684,0.13776910305023193,-0.00041027608676813543,-0.0967247262597084,0.35399892926216125,-0.2665337324142456,-10.019922256469727
1745736489.041704,0.12869814038276672,-0.009137908928096294,-0.09808178246021271,0.2440180778503418,-0.2690345048904419,-9.520959854125977
1745736489.0443852,0.1348586529493332,-0.013224592432379723,-0.096643827855587,0.1362798660993576,-0.45055803656578064,-9.507037162780762
1745736489.0455184,0.1131482869386673,-0.008420614525675774,-0.0934549942612648,0.12111566960811615,-0.48394522070884705,-9.96320915222168
1745736489.0481079,0.13125339150428772,-0.007214021869003773,-0.09141643345355988,0.08298460394144058,-0.20412763953208923,-9.808018684387207
1745736489.0500693,0.11085163056850433,-0.008396683260798454,-0.09307817369699478,0.3599516749382019,-0.44583529233932495,-9.443805694580078
1745736489.0912275,0.12352349609136581,-0.020690295845270157,-0.09041161835193634,0.3317279517650604,-0.12167368084192276,-9.739217758178711
1745736489.0935981,0.12179163843393326,-0.01905962824821472,-0.09268704056739807,0.376238614320755,-0.4849027097225189,-10.228209495544434
1745736489.0972242,0.11577069759368896,-0.021915936842560768,-0.08967535197734833,0.27429696917533875,-0.3583303689956665,-9.970731735229492
1745736489.102153,0.11328103393316269,-0.019585469737648964,-0.08785854279994965,0.18799486756324768,-0.591020405292511,-9.421380996704102
1745736489.129322,0.09217958152294159,-0.02908431366086006,-0.0854371190071106,0.35774460434913635,-0.4991482198238373,-9.460198402404785
1745736489.1327975,0.05434834957122803,-0.04103522375226021,-0.010102184489369392,0.23870405554771423,-0.40065592527389526,-9.523397445678711
1745736489.1344512,0.03152124956250191,-0.02855285443365574,-0.019054697826504707,0.33139434456825256,-0.5838412046432495,-10.834650039672852
1745736489.1365812,-0.002296416787430644,-0.027784835547208786,-0.025532077997922897,0.40416091680526733,-0.7776907682418823,-10.300790786743164
1745736489.1713574,-0.014396751299500465,-0.028476428240537643,-0.02653910219669342,0.19187414646148682,-0.808035671710968,-9.076480865478516
1745736489.1741385,-0.07952272891998291,-0.03275429829955101,-0.014664793387055397,0.4006911814212799,-1.5110522508621216,-9.359320640563965
1745736489.1760662,-0.07619986683130264,-0.02358965203166008,0.004334164317697287,0.5293247103691101,-0.988827109336853,-10.20190143585205
1745736489.1794982,-0.08787243813276291,-0.0072609358467161655,0.0184056106954813,0.46665018796920776,-0.9449013471603394,-10.378347396850586
1745736489.2133563,-0.08686118572950363,-0.013628783635795116,0.026334038004279137,0.2368650883436203,0.018629852682352066,-9.187152862548828
1745736489.2154124,-0.07703132182359695,-0.004047048278152943,0.033303119242191315,0.6383063793182373,-0.17145584523677826,-9.149450302124023
1745736489.2204115,-0.049331095069646835,-0.01304639596492052,0.03572364151477814,0.8732573390007019,0.4026051461696625,-10.383694648742676
1745736489.222928,-0.028679341077804565,-0.006106027401983738,0.03325334191322327,0.44265180826187134,0.16623741388320923,-10.960143089294434
1745736489.2268693,-0.042950648814439774,0.005245511420071125,0.03975474834442139,0.6340606808662415,-0.4583071172237396,-9.32655143737793
1745736489.2589793,-0.02715739607810974,0.0057051111944019794,0.05064612627029419,0.6777070164680481,-0.2028694897890091,-8.547224044799805
1745736489.261177,-0.0620010681450367,-0.007572897709906101,0.05877600982785225,0.9424773454666138,-0.3591763377189636,-10.224102973937988
1745736489.2650301,-0.030208244919776917,-6.919521547388285e-05,0.06508709490299225,0.8477379679679871,0.1013498455286026,-11.082977294921875
1745736489.2674809,-0.006469397339969873,0.027213361114263535,0.06895609200000763,0.5949269533157349,0.016379568725824356,-9.780097961425781
1745736489.2997217,-0.015195697546005249,-0.0006574285216629505,0.07249000668525696,0.4855007231235504,0.03322917968034744,-8.612041473388672
1745736489.3017387,0.015548226423561573,-0.0008773569134064019,0.07919823378324509,0.5453194379806519,-0.3229787349700928,-9.872343063354492
1745736489.304124,0.012595008127391338,0.02282578870654106,0.08751936256885529,0.3361501395702362,-0.44032567739486694,-10.973209381103516
1745736489.308757,0.01890401914715767,0.029284942895174026,0.09532619267702103,-0.018264643847942352,-0.5972915887832642,-9.617036819458008
1745736489.3091118,-0.014766491949558258,0.032672517001628876,0.10542994737625122,0.4476197361946106,-0.962519645690918,-8.325660705566406
1745736489.3441868,-0.0289611853659153,0.02436172589659691,0.11162875592708588,0.5649957656860352,-0.6194807291030884,-9.831792831420898
1745736489.346404,-0.06694834679365158,0.029870783910155296,0.11127471923828125,0.7337124347686768,-1.0933771133422852,-11.279764175415039
1745736489.3517003,-0.18297012150287628,0.021707909181714058,0.13225018978118896,0.630916178226471,-0.8833491206169128,-9.484212875366211
1745736489.3869138,-0.16694283485412598,0.047290727496147156,0.13987790048122406,0.5554696321487427,-0.4397026002407074,-10.89343547821045
1745736489.3912604,-0.17451618611812592,0.0587039478123188,0.1442042589187622,0.5007714629173279,-0.06402797251939774,-9.994229316711426
1745736489.3949125,-0.14341795444488525,0.040319062769412994,0.14743712544441223,0.32592254877090454,0.4363233149051666,-8.669940948486328
1745736489.3992002,-0.12295772135257721,0.04263001307845116,0.15228435397148132,0.6525741219520569,0.24566110968589783,-9.465265274047852
1745736489.4034102,-0.08346734941005707,0.04624909162521362,0.15365217626094818,0.579276442527771,0.5080233216285706,-10.81902027130127
1745736489.430593,-0.05449072644114494,0.055248867720365524,0.156177818775177,0.525407612323761,0.07533317804336548,-10.195384979248047
1745736489.4342113,-0.05041640251874924,0.04541095346212387,0.16493327915668488,0.5796905755996704,-0.21568576991558075,-8.843883514404297
1745736489.4384673,-0.04134020581841469,0.049188267439603806,0.17095382511615753,0.4656689763069153,-0.20993098616600037,-9.341634750366211
1745736489.4401042,-0.07683064043521881,0.04580698162317276,0.17674800753593445,0.7581221461296082,-0.5018669366836548,-10.482890129089355
1745736489.4800973,-0.056220389902591705,0.04885457828640938,0.1809457391500473,0.7458498477935791,-0.2940700650215149,-10.238266944885254
1745736489.480177,-0.07009871304035187,0.03991403058171272,0.17385134100914001,0.7651689648628235,0.05358060449361801,-9.30967903137207
1745736489.4806125,-0.0864037349820137,0.008281783200800419,0.1549103707075119,-0.459618479013443,0.26322120428085327,-9.995765686035156
1745736489.4807072,-0.07304972410202026,-0.039981257170438766,0.09805134683847427,0.49076491594314575,-0.36953556537628174,-9.303950309753418
1745736489.4807503,-0.11276228725910187,-0.060009319335222244,0.09924016147851944,0.5323926210403442,-0.291567325592041,-9.344913482666016
1745736489.5167546,-0.1010410338640213,-0.05550968647003174,0.10159919410943985,0.277078777551651,-0.11921852827072144,-10.344215393066406
1745736489.5212052,-0.11361895501613617,-0.0485653281211853,0.09995225071907043,0.13285362720489502,-0.1145072728395462,-10.248266220092773
1745736489.5239046,-0.08901800960302353,-0.0531349703669548,0.09926934540271759,-0.32552748918533325,0.30176985263824463,-9.172160148620605
1745736489.525816,-0.08213771134614944,-0.04830162599682808,0.10060185194015503,-0.2653552293777466,0.026263892650604248,-9.088797569274902
1745736489.558766,-0.07498916983604431,-0.049789704382419586,0.09862972795963287,-0.11473244428634644,0.3463759422302246,-9.971124649047852
1745736489.5612633,-0.048241954296827316,-0.038085680454969406,0.09480451047420502,0.12207560241222382,-0.05960316210985184,-10.327428817749023
1745736489.5628848,-0.07139303535223007,-0.04448629170656204,0.09446321427822113,0.363272100687027,-0.09494085609912872,-9.562162399291992
1745736489.5658493,-0.07164670526981354,-0.04612507298588753,0.09512685239315033,0.23895403742790222,-0.38662847876548767,-9.346823692321777
1745736489.5663304,-0.11941759288311005,-0.04528336971998215,0.09367997944355011,0.6178450584411621,-0.43321627378463745,-9.864084243774414
1745736489.6012595,-0.1270616054534912,-0.047491397708654404,0.09151209890842438,0.502151370048523,-0.19786572456359863,-10.327519416809082
1745736489.604038,-0.13283121585845947,-0.03877769410610199,0.09243278205394745,0.25620412826538086,0.13144509494304657,-9.902711868286133
1745736489.6040926,-0.13078731298446655,-0.0443311408162117,0.08549584448337555,0.3511107563972473,0.5494575500488281,-9.185373306274414
1745736489.606437,-0.0928478017449379,-0.04803464561700821,0.07929103076457977,0.27864646911621094,0.6876401305198669,-9.715238571166992
1745736489.6457229,-0.07750187814235687,-0.05052553489804268,0.07275266200304031,0.3007938265800476,0.8467384576797485,-10.413344383239746
1745736489.6478508,-0.006063987500965595,-0.033954985439777374,0.07022498548030853,0.017169971019029617,0.7494981288909912,-10.036845207214355
1745736489.6499364,-0.0005985990283079445,-0.03655093163251877,0.06653766334056854,0.2695282995700836,0.32806307077407837,-9.179662704467773
1745736489.6550634,0.02895999886095524,-0.04250296205282211,0.06975499540567398,0.3456410765647888,0.025870900601148605,-9.549790382385254
1745736489.6875005,0.011032037436962128,-0.03854672983288765,0.06877749413251877,0.5401816964149475,-0.16406527161598206,-10.400107383728027
1745736489.6896,0.0174009557813406,-0.03544076532125473,0.06516434252262115,0.33223989605903625,-0.2214740812778473,-10.26048755645752
1745736489.6937842,-0.015329184010624886,-0.02364518865942955,0.06087932735681534,0.37502986192703247,-0.4610922932624817,-9.292976379394531
1745736489.6941416,-0.06569132208824158,-0.04398643970489502,0.054921261966228485,0.5339753031730652,-0.47152772545814514,-9.421706199645996
1745736489.731117,-0.11028512567281723,-0.022673349827528,0.043623488396406174,0.265129029750824,0.06719090044498444,-9.348335266113281
1745736489.735531,-0.06418061256408691,-0.027753356844186783,0.04329933598637581,0.18302449584007263,0.43022990226745605,-10.307511329650879
1745736489.739071,-0.03782579302787781,-0.0037982731591910124,0.04576553776860237,0.12304584681987762,0.42349666357040405,-10.31688404083252
1745736489.74241,-0.01817885972559452,-0.01668413355946541,0.041864801198244095,0.11498656123876572,0.5455409288406372,-9.314265251159668
1745736489.7440486,0.012896361760795116,-0.01168607734143734,0.03811423107981682,0.22666673362255096,0.5723551511764526,-9.283397674560547
1745736489.7736819,0.008982296101748943,-0.012129769660532475,0.03025740385055542,0.3819766640663147,0.4006522297859192,-10.268096923828125
1745736489.7756996,0.03630935400724411,-0.005852945148944855,0.025387799367308617,0.3943128287792206,0.28468984365463257,-10.268400192260742
1745736489.7776008,0.005419437307864428,-0.003485285211354494,0.02147202007472515,0.5433974266052246,-0.19326433539390564,-9.568252563476562
1745736489.7788541,0.003418783890083432,-0.014242289587855339,0.021421357989311218,0.3706527650356293,-0.23002251982688904,-9.499653816223145
1745736489.8155518,-0.022150447592139244,-0.0048467256128787994,0.022704707458615303,0.5042171478271484,-0.2828350067138672,-10.06848430633545
1745736489.8173957,-0.027714475989341736,-0.007527919951826334,0.020837699994444847,0.2992355227470398,-0.008324647322297096,-10.299288749694824
1745736489.8188088,-0.013714184053242207,5.124206654727459e-05,0.01809481345117092,0.19574889540672302,0.03021380305290222,-9.632204055786133
1745736489.8218033,-0.026715274900197983,-0.004718265030533075,0.015769941732287407,0.12188716977834702,0.26142972707748413,-9.284587860107422
1745736489.8240047,-0.10976365953683853,0.023023903369903564,0.10102585703134537,0.8668401837348938,0.4637056291103363,-9.120369911193848
1745736489.8613534,-0.10897721350193024,0.01983240805566311,0.10063332319259644,0.8715108036994934,0.3212738633155823,-11.03176498413086
1745736489.8644917,-0.03727827966213226,0.0518832728266716,0.10361961275339127,0.4673946499824524,1.1961724758148193,-10.437332153320312
1745736489.866707,-0.024852098897099495,0.04224565625190735,0.10947474092245102,0.2550317943096161,0.9613074064254761,-8.537805557250977
1745736489.8679116,0.02951970137655735,0.015510452911257744,0.11332307010889053,0.5101073384284973,1.0955522060394287,-8.740309715270996
1745736489.9047623,0.09098757803440094,0.05055456608533859,0.11783333867788315,0.5271065831184387,0.8802026510238647,-10.888200759887695
1745736489.9067636,0.13586945831775665,0.04991438239812851,0.12506283819675446,0.6991240978240967,0.701346755027771,-10.707206726074219
1745736489.9088993,0.14935621619224548,0.042124152183532715,0.12926547229290009,0.645865797996521,0.24717430770397186,-8.756800651550293
1745736489.9114714,0.13961000740528107,0.03933865576982498,0.13518507778644562,0.7905091047286987,-0.647550642490387,-9.037862777709961
1745736489.9129367,0.10333453118801117,0.04295341297984123,0.14670529961585999,0.532866895198822,-0.3984270691871643,-10.677813529968262
1745736489.9468305,0.06842190027236938,0.05132097005844116,0.15681518614292145,0.5754794478416443,-1.388013243675232,-10.355524063110352
1745736489.950033,0.06247863918542862,0.04568669945001602,0.1534828394651413,0.3716983199119568,0.2224917858839035,-8.601446151733398
1745736489.9537516,-0.03787393122911453,0.013837156817317009,0.13771258294582367,-0.34119319915771484,-0.4684670865535736,-9.736211776733398
1745736489.9578416,-0.029245611280202866,0.018059641122817993,0.12487761676311493,-0.6317367553710938,-0.2043425291776657,-10.40388298034668
1745736489.990876,-0.02777186594903469,0.03806806728243828,0.12543809413909912,-1.069324254989624,-0.18516211211681366,-9.9067964553833
1745736489.9909406,-0.07327402383089066,0.006210279650986195,0.1294451206922531,-1.4064868688583374,-0.5733824968338013,-9.153379440307617
1745736489.9944956,-0.06544803082942963,0.021834198385477066,0.15105032920837402,-1.2100714445114136,-1.2051060199737549,-8.939903259277344
1745736489.9967248,-0.06222354620695114,0.05341660976409912,0.17206250131130219,-0.07710075378417969,-0.5866901278495789,-9.729959487915039
1745736490.0301685,-0.09801629930734634,0.0007244549924507737,0.17275086045265198,0.2560500502586365,0.024119902402162552,-10.232348442077637
1745736490.0339425,-0.05999327450990677,0.007791227661073208,0.16936452686786652,0.8246576189994812,-0.38843852281570435,-10.256415367126465
1745736490.0370429,-0.08501807600259781,-0.004439068026840687,0.16576938331127167,0.06296317279338837,0.5171670317649841,-9.886887550354004
1745736490.0438612,-0.12185279279947281,-0.024019263684749603,0.1622861921787262,-0.041121937334537506,-0.6704243421554565,-9.923211097717285
1745736490.0439305,-0.12156353145837784,-0.01655498519539833,0.16952380537986755,-0.10525351762771606,-0.08812921494245529,-9.326738357543945
1745736490.0768726,-0.11969877779483795,-0.027004605159163475,0.16713735461235046,-0.4750378727912903,1.3573311567306519,-9.521066665649414
1745736490.0803604,-0.04490698128938675,-0.03818594664335251,0.15798473358154297,-0.03969747945666313,1.3771666288375854,-9.654366493225098
1745736490.0816743,-0.016596700996160507,-0.06036164611577988,0.16281816363334656,0.11779870837926865,0.7349370718002319,-10.152509689331055
1745736490.0840847,0.04819301888346672,-0.04526013880968094,0.17092442512512207,-0.38428443670272827,-0.04639047384262085,-10.39445972442627
1745736490.119651,0.04942726343870163,-0.0409683994948864,0.18775507807731628,-0.4067200720310211,-0.015319952741265297,-9.165534973144531
1745736490.1227586,0.054464928805828094,-0.04620879143476486,0.19926361739635468,-0.30245232582092285,-0.5103439092636108,-8.705682754516602
1745736490.1330457,0.0247671939432621,-0.04281915724277496,0.19815780222415924,0.21875767409801483,0.04209542274475098,-9.848150253295898
1745736490.1378114,0.0023774183355271816,-0.0560651533305645,0.18489041924476624,0.05486807972192764,-0.32879239320755005,-10.837394714355469
1745736490.1623757,-0.03451395779848099,-0.046251047402620316,0.17971810698509216,0.09766639769077301,-0.5370678901672363,-9.79455280303955
1745736490.1645086,-0.09491990506649017,-0.06272538751363754,0.17801132798194885,-0.23858532309532166,-0.770764946937561,-9.136056900024414
1745736490.1660986,-0.13725842535495758,-0.06739825755357742,0.18236689269542694,-0.23807251453399658,-1.0154707431793213,-9.622639656066895
1745736490.1675448,-0.1990087926387787,-0.053157322108745575,0.19044432044029236,-0.14692221581935883,-0.4869229793548584,-10.128846168518066
1745736490.1691275,-0.14356298744678497,-0.05063570663332939,0.19708597660064697,-0.15488439798355103,0.4077457785606384,-9.705337524414062
1745736490.2068665,-0.001441249274648726,0.06551708281040192,-0.032044876366853714,0.3363479673862457,0.018958020955324173,-12.013355255126953
1745736490.2091224,0.14497220516204834,0.0806359201669693,-0.028062883764505386,0.7293777465820312,-0.1249629408121109,-12.072224617004395
1745736490.2119,0.10384972393512726,0.1082150787115097,-0.03800784423947334,0.8663150668144226,1.214626431465149,-7.366211891174316
1745736490.2152095,0.1213926300406456,0.03599545732140541,-0.04564235359430313,1.1855931282043457,0.006417340133339167,-8.27267837524414
1745736490.2477872,0.1650492250919342,0.0508321151137352,-0.056130629032850266,1.2084729671478271,0.7209040522575378,-11.90900993347168
1745736490.2514386,0.13316300511360168,0.08808425813913345,-0.06419003754854202,0.14816592633724213,-0.47018593549728394,-12.312599182128906
1745736490.2524304,0.16382849216461182,0.08571867644786835,-0.06222035363316536,0.28714102506637573,-0.4355989396572113,-7.3559889793396
1745736490.2566833,0.06790776550769806,0.0745009034872055,-0.06442587822675705,-0.07925242185592651,0.015792107209563255,-7.107682228088379
1745736490.2924633,0.11914770305156708,0.069795623421669,-0.07350330054759979,0.5502258539199829,0.21551494300365448,-11.035001754760742
1745736490.293955,0.08979947119951248,0.10750945657491684,-0.09140577167272568,0.7867356538772583,0.48574143648147583,-12.138524055480957
1745736490.3030617,0.15180228650569916,0.0944170206785202,-0.10115575790405273,0.7688174843788147,0.035222720354795456,-9.001106262207031
1745736490.3031332,0.09720635414123535,0.07569606602191925,-0.10287182033061981,0.841545581817627,-0.2091466635465622,-7.878149509429932
1745736490.3031883,0.11647401750087738,0.08123358339071274,-0.0942843109369278,0.35920649766921997,-0.3507560193538666,-10.598278999328613
1745736490.3362935,0.14072594046592712,0.11314857006072998,-0.09284812211990356,0.8034698367118835,-0.07481115311384201,-10.964662551879883
1745736490.3415358,0.1281602680683136,0.1122596487402916,-0.09281347692012787,0.43006905913352966,0.13176381587982178,-9.116289138793945
1745736490.345074,0.16353929042816162,0.08881350606679916,-0.09765125811100006,0.6478703618049622,0.4354020059108734,-8.293423652648926
1745736490.3491912,0.15177038311958313,0.09103721380233765,-0.11067526042461395,0.5116541981697083,0.6431484222412109,-10.306268692016602
1745736490.3774529,0.18545310199260712,0.10573486983776093,-0.12589028477668762,0.560317873954773,0.08962970227003098,-11.291142463684082
1745736490.3818796,0.1666843295097351,0.10162924230098724,-0.13388262689113617,0.8623231053352356,-0.21410417556762695,-9.492122650146484
1745736490.3870244,0.16587534546852112,0.08457077294588089,-0.1281585395336151,0.4888554513454437,-0.32353338599205017,-8.541611671447754
1745736490.3908017,0.132786825299263,0.09315875917673111,-0.12678135931491852,0.722144603729248,-0.6324548125267029,-9.627683639526367
1745736490.4203215,0.15672867000102997,0.09456582367420197,-0.12473098933696747,0.8089650273323059,-0.14958669245243073,-10.620497703552246
1745736490.422557,0.1512363702058792,0.09714959561824799,-0.12885165214538574,1.01590895652771,-0.26533547043800354,-9.962852478027344
1745736490.4254754,0.14287212491035461,0.08007041364908218,-0.13345511257648468,0.6221712231636047,0.015216869302093983,-9.205039978027344
1745736490.4292397,0.16987919807434082,0.08154445886611938,-0.14039812982082367,0.3774881958961487,0.11964736133813858,-9.584012985229492
1745736490.4302468,0.1462775319814682,0.0861191675066948,-0.14820842444896698,0.5844279527664185,-0.17600113153457642,-10.093216896057129
1745736490.4639432,0.16731803119182587,0.08581477403640747,-0.15371637046337128,0.4917888045310974,-0.030810529366135597,-9.78049087524414
1745736490.4675236,0.14595159888267517,0.07767815887928009,-0.15624013543128967,0.7322859168052673,-0.44331246614456177,-9.281682014465332
1745736490.4678345,0.14731594920158386,0.0729285329580307,-0.15728092193603516,0.6064435839653015,-0.25305432081222534,-9.492067337036133
1745736490.470148,0.13060294091701508,0.08144976198673248,-0.15950915217399597,0.9956022500991821,-0.545691192150116,-10.01524543762207
1745736490.50701,0.13299870491027832,0.06696020066738129,-0.16001184284687042,0.9595991969108582,-0.23566575348377228,-9.990192413330078
1745736490.5113304,0.13496653735637665,0.07625419646501541,-0.16212287545204163,0.6702439785003662,-0.12977853417396545,-9.581347465515137
1745736490.5159726,0.12395267188549042,0.06609749794006348,-0.16635945439338684,0.6109851002693176,-0.10624758154153824,-9.326992988586426
1745736490.520775,0.1603473424911499,0.06711183488368988,-0.17075768113136292,0.4765905439853668,0.16780637204647064,-9.49757194519043
1745736490.5234272,0.13805200159549713,0.06587505340576172,-0.1791079342365265,0.7086828947067261,-0.07427375018596649,-10.000261306762695
1745736490.5486996,0.18217110633850098,0.06089087575674057,-0.18242177367210388,0.5067592859268188,0.137639120221138,-9.85598373413086
1745736490.55246,0.11510618031024933,-0.04118608683347702,-0.258831262588501,0.7166434526443481,-0.6945991516113281,-10.050210952758789
1745736490.5565114,0.13832935690879822,-0.03620486706495285,-0.25950270891189575,0.6115405559539795,-0.5130342841148376,-9.977682113647461
1745736490.5599334,0.09574059396982193,-0.038276661187410355,-0.26082643866539,0.7733933925628662,-0.856595516204834,-9.62091064453125
1745736490.5924368,0.12060634791851044,-0.05138862878084183,-0.2599678933620453,0.7007314562797546,-0.5866736173629761,-9.492973327636719
1745736490.594477,0.09484769403934479,-0.04147310554981232,-0.2623268663883209,0.7133576273918152,-0.7451971769332886,-9.970548629760742
1745736490.5971751,0.09886834770441055,-0.04930261895060539,-0.2612583041191101,0.6929720640182495,-0.6345256567001343,-10.023637771606445
1745736490.604971,0.11061656475067139,-0.04457857459783554,-0.26431959867477417,0.5861474275588989,-0.4409615993499756,-9.655759811401367
1745736490.6402085,0.09160088747739792,-0.054744113236665726,-0.264584481716156,0.7047098278999329,-0.6176172494888306,-9.590715408325195
1745736490.644769,0.12005801498889923,-0.05074967071413994,-0.26572132110595703,0.5285810828208923,-0.380659282207489,-9.870890617370605
1745736490.6490245,0.09992413222789764,-0.04989543929696083,-0.26992446184158325,0.6824786067008972,-0.6759043335914612,-10.013420104980469
1745736490.6541803,0.11877115070819855,-0.054732345044612885,-0.2693578600883484,0.5595853328704834,-0.47358807921409607,-9.708883285522461
1745736490.6794174,0.09816326200962067,-0.053841788321733475,-0.27259543538093567,0.6922026872634888,-0.8048280477523804,-9.622038841247559
1745736490.6794932,0.10270512104034424,-0.06424910575151443,-0.27070164680480957,0.6763082146644592,-0.6716643571853638,-9.828231811523438
1745736490.6818712,0.10574199259281158,-0.04736318811774254,-0.2704002261161804,0.5748486518859863,-0.7092376947402954,-9.932095527648926
1745736490.682688,0.0818682461977005,-0.05766235664486885,-0.2723866403102875,0.7431690096855164,-0.769805908203125,-9.753108978271484
1745736490.6848314,0.10992948710918427,-0.05157351493835449,-0.2721227705478668,0.5442900061607361,-0.5082532167434692,-9.588483810424805
1745736490.721235,0.07219650596380234,-0.055118996649980545,-0.27625852823257446,0.6499918103218079,-0.689513623714447,-9.803132057189941
1745736490.723367,0.10886414349079132,-0.05595121532678604,-0.27864259481430054,0.46450144052505493,-0.42668381333351135,-9.972981452941895
1745736490.7247438,0.08454097807407379,-0.04966992884874344,-0.2784499526023865,0.61552894115448,-0.7928798794746399,-9.83421516418457
1745736490.7260444,0.09628716111183167,-0.06253420561552048,-0.28067266941070557,0.5845910310745239,-0.6001203060150146,-9.627501487731934
1745736490.7634819,0.0902746170759201,-0.0500766858458519,-0.27961668372154236,0.5766688585281372,-0.8719751238822937,-9.838833808898926
1745736490.7657022,0.08418305963277817,-0.05783078074455261,-0.27766069769859314,0.6835715174674988,-0.7206345796585083,-9.893302917480469
1745736490.767671,0.09974388033151627,-0.050578873604536057,-0.27811580896377563,0.6081169843673706,-0.6266907453536987,-9.781928062438965
1745736490.7703123,0.10787900537252426,-0.058042049407958984,-0.28072214126586914,0.5275880694389343,-0.5565969347953796,-9.821123123168945
1745736490.8068535,0.07439760863780975,-0.052771665155887604,-0.28689202666282654,0.565174400806427,-0.7289305925369263,-9.87951946258545
1745736490.8098092,0.0956781879067421,-0.05652426555752754,-0.2859952449798584,0.4995758533477783,-0.6199768781661987,-9.750886917114258
1745736490.8128035,0.08472899347543716,-0.049956273287534714,-0.28858861327171326,0.5770291686058044,-0.7401261925697327,-9.70353889465332
1745736490.818604,0.0732407420873642,-0.05990435555577278,-0.286574125289917,0.6235361695289612,-0.7398115992546082,-9.862922668457031
1745736490.8227737,0.09059107303619385,-0.0449070930480957,-0.2858767509460449,0.5455162525177002,-0.775168240070343,-9.910378456115723
1745736490.8537054,0.0663994699716568,-0.056290704756975174,-0.2881994843482971,0.6679437160491943,-0.8043683171272278,-9.801618576049805
1745736490.8560834,0.08856086432933807,-0.05364128202199936,-0.2857441306114197,0.5236209630966187,-0.723555862903595,-9.809471130371094
1745736490.8574896,0.06035038083791733,-0.05069602280855179,-0.2861798405647278,0.6115010976791382,-0.8075672388076782,-9.838274002075195
1745736490.8590062,0.08812117576599121,-0.053965013474226,-0.2877572774887085,0.4444957673549652,-0.5983443260192871,-9.771866798400879
1745736490.8951447,0.0754622295498848,-0.04023553058505058,-0.28977370262145996,0.5046488046646118,-0.7067695260047913,-9.625926971435547
1745736490.8977058,0.06873573362827301,-0.05230214446783066,-0.2903470993041992,0.5506219863891602,-0.6587370038032532,-9.733499526977539
1745736490.8998437,0.08900626748800278,-0.04414275288581848,-0.29316583275794983,0.5137204527854919,-0.7422102689743042,-9.9202241897583
1745736490.9031365,0.055287569761276245,-0.017107650637626648,-0.3017248213291168,0.48553866147994995,-0.7551497220993042,-9.829424858093262
1745736490.9360995,0.049275953322649,-0.009950832463800907,-0.3037550747394562,0.5584406852722168,-0.8057587742805481,-9.786430358886719
1745736490.9389083,0.045742470771074295,-0.019754230976104736,-0.3037843406200409,0.4729437232017517,-0.7894283533096313,-9.781329154968262
1745736490.9405982,0.048954423516988754,-0.010466093197464943,-0.301649808883667,0.5138446688652039,-1.0143663883209229,-9.729872703552246
1745736490.943362,0.02431134693324566,-0.01620367169380188,-0.3020050525665283,0.5940935611724854,-0.8639997243881226,-9.699688911437988
1745736490.9458992,0.04931893199682236,-0.010455599054694176,-0.30234843492507935,0.4630081057548523,-0.9085758924484253,-9.754663467407227
1745736490.9804575,0.02353411354124546,-0.01083572767674923,-0.3016018271446228,0.5716509819030762,-0.7501996755599976,-9.602985382080078
1745736490.9821205,0.04050230607390404,-0.011458909139037132,-0.302671879529953,0.4665312170982361,-0.7678412795066833,-9.720093727111816
1745736490.9835413,0.03886079043149948,-0.007673296146094799,-0.3043746054172516,0.6000446081161499,-0.7728551030158997,-9.794590950012207
1745736490.9851003,0.035137806087732315,-0.014410778880119324,-0.3060176372528076,0.46218767762184143,-0.6435786485671997,-9.865869522094727
1745736491.0209553,0.05321865528821945,-0.006307217292487621,-0.30593425035476685,0.46908798813819885,-0.9049547910690308,-9.729387283325195
1745736491.022581,0.0332636684179306,-0.014029568061232567,-0.30548638105392456,0.5294483304023743,-0.811349093914032,-9.56784725189209
1745736491.023809,0.04911475628614426,-0.008193567395210266,-0.3015673756599426,0.5192948579788208,-0.965776801109314,-9.706853866577148
1745736491.026885,0.02428942546248436,-0.00957152433693409,-0.30385875701904297,0.6255469918251038,-0.9029653668403625,-9.814637184143066
1745736491.0351362,0.04161088541150093,-0.010194879956543446,-0.3012942373752594,0.44753265380859375,-0.8313077092170715,-9.771891593933105
1745736491.0657783,0.0270241592079401,-0.0048451414331793785,-0.30631953477859497,0.6147650480270386,-0.8668171763420105,-9.516504287719727
1745736491.0694299,0.023581111803650856,-0.015003534965217113,-0.30449992418289185,0.47229236364364624,-0.7367473840713501,-9.787862777709961
1745736491.0730975,0.038363728672266006,-0.006789038889110088,-0.30524083971977234,0.5539983510971069,-0.9906511306762695,-9.931467056274414
1745736491.0778952,0.01844734698534012,-0.012026466429233551,-0.3036919832229614,0.4394954741001129,-0.6647006273269653,-9.689310073852539
1745736491.1096776,0.03586748614907265,-0.00336797465570271,-0.30292969942092896,0.3560149669647217,-0.9950233697891235,-9.534993171691895
1745736491.1132858,0.021558141335844994,-0.008853087201714516,-0.30580073595046997,0.5466135740280151,-0.6128019094467163,-9.476511001586914
1745736491.116719,0.034132033586502075,-0.005695870146155357,-0.30507975816726685,0.5045774579048157,-0.836287796497345,-9.958882331848145
1745736491.1204598,0.030416453257203102,-0.005811682902276516,-0.30412405729293823,0.6272594928741455,-0.8140736818313599,-9.901865005493164
1745736491.1508374,0.016165245324373245,-0.01413681823760271,-0.3041921854019165,0.5028695464134216,-0.7560508251190186,-9.761087417602539
1745736491.1553154,0.030234206467866898,-0.005746826529502869,-0.30458536744117737,0.5035043954849243,-1.046708345413208,-9.828274726867676
1745736491.1575155,0.011734811589121819,-0.00987012218683958,-0.3047972023487091,0.5286839008331299,-0.645185649394989,-9.489490509033203
1745736491.158754,0.022814741358160973,-0.00986112654209137,-0.30777624249458313,0.45827585458755493,-0.8560640215873718,-9.681596755981445
1745736491.1610775,0.02243764139711857,-0.011063270270824432,-0.3058602809906006,0.6103559732437134,-0.7209552526473999,-9.82479190826416
1745736491.1946235,0.024928871542215347,-0.013577965088188648,-0.3072344660758972,0.4245656430721283,-0.7059473991394043,-9.926097869873047
1745736491.1966286,0.03260774165391922,-0.007987079210579395,-0.30768823623657227,0.5653206706047058,-0.991929829120636,-9.659284591674805
1745736491.1999984,0.02145955339074135,-0.01850789599120617,-0.30584341287612915,0.4786294996738434,-0.7714838981628418,-9.513150215148926
1745736491.2013338,0.030141185969114304,-0.011023635044693947,-0.3016352951526642,0.5455961227416992,-1.067083716392517,-9.758077621459961
1745736491.2377408,0.01190366130322218,-0.014665400609374046,-0.30517110228538513,0.5855387449264526,-0.8227033615112305,-9.802058219909668
1745736491.2412474,0.02450767159461975,-0.010502301156520844,-0.30313676595687866,0.43948331475257874,-0.9157294034957886,-9.73993968963623
1745736491.2454116,0.013841098174452782,-0.0131883155554533,-0.3051072359085083,0.6354290246963501,-0.7040964365005493,-9.48751163482666
1745736491.2486048,0.011766712181270123,-0.014092942699790001,-0.30758023262023926,0.4271520674228668,-0.7484868764877319,-9.843507766723633
1745736491.2808447,0.006558152846992016,-0.030815759673714638,-0.30175185203552246,0.5076648592948914,-0.676475465297699,-9.594586372375488
1745736491.2816672,0.0006301667308434844,-0.02198554016649723,-0.3007190227508545,0.39637377858161926,-0.9590074419975281,-9.916719436645508
1745736491.283139,-0.0008633077377453446,-0.02396991290152073,-0.29745426774024963,0.5615991353988647,-0.8816913366317749,-9.869811058044434
1745736491.2852285,0.008938982151448727,-0.023707572370767593,-0.2957195043563843,0.3437058627605438,-0.7868223786354065,-9.694520950317383
1745736491.2863176,-0.00017081880650948733,-0.024478545412421227,-0.29338592290878296,0.5944105982780457,-0.930468738079071,-9.603134155273438
1745736491.3242948,0.00587861705571413,-0.027225127443671227,-0.2948605716228485,0.42532363533973694,-0.6243043541908264,-9.83173942565918
1745736491.3284214,0.005168912932276726,-0.020221242681145668,-0.29765552282333374,0.5273720026016235,-1.0033762454986572,-9.878923416137695
1745736491.3317041,0.009031696245074272,-0.026604313403367996,-0.2969948351383209,0.5310674905776978,-0.5880695581436157,-9.55579662322998
1745736491.3358774,-0.0002712180430535227,-0.02143455483019352,-0.297667920589447,0.41946983337402344,-1.0261316299438477,-9.712552070617676
1745736491.365077,-0.0016708867624402046,-0.027866041287779808,-0.29444536566734314,0.5986050963401794,-0.9017235636711121,-9.855341911315918
1745736491.3683474,0.003758432809263468,-0.02173556759953499,-0.29434734582901,0.4012022018432617,-0.8210374712944031,-9.923701286315918
1745736491.3697782,-0.007559785153716803,-0.022577721625566483,-0.296232134103775,0.5345767736434937,-0.9465845227241516,-9.665013313293457
1745736491.37144,0.009586024098098278,-0.025030244141817093,-0.2966781258583069,0.390984445810318,-0.49903517961502075,-9.490032196044922
1745736491.3730385,-0.003323376877233386,-0.021160338073968887,-0.2959335148334503,0.5930089950561523,-1.0048854351043701,-9.832198143005371
1745736491.4108539,0.007223577704280615,-0.025713494047522545,-0.2960805892944336,0.4603192210197449,-0.590798020362854,-9.916784286499023
1745736491.4129612,0.006439796648919582,-0.02034098468720913,-0.2959922254085541,0.39974457025527954,-1.0965745449066162,-9.828596115112305
1745736491.416218,-0.003783633466809988,-0.02390817552804947,-0.2950589954853058,0.45075544714927673,-0.724622368812561,-9.524823188781738
1745736491.4189415,-0.0014126165769994259,-0.021187687292695045,-0.29381799697875977,0.3931512236595154,-0.8333754539489746,-9.771544456481934
1745736491.452336,-0.006348207592964172,-0.026506582275032997,-0.294142484664917,0.6537572741508484,-0.9537585377693176,-9.920879364013672
1745736491.4551508,0.00995637010782957,-0.0212343018501997,-0.29395002126693726,0.38472700119018555,-0.5283387303352356,-9.744489669799805
1745736491.4571185,-0.011018757708370686,-0.019030708819627762,-0.2955111861228943,0.6248481869697571,-1.0996971130371094,-9.623995780944824
1745736491.4585872,0.0081397769972682,-0.024821581318974495,-0.29606789350509644,0.4350460171699524,-0.6043614149093628,-9.604817390441895
1745736491.4603837,-0.002599532250314951,-0.018550992012023926,-0.2936221957206726,0.428286075592041,-0.9301995038986206,-9.94143009185791
1745736491.4979477,-0.0003487000649329275,-0.02364043891429901,-0.29473721981048584,0.5871151089668274,-0.8015300035476685,-9.568387031555176
1745736491.5001993,0.007530333008617163,-0.02215440571308136,-0.29556262493133545,0.4091760516166687,-0.7560518980026245,-9.86227798461914
1745736491.503325,-0.0022250886540859938,-0.016621317714452744,-0.2963990271091461,0.5863713026046753,-1.0465295314788818,-9.897392272949219
1745736491.540037,0.0077906204387545586,-0.02114691212773323,-0.29745087027549744,0.4664207994937897,-0.6123656034469604,-9.58603286743164
1745736491.5428736,-0.01356864906847477,-0.013678809627890587,-0.29485660791397095,0.4782335162162781,-1.049184799194336,-9.630600929260254
1745736491.5460517,-0.00039182239561341703,-0.023613715544342995,-0.29381847381591797,0.5214874148368835,-0.7035092115402222,-9.820322036743164
1745736491.5509114,0.0012412045616656542,-0.014661592431366444,-0.29372745752334595,0.40227633714675903,-0.8221642374992371,-10.002280235290527
1745736491.5802455,-0.004971364978700876,-0.019287439063191414,-0.2955417037010193,0.5192402601242065,-0.8142135739326477,-9.719791412353516
1745736491.5879495,0.014810520224273205,-0.017684249207377434,-0.29457563161849976,0.3555299937725067,-0.5478383302688599,-9.522756576538086
1745736491.588093,-0.004857586231082678,-0.019534382969141006,-0.2973018288612366,0.5601159334182739,-1.001367211341858,-9.737215042114258
1745736491.5881624,0.014036750420928001,-0.01890200935304165,-0.2930313050746918,0.4020240902900696,-0.6015397310256958,-9.846227645874023
1745736491.5882127,-0.0022282027639448643,-0.014085491187870502,-0.2935180962085724,0.519807755947113,-1.1164745092391968,-9.859479904174805
1745736491.6260986,-0.001590898958966136,-0.010800923220813274,-0.29480981826782227,0.5124652981758118,-0.8716791272163391,-9.616554260253906
1745736491.6286788,0.01910417713224888,-0.017032817006111145,-0.2946421504020691,0.45139479637145996,-0.7385574579238892,-9.678009986877441
1745736491.6297042,0.006628724746406078,-0.013245156034827232,-0.2964564859867096,0.5299174189567566,-0.8683886528015137,-9.936136245727539
1745736491.6324859,0.008949732407927513,-0.01899467036128044,-0.295387327671051,0.4278029501438141,-0.6934388279914856,-9.878301620483398
1745736491.6701062,0.020998185500502586,-0.008813174441456795,-0.2962343692779541,0.4547305703163147,-0.873233437538147,-9.605242729187012
1745736491.6738055,0.001482536899857223,-0.023587804287672043,-0.29500430822372437,0.48964089155197144,-0.8268564343452454,-9.592521667480469
1745736491.6776714,0.023064397275447845,-0.014509523287415504,-0.2942427098751068,0.4505002498626709,-0.7805430293083191,-9.840028762817383
1745736491.6809213,-0.0015179794281721115,-0.018684107810258865,-0.2953943610191345,0.5805780291557312,-0.875052273273468,-9.88117790222168
1745736491.7099586,0.02340785227715969,-0.018138891085982323,-0.294027179479599,0.3369615077972412,-0.6803375482559204,-9.636497497558594
1745736491.7128892,0.0020634490065276623,-0.014426139183342457,-0.29481029510498047,0.520431637763977,-0.8760267496109009,-9.557670593261719
1745736491.7139323,0.006317624356597662,-0.023144502192735672,-0.2942432463169098,0.41741877794265747,-0.7065626978874207,-9.88364315032959
1745736491.716252,0.01718459278345108,-0.01541035808622837,-0.2944434881210327,0.4990231394767761,-0.9398950338363647,-9.919085502624512
1745736491.7189481,0.001547977328300476,-0.02274729683995247,-0.29527026414871216,0.4325243830680847,-0.6516907811164856,-9.602210998535156
1745736491.756837,0.02145218476653099,-0.014726312831044197,-0.2955619990825653,0.37821516394615173,-0.905896008014679,-9.549184799194336
1745736491.758106,0.0017219223082065582,-0.019016562029719353,-0.2944415509700775,0.5205169916152954,-0.7030314207077026,-9.663171768188477
1745736491.7614703,0.019237082451581955,-0.016722887754440308,-0.2945064604282379,0.45461732149124146,-0.7779074907302856,-9.948809623718262
1745736491.764364,0.008614754304289818,-0.01563945785164833,-0.29335716366767883,0.5467726588249207,-0.8586486577987671,-9.757404327392578
1745736491.7985554,0.015194189734756947,-0.02435458078980446,-0.2926180064678192,0.3831675052642822,-0.7431303262710571,-9.666047096252441
1745736491.800973,0.012613566592335701,-0.017051998525857925,-0.293529748916626,0.4637349247932434,-0.937365710735321,-9.778144836425781
1745736491.809721,0.0046828025951981544,-0.020504605025053024,-0.2921522557735443,0.4593842625617981,-0.6106033325195312,-9.779768943786621
1745736491.8199685,0.02960268221795559,-0.01676858402788639,-0.29244911670684814,0.4513738751411438,-0.8840299844741821,-9.703059196472168
1745736491.8389478,0.005632613319903612,-0.020329724997282028,-0.2949538230895996,0.5068364143371582,-0.6126039028167725,-9.51585578918457
1745736491.8418307,0.02296961471438408,-0.01947018876671791,-0.2938009798526764,0.42652520537376404,-0.8005931973457336,-9.820993423461914
1745736491.843805,0.02278805524110794,-0.016335368156433105,-0.29174596071243286,0.5365402698516846,-1.0009686946868896,-9.727490425109863
1745736491.845932,0.01152068842202425,-0.025301456451416016,-0.2937663197517395,0.4360925257205963,-0.6467791795730591,-9.749521255493164
1745736491.8483503,0.02719460055232048,-0.01818837597966194,-0.2929161787033081,0.48876842856407166,-0.8922568559646606,-9.755345344543457
1745736491.8857622,0.003288565669208765,-0.02349385991692543,-0.291820764541626,0.5175431370735168,-0.7569719552993774,-9.65411376953125
1745736491.8858914,0.023318683728575706,-0.019058937206864357,-0.2916981875896454,0.4054137170314789,-0.8891792297363281,-9.71379280090332
1745736491.887315,0.003668463323265314,-0.023078640922904015,-0.2926441729068756,0.5912076830863953,-0.7972304821014404,-9.735937118530273
1745736491.8886192,0.009821569547057152,-0.02141064777970314,-0.2906908392906189,0.3350347578525543,-0.7649497985839844,-9.914083480834961
1745736491.9246886,0.013937127776443958,-0.01717495359480381,-0.29088181257247925,0.5103881359100342,-0.9308091998100281,-9.71818733215332
1745736491.9270148,0.007372543215751648,-0.025456111878156662,-0.2908102869987488,0.38440024852752686,-0.5597772598266602,-9.586381912231445
1745736491.9282022,0.023317500948905945,-0.018042799085378647,-0.2924395501613617,0.4477235674858093,-0.9409229159355164,-9.789725303649902
1745736491.9307194,0.01536121778190136,-0.023010864853858948,-0.2921064794063568,0.49669116735458374,-0.48519906401634216,-9.750899314880371
1745736491.9319887,0.02890867553651333,-0.017775189131498337,-0.29158154129981995,0.444841206073761,-0.888351559638977,-9.776086807250977
1745736491.9701483,0.008854086510837078,-0.021399524062871933,-0.2925805449485779,0.5134018063545227,-0.7938306927680969,-9.631950378417969
1745736491.971168,0.01024323608726263,-0.023798184469342232,-0.29003092646598816,0.4592805802822113,-0.5542975664138794,-9.773435592651367
1745736491.9738405,0.0032680456060916185,-0.012960595078766346,-0.2926848530769348,0.3392334282398224,-0.9124760627746582,-9.792959213256836
1745736491.9751358,0.004514506086707115,-0.021151550114154816,-0.2917550802230835,0.5109167098999023,-0.7036999464035034,-9.583233833312988
1745736492.0130684,0.016982724890112877,-0.02001478709280491,-0.2929660677909851,0.32895368337631226,-0.6715068817138672,-9.782232284545898
1745736492.0163283,0.008940248750150204,-0.017881322652101517,-0.29221829771995544,0.5564138889312744,-0.8667348623275757,-9.936395645141602
1745736492.0212603,0.030479559674859047,-0.0182415209710598,-0.2909417450428009,0.36035650968551636,-0.5028496384620667,-9.765509605407715
1745736492.025709,0.02159205451607704,-0.015012657269835472,-0.2915808856487274,0.4931419789791107,-0.995516300201416,-9.592084884643555
1745736492.0563889,0.026119977235794067,-0.021339235827326775,-0.2881332337856293,0.43781399726867676,-0.5770097374916077,-9.556264877319336
1745736492.0591826,0.026979222893714905,-0.013749679550528526,-0.28890112042427063,0.46109724044799805,-0.9680431485176086,-9.95033073425293
1745736492.061625,0.02040930464863777,-0.02002963423728943,-0.28999754786491394,0.5036433339118958,-0.6810308694839478,-9.831530570983887
1745736492.0630784,0.026584520936012268,-0.014556646347045898,-0.29032355546951294,0.35362905263900757,-0.7736476063728333,-9.728367805480957
1745736492.100326,0.013575541786849499,-0.019166339188814163,-0.2900768518447876,0.49639439582824707,-0.929973304271698,-9.672712326049805
1745736492.105067,0.029507402330636978,-0.018446406349539757,-0.29191815853118896,0.36098188161849976,-0.6145572066307068,-9.73906421661377
1745736492.1147404,0.010172816924750805,-0.016568243503570557,-0.29360097646713257,0.5658674240112305,-0.9653505086898804,-9.8694486618042
1745736492.1148276,0.02610158920288086,-0.017588136717677116,-0.29204490780830383,0.41468268632888794,-0.617586076259613,-9.65993881225586
1745736492.1148663,0.0210274551063776,-0.014555910602211952,-0.2925487756729126,0.41742435097694397,-0.9505033493041992,-9.641663551330566
1745736492.141913,0.014788310043513775,-0.02323511242866516,-0.29021841287612915,0.5576678514480591,-0.7994941473007202,-9.8049898147583
1745736492.1489582,0.028280049562454224,-0.013860812410712242,-0.28634247183799744,0.32618284225463867,-0.7994422912597656,-9.991594314575195
1745736492.1596859,0.01714300364255905,-0.021943949162960052,-0.2892233431339264,0.5200657248497009,-0.8668974041938782,-9.720947265625
1745736492.159815,0.024088403210043907,-0.020538313314318657,-0.288626104593277,0.32217520475387573,-0.6714832186698914,-9.633216857910156
1745736492.1834533,0.008886798284947872,-0.02197926491498947,-0.2899826765060425,0.5599589943885803,-0.9521478414535522,-9.734944343566895
1745736492.1865635,0.02467835508286953,-0.024134492501616478,-0.289293110370636,0.4139859676361084,-0.5963224172592163,-9.764213562011719
1745736492.190279,0.006381039507687092,-0.014024177566170692,-0.29099544882774353,0.46031713485717773,-0.9792672395706177,-9.773566246032715
1745736492.1948411,0.01731054112315178,-0.019005198031663895,-0.2881465554237366,0.3785437047481537,-0.8199335336685181,-9.82557487487793
1745736492.2278998,0.0026447686832398176,-0.024418596178293228,-0.2895013689994812,0.5392981767654419,-0.81561678647995,-9.859865188598633
1745736492.230531,0.03414732217788696,-0.01875738427042961,-0.28868889808654785,0.3400021195411682,-0.5476880073547363,-9.745944023132324
1745736492.2476535,0.011429610662162304,-0.021237222477793694,-0.2875604033470154,0.5049883723258972,-0.9324409365653992,-9.625163078308105
1745736492.2477317,0.034181028604507446,-0.02324536256492138,-0.28641724586486816,0.383455365896225,-0.5243870615959167,-9.619791984558105
1745736492.2721984,0.018327878788113594,-0.014184417203068733,-0.288207471370697,0.4478629529476166,-0.9835984110832214,-9.890652656555176
1745736492.2727444,0.02812771126627922,-0.021989855915308,-0.2900802493095398,0.4007161557674408,-0.6648092269897461,-9.728075981140137
1745736492.274149,0.017444919794797897,-0.014931539073586464,-0.28890517354011536,0.42343148589134216,-0.8403830528259277,-9.629209518432617
1745736492.2775438,0.0028936979360878468,-0.025209378451108932,-0.2906344532966614,0.5611494183540344,-0.9469049572944641,-9.744446754455566
1745736492.2821126,0.026997607201337814,-0.016325967386364937,-0.2908901870250702,0.43044471740722656,-0.7729319334030151,-9.900604248046875
1745736492.3167994,-0.008966214954853058,-0.020354490727186203,-0.2898683249950409,0.588262677192688,-0.9565219879150391,-9.798595428466797
1745736492.3168778,0.022471332922577858,-0.02148616313934326,-0.28801149129867554,0.37171751260757446,-0.7189029455184937,-9.5699462890625
1745736492.3187783,-0.0004137132200412452,-0.01854049041867256,-0.2878848910331726,0.4250548779964447,-0.9061900973320007,-9.642393112182617
1745736492.3207242,0.02629770338535309,-0.01913735270500183,-0.2907794415950775,0.2969757914543152,-0.7361197471618652,-9.763586044311523
1745736492.357911,0.010836051777005196,-0.01759624108672142,-0.29256123304367065,0.49345263838768005,-0.8398212194442749,-9.705798149108887
1745736492.3631768,0.007822537794709206,-0.02051796391606331,-0.2901679575443268,0.37971818447113037,-0.6912876963615417,-9.755002975463867
1745736492.3645692,0.020480215549468994,-0.014858124777674675,-0.2926487922668457,0.5171658992767334,-0.9400270581245422,-9.771095275878906
1745736492.3670704,0.004027542658150196,-0.023737860843539238,-0.2911151051521301,0.47685179114341736,-0.6784818172454834,-9.759017944335938
1745736492.3700657,0.02313643880188465,-0.018175359815359116,-0.29075154662132263,0.3762248158454895,-0.9498389363288879,-9.830592155456543
1745736492.3999245,0.004765191115438938,-0.019510475918650627,-0.2904430031776428,0.5140064358711243,-0.7033291459083557,-9.639759063720703
1745736492.410465,0.018439223989844322,-0.019812066107988358,-0.2912810146808624,0.3557255268096924,-0.7886926531791687,-9.719278335571289
1745736492.4105709,0.0068181888200342655,-0.01674790121614933,-0.28985023498535156,0.49365195631980896,-0.8212336301803589,-9.695464134216309
1745736492.41069,0.014619344845414162,-0.02218000218272209,-0.2908080816268921,0.3717089295387268,-0.6783087849617004,-9.862119674682617
1745736492.44138,0.017733726650476456,-0.01513147633522749,-0.290372371673584,0.42672252655029297,-0.8816164135932922,-9.833552360534668
1745736492.4495094,0.005934613291174173,-0.020286986604332924,-0.28857773542404175,0.3943379521369934,-0.6637816429138184,-9.69359302520752
1745736492.4528987,0.02345464378595352,-0.017564326524734497,-0.29050248861312866,0.4001808762550354,-0.9763789176940918,-9.749547004699707
1745736492.4561853,0.007750364951789379,-0.020683910697698593,-0.2905024290084839,0.48896437883377075,-0.6828387379646301,-9.693556785583496
1745736492.4882584,0.02015562914311886,-0.017186280339956284,-0.28959494829177856,0.4424886703491211,-0.7892807126045227,-9.804256439208984
1745736492.4889138,0.00818629004061222,-0.01654406450688839,-0.2895852029323578,0.5561200380325317,-0.8903172612190247,-9.70598316192627
1745736492.4909787,0.01627352274954319,-0.018508972600102425,-0.2892076373100281,0.32381343841552734,-0.6201900243759155,-9.705202102661133
1745736492.4952083,0.011146323755383492,-0.01642291620373726,-0.2886278033256531,0.5270891785621643,-0.9590948224067688,-9.863077163696289
1745736492.5276883,0.014581689611077309,-0.02032230980694294,-0.28921225666999817,0.38760799169540405,-0.5706616640090942,-9.841508865356445
1745736492.5316513,0.022512000054121017,-0.018046237528324127,-0.28826552629470825,0.4235602915287018,-0.9204459190368652,-9.7264404296875
1745736492.534272,0.002956888172775507,-0.02559284307062626,-0.2896707057952881,0.4982622265815735,-0.7602844834327698,-9.650789260864258
1745736492.5367856,0.0227834340184927,-0.018042907118797302,-0.2886233329772949,0.330192506313324,-0.8296597599983215,-9.836370468139648
1745736492.5387557,0.011366884224116802,-0.017716458067297935,-0.28740423917770386,0.5648532509803772,-0.8272894024848938,-9.679861068725586
1745736492.571127,0.009064353071153164,-0.018822355195879936,-0.2882362902164459,0.32272619009017944,-0.6944353580474854,-9.715505599975586
1745736492.57934,0.010640383698046207,-0.015139378607273102,-0.2875588834285736,0.5273681879043579,-0.9995726346969604,-9.799211502075195
1745736492.579463,0.011990383267402649,-0.022241977974772453,-0.2895684838294983,0.36119818687438965,-0.5132200717926025,-9.805668830871582
1745736492.579544,0.011783012188971043,-0.015181319788098335,-0.28757569193840027,0.4539874494075775,-0.9977990984916687,-9.86909294128418
1745736492.613765,0.014175261370837688,-0.021258017048239708,-0.2881672978401184,0.4596719741821289,-0.6112182140350342,-9.641454696655273
1745736492.6158617,0.011595438234508038,-0.01772119104862213,-0.2860559821128845,0.3230685591697693,-0.9744106531143188,-9.76591968536377
1745736492.6184816,0.003498429898172617,-0.017201457172632217,-0.2878590226173401,0.5336138606071472,-0.7800420522689819,-9.65300178527832
1745736492.6197634,0.010153301060199738,-0.019288908690214157,-0.2874049246311188,0.36265885829925537,-0.7422459721565247,-9.830167770385742
1745736492.6209803,0.0030974731780588627,-0.017515113577246666,-0.28765079379081726,0.5119770765304565,-0.8903568387031555,-9.795591354370117
1745736492.6627424,0.0011794220190495253,-0.022789541631937027,-0.2878130078315735,0.4127662777900696,-0.5581324696540833,-9.773561477661133
1745736492.6658514,0.004147422965615988,-0.016466904431581497,-0.287840336561203,0.4108596444129944,-1.0802363157272339,-9.858698844909668
1745736492.6732066,0.0072151958011090755,-0.02089291252195835,-0.28863006830215454,0.42600902915000916,-0.5221006274223328,-9.60755443572998
1745736492.6768084,0.009571177884936333,-0.01806488260626793,-0.28751340508461,0.39706677198410034,-0.8783596158027649,-9.7697172164917
1745736492.7004566,0.005117361433804035,-0.023675668984651566,-0.2837430238723755,0.40414875745773315,-0.6090162992477417,-9.499444961547852
1745736492.7038784,-0.008319715037941933,-0.015129605308175087,-0.2834605276584625,0.38007012009620667,-0.9823490381240845,-9.589759826660156
1745736492.706164,-0.009050744585692883,-0.023574460297822952,-0.2828196883201599,0.5062164068222046,-0.7270739674568176,-9.794917106628418
1745736492.7080657,0.005781902465969324,-0.01597972773015499,-0.2845580577850342,0.38077032566070557,-0.6482443809509277,-9.903351783752441
1745736492.7116094,-0.020115843042731285,-0.017909454181790352,-0.2856175899505615,0.5251006484031677,-0.8780478239059448,-9.739123344421387
1745736492.743484,0.01218952052295208,-0.022628385573625565,-0.2836077809333801,0.3415997624397278,-0.5672918558120728,-9.611538887023926
1745736492.7479584,-0.009223339147865772,-0.01965794339776039,-0.28385359048843384,0.4770684838294983,-0.8715449571609497,-9.837483406066895
1745736492.7493186,0.009665749035775661,-0.020609522238373756,-0.28493431210517883,0.3337540626525879,-0.5691732168197632,-9.82727336883545
1745736492.7518158,0.01299266517162323,-0.01187206618487835,-0.28452709317207336,0.43667227029800415,-0.752241313457489,-9.62049674987793
1745736492.7881835,0.001198714249767363,-0.02418423257768154,-0.2848573327064514,0.4877273142337799,-0.6501410603523254,-9.544336318969727
1745736492.7907927,0.020146552473306656,-0.014686226844787598,-0.2847694158554077,0.30773454904556274,-0.7316984534263611,-9.846590042114258
1745736492.7946115,-0.0017501681577414274,-0.02048938348889351,-0.28520819544792175,0.5233063101768494,-0.8796887397766113,-9.934672355651855
1745736492.797324,0.017757460474967957,-0.017021790146827698,-0.28483933210372925,0.32889324426651,-0.6922018527984619,-9.728169441223145
1745736492.829982,-0.0094858817756176,-0.017545724287629128,-0.2832581102848053,0.49342823028564453,-0.9363728761672974,-9.648340225219727
1745736492.834337,0.01108463667333126,-0.024119745939970016,-0.2836380898952484,0.3552129566669464,-0.6796439290046692,-9.715057373046875
1745736492.8386557,0.006897954735904932,-0.012830342166125774,-0.28266680240631104,0.3990335166454315,-0.8159569501876831,-9.785255432128906
1745736492.8425562,-0.0026496306527405977,-0.020717117935419083,-0.2863619327545166,0.5157430171966553,-0.6818451881408691,-9.720196723937988
1745736492.8469896,0.0202771108597517,-0.012657424435019493,-0.2823140323162079,0.358482301235199,-0.758916437625885,-9.696030616760254
1745736492.874387,-0.0025913442950695753,-0.02245602384209633,-0.284203439950943,0.4546915590763092,-0.6406530141830444,-9.709687232971191
1745736492.8766155,0.024913273751735687,-0.015660714358091354,-0.2857063412666321,0.36118084192276,-0.6991947889328003,-9.903470993041992
1745736492.8819222,0.001593598397448659,-0.016625581309199333,-0.2829156517982483,0.5102992057800293,-0.921613872051239,-9.81016731262207
1745736492.884266,0.0194992758333683,-0.023872513324022293,-0.28183987736701965,0.3815489411354065,-0.6559735536575317,-9.67789363861084
1745736492.9169006,0.0001533993927296251,-0.01723051443696022,-0.283121258020401,0.449152410030365,-0.9930664896965027,-9.771186828613281
1745736492.91953,0.006253647152334452,-0.02189037576317787,-0.2822105586528778,0.4126957952976227,-0.6091044545173645,-9.666681289672852
1745736492.9237678,0.013012364506721497,-0.013888930901885033,-0.282968133687973,0.44946718215942383,-0.7173186540603638,-9.685955047607422
1745736492.927597,-0.005637567490339279,-0.021586477756500244,-0.28418609499931335,0.4788978695869446,-0.6307632327079773,-9.737619400024414
1745736492.9319475,0.02469012141227722,-0.01760609820485115,-0.28660452365875244,0.3541458547115326,-0.694703221321106,-9.851717948913574
1745736492.9617553,0.006864818744361401,-0.020186491310596466,-0.28486213088035583,0.4620378613471985,-0.7549317479133606,-9.786487579345703
1745736492.9629097,0.024201616644859314,-0.018684808164834976,-0.28389644622802734,0.3318590223789215,-0.6548099517822266,-9.697202682495117
1745736492.964142,0.021655306220054626,-0.014461888000369072,-0.28119707107543945,0.5055879354476929,-0.8368405103683472,-9.68922233581543
1745736492.965315,0.020875271409749985,-0.02395523153245449,-0.2824355959892273,0.4171624779701233,-0.6480821371078491,-9.727923393249512
1745736493.0059605,0.025945249944925308,-0.013129189610481262,-0.28188878297805786,0.4513157904148102,-0.8686143159866333,-9.736068725585938
1745736493.0096226,0.00825311616063118,-0.021677251905202866,-0.2832212448120117,0.45609205961227417,-0.7304158210754395,-9.736231803894043
1745736493.0134823,0.022805720567703247,-0.01611454039812088,-0.28164640069007874,0.33149150013923645,-0.8326317667961121,-9.789999961853027
1745736493.01691,-0.0014626302290707827,-0.019036851823329926,-0.2848052382469177,0.5571096539497375,-0.7891190052032471,-9.750199317932129
1745736493.0196674,0.011218983680009842,-0.01967000588774681,-0.2843320071697235,0.3428889811038971,-0.7967473864555359,-9.854118347167969
1745736493.0470881,0.022688014432787895,-0.0114698251709342,-0.2825755178928375,0.3379310667514801,-0.8374935984611511,-9.597822189331055
1745736493.0488393,0.019668014720082283,-0.019198035821318626,-0.2807958722114563,0.5504292249679565,-0.7011345028877258,-9.7891206741333
1745736493.0548882,0.030221587046980858,-0.015384959056973457,-0.28131335973739624,0.3413458466529846,-0.7219985127449036,-10.09100341796875
1745736493.0895085,0.025495212525129318,-0.015619921498000622,-0.2804378867149353,0.5523564219474792,-0.8702767491340637,-9.740490913391113
1745736493.0932913,0.02250732108950615,-0.01801878958940506,-0.2839447557926178,0.32345443964004517,-0.7118869423866272,-9.48017692565918
1745736493.0980947,0.013074318878352642,-0.015325586311519146,-0.2800310254096985,0.4987778663635254,-1.0556033849716187,-9.713315963745117
1745736493.1030316,0.015129929408431053,-0.018177956342697144,-0.2823351323604584,0.4544556736946106,-0.5329784154891968,-9.869340896606445
1745736493.1075506,0.007438877131789923,-0.01040668599307537,-0.2821807563304901,0.34742316603660583,-0.9390109181404114,-9.916560173034668
1745736493.1304622,0.00873633660376072,-0.019036835059523582,-0.2817346453666687,0.49243035912513733,-0.686144232749939,-9.534107208251953
1745736493.1315746,0.014629790559411049,-0.018213633447885513,-0.28436747193336487,0.32825177907943726,-0.7312712073326111,-9.788963317871094
1745736493.1332607,0.0030747372657060623,-0.017678748816251755,-0.28345417976379395,0.5290142893791199,-0.874428927898407,-9.947211265563965
1745736493.1371734,0.02480687014758587,-0.015678655356168747,-0.2849043011665344,0.30023881793022156,-0.561603307723999,-9.764813423156738
1745736493.1733081,0.006663993000984192,-0.017090991139411926,-0.28105083107948303,0.46143394708633423,-1.0828176736831665,-9.56104850769043
1745736493.178339,0.010547634214162827,-0.019249016419053078,-0.2811891734600067,0.3898378908634186,-0.5899946093559265,-9.571916580200195
1745736493.1849947,0.00835953839123249,-0.014025434851646423,-0.28247618675231934,0.43287450075149536,-1.0027778148651123,-10.032355308532715
1745736493.1850448,0.0048300037160515785,-0.018206536769866943,-0.2798016667366028,0.4155539572238922,-0.5616481304168701,-9.846179962158203
1745736493.1885865,0.008857006207108498,-0.013186323456466198,-0.2844955325126648,0.32509827613830566,-0.714885413646698,-9.631765365600586
1745736493.2191012,-0.001303363824263215,-0.020889384672045708,-0.2860696017742157,0.486747682094574,-0.8443412780761719,-9.581607818603516
1745736493.221501,0.015909971669316292,-0.015724916011095047,-0.2853783667087555,0.3044145107269287,-0.5570283532142639,-9.845579147338867
1745736493.225266,-0.005008378531783819,-0.013051135465502739,-0.2876432538032532,0.5530486106872559,-0.9371720552444458,-9.904549598693848
1745736493.2274358,0.019410841166973114,-0.012738769873976707,-0.2854475677013397,0.34911516308784485,-0.5713670253753662,-9.532716751098633
1745736493.2608724,0.0037568658590316772,-0.01428433507680893,-0.28508108854293823,0.3864818513393402,-0.9025672674179077,-9.595494270324707
1745736493.2639256,0.013320589438080788,-0.01790948212146759,-0.2832472324371338,0.5316705703735352,-0.64918053150177,-9.905538558959961
1745736493.2680771,0.02240314893424511,-0.015604617074131966,-0.2845171093940735,0.26094961166381836,-0.6543902158737183,-9.495402336120605
1745736493.2715404,0.0035094462800771,-0.014959141612052917,-0.283730685710907,0.4964267611503601,-0.8804365992546082,-9.75129508972168
1745736493.3081312,0.023584559559822083,-0.019038304686546326,-0.2859885096549988,0.3860347270965576,-0.5508348941802979,-9.84772777557373
1745736493.3092833,0.004251805134117603,-0.010911449790000916,-0.286734402179718,0.47030678391456604,-0.9510987997055054,-9.754858016967773
1745736493.3142803,0.010966898873448372,-0.01924086920917034,-0.2858916223049164,0.44162043929100037,-0.7130879759788513,-9.599922180175781
1745736493.3207664,0.013698780909180641,-0.014739928767085075,-0.28410622477531433,0.37429243326187134,-0.8404629826545715,-9.814504623413086
1745736493.3459096,-0.0006830940837971866,-0.018331676721572876,-0.2846679091453552,0.49423542618751526,-0.7781968712806702,-9.892585754394531
1745736493.3482842,0.027298960834741592,-0.010750296525657177,-0.28440865874290466,0.31126663088798523,-0.6165511012077332,-9.753314018249512
1745736493.3498328,0.004480534698814154,-0.018858063966035843,-0.2838815748691559,0.48368653655052185,-0.8758126497268677,-9.532279968261719
1745736493.3509693,0.02251000702381134,-0.01828523352742195,-0.28448358178138733,0.335528165102005,-0.5330718159675598,-9.625570297241211
1745736493.354516,0.008091398514807224,-0.0144722955301404,-0.2847592532634735,0.4663981795310974,-0.9912580251693726,-9.994649887084961
1745736493.3933833,0.021737709641456604,-0.015291839838027954,-0.284568190574646,0.33007651567459106,-0.5581808686256409,-9.777498245239258
1745736493.3998895,0.010033692233264446,-0.009566433727741241,-0.2844628095626831,0.4072135090827942,-0.8690561056137085,-9.602916717529297
1745736493.3999581,0.017088551074266434,-0.02352645993232727,-0.28891125321388245,0.3985738158226013,-0.74590665102005,-9.806922912597656
1745736493.4030483,0.01015741191804409,-0.01538581121712923,-0.28652939200401306,0.518285870552063,-0.7738696336746216,-10.069968223571777
1745736493.4310179,0.014816289767622948,-0.019038982689380646,-0.2883644104003906,0.3209429681301117,-0.6214410662651062,-9.791269302368164
1745736493.43308,0.02302802912890911,-0.01623466983437538,-0.28858867287635803,0.4414803087711334,-0.9006040692329407,-9.52347183227539
1745736493.4344425,0.007340882904827595,-0.026704590767621994,-0.2861967980861664,0.4317688047885895,-0.6896319389343262,-9.723469734191895
1745736493.4357374,0.025384748354554176,-0.01749895140528679,-0.2875192165374756,0.41983604431152344,-0.8532038927078247,-10.000717163085938
1745736493.437577,0.00028258562088012695,-0.021056566387414932,-0.288144052028656,0.48983845114707947,-0.8132762908935547,-9.730608940124512
1745736493.4763958,0.019130591303110123,-0.018134143203496933,-0.2853657603263855,0.3595726490020752,-0.7930338978767395,-9.470792770385742
1745736493.4784806,-0.0030887634493410587,-0.021929621696472168,-0.28923553228378296,0.586058497428894,-0.774765133857727,-9.66028881072998
1745736493.491291,0.006523981690406799,-0.024321913719177246,-0.29013684391975403,0.3700931966304779,-0.6410356760025024,-10.131010055541992
1745736493.4926083,0.01155413594096899,-0.017298173159360886,-0.2891595959663391,0.4681253433227539,-0.9118882417678833,-9.908470153808594
1745736493.5196133,0.0012935992563143373,-0.0262474212795496,-0.29021042585372925,0.34765201807022095,-0.6136504411697388,-9.40730094909668
1745736493.5228114,0.011087179183959961,-0.020826971158385277,-0.288108766078949,0.38944119215011597,-0.9491187930107117,-9.642783164978027
1745736493.5268037,0.0020753678400069475,-0.023303460329771042,-0.2897445857524872,0.4949508607387543,-0.5581412315368652,-9.962812423706055
1745736493.5313272,0.01908768154680729,-0.019907202571630478,-0.2872915267944336,0.3715628683567047,-0.7566556930541992,-9.923564910888672
1745736493.535653,0.0034359898418188095,-0.020816989243030548,-0.288984477519989,0.543485164642334,-0.7680129408836365,-9.4509916305542
1745736493.562626,0.01540336012840271,-0.029639780521392822,-0.29009106755256653,0.3977302014827728,-0.7376717329025269,-9.701444625854492
1745736493.5656185,0.008088290691375732,-0.020994383841753006,-0.28709378838539124,0.45452427864074707,-0.8788566589355469,-10.053499221801758
1745736493.567089,0.004843483678996563,-0.02254672534763813,-0.28859835863113403,0.3278924524784088,-0.565758228302002,-9.82663345336914
1745736493.5699198,0.01491101086139679,-0.02011638507246971,-0.288752019405365,0.37024885416030884,-0.9786317944526672,-9.47712516784668
1745736493.6065664,0.004208608530461788,-0.026927661150693893,-0.28850257396698,0.3884549140930176,-0.484161376953125,-9.476302146911621
1745736493.6100209,0.013923424296081066,-0.022654777392745018,-0.29279986023902893,0.4187871515750885,-0.7633207440376282,-10.082315444946289
1745736493.6134584,0.012992178089916706,-0.020829927176237106,-0.29134154319763184,0.5129926204681396,-0.6877798438072205,-9.840771675109863
1745736493.6182249,0.01918809488415718,-0.026526590809226036,-0.2873741090297699,0.3294312357902527,-0.6316946744918823,-10.042614936828613
1745736493.6503143,0.02420629933476448,-0.01860628090798855,-0.28932785987854004,0.42312708497047424,-0.937084972858429,-9.837507247924805
1745736493.6542237,0.011918838135898113,-0.02345944568514824,-0.28550392389297485,0.3932134211063385,-0.5971081852912903,-9.427640914916992
1745736493.656574,0.02392864227294922,-0.020957058295607567,-0.2888635993003845,0.32167837023735046,-0.8102360963821411,-9.632085800170898
1745736493.66022,0.015038268640637398,-0.024513045325875282,-0.2906806468963623,0.5164550542831421,-0.6080915331840515,-9.909749031066895
1745736493.6891887,0.019633088260889053,-0.018055148422718048,-0.29002606868743896,0.29922884702682495,-0.6711332201957703,-9.973222732543945
1745736493.6911173,0.01715940795838833,-0.019656458869576454,-0.2901918292045593,0.50859135389328,-0.9473978877067566,-9.576979637145996
1745736493.701976,0.024786580353975296,-0.028318967670202255,-0.2876242399215698,0.33400997519493103,-0.5659362077713013,-9.64544677734375
1745736493.705809,0.01898837648332119,-0.01775483787059784,-0.289061039686203,0.4609411358833313,-1.0161762237548828,-9.983404159545898
1745736493.7094874,0.030934583395719528,-0.023368751630187035,-0.28755903244018555,0.3995612561702728,-0.44023436307907104,-9.750679016113281
1745736493.732945,0.02994980290532112,-0.01854262687265873,-0.2868686616420746,0.40087491273880005,-0.926375687122345,-9.6303129196167
1745736493.7352645,0.02447396144270897,-0.0256172027438879,-0.2863379418849945,0.4427770674228668,-0.6404560804367065,-9.620760917663574
1745736493.737345,0.03300540894269943,-0.022096453234553337,-0.2895306646823883,0.2781673073768616,-0.7788423895835876,-10.015886306762695
1745736493.7400203,0.029869675636291504,-0.012420421466231346,-0.28586986660957336,0.46852144598960876,-0.9852773547172546,-9.862025260925293
1745736493.7859557,0.043525464832782745,-0.017496947199106216,-0.2866958677768707,0.3869183659553528,-0.6311612129211426,-9.483179092407227
1745736493.795954,0.02560032345354557,-0.012205296196043491,-0.28783243894577026,0.3691873550415039,-0.9789667129516602,-9.594589233398438
1745736493.796044,0.020619433373212814,-0.01990879699587822,-0.28945833444595337,0.5073952674865723,-0.7783510684967041,-9.880959510803223
1745736493.7961047,0.037432711571455,-0.013462686911225319,-0.287871778011322,0.34021052718162537,-0.8112665414810181,-10.00625991821289
1745736493.796154,0.012875017710030079,-0.016426831483840942,-0.2868083119392395,0.4907302260398865,-0.8722198605537415,-9.667951583862305
1745736493.821044,0.043550409376621246,-0.0199191402643919,-0.2864322066307068,0.3140055239200592,-0.651467502117157,-9.58927059173584
1745736493.8225813,0.019907446578145027,-0.018040534108877182,-0.28668251633644104,0.4894987642765045,-1.02686607837677,-9.848896980285645
1745736493.8236606,0.039413172751665115,-0.019186977297067642,-0.28393810987472534,0.3708242177963257,-0.5564699172973633,-9.82971477508545
1745736493.825119,0.026026856154203415,-0.012223990634083748,-0.2850356996059418,0.41378170251846313,-1.0400054454803467,-9.710638046264648
1745736493.8682618,0.027202367782592773,-0.021327942609786987,-0.28393763303756714,0.3935357928276062,-0.6847506165504456,-9.55187702178955
1745736493.8697007,0.031099528074264526,-0.015362948179244995,-0.28546056151390076,0.3397473394870758,-0.8178688883781433,-9.813821792602539
1745736493.872437,0.007431143429130316,-0.019402431324124336,-0.28773802518844604,0.5482466220855713,-0.8945622444152832,-9.990943908691406
1745736493.875679,0.03999457508325577,-0.016220394521951675,-0.2848058342933655,0.3709597587585449,-0.7205936312675476,-9.726776123046875
1745736493.877132,0.006401465740054846,-0.019366100430488586,-0.2864367961883545,0.5065058469772339,-0.9376057386398315,-9.564002990722656
1745736493.9068115,0.029891660436987877,-0.019352223724126816,-0.2852521538734436,0.3585602045059204,-0.7363904714584351,-9.703110694885254
1745736493.909408,0.01715807430446148,-0.013504989445209503,-0.28545570373535156,0.42637768387794495,-0.9119561314582825,-9.820780754089355
1745736493.912513,0.02154538407921791,-0.019868064671754837,-0.28437602519989014,0.476346880197525,-0.7251496315002441,-9.7399320602417
1745736493.9144633,0.026739800348877907,-0.013469246216118336,-0.28311818838119507,0.3456895053386688,-0.8930072784423828,-9.735013961791992
1745736493.9485765,0.013772150501608849,-0.023332033306360245,-0.2800007462501526,0.45837464928627014,-0.8531568646430969,-9.817002296447754
1745736493.949955,0.029113341122865677,-0.017379531636834145,-0.2833864986896515,0.28111883997917175,-0.7718305587768555,-9.883097648620605
1745736493.9524398,0.002836014376953244,-0.017049219459295273,-0.2819085717201233,0.4722568988800049,-0.9150883555412292,-9.67100715637207
1745736493.9551437,0.02674449048936367,-0.02149566076695919,-0.2820855975151062,0.38568997383117676,-0.6701880693435669,-9.540253639221191
1745736493.9920058,-0.006996973417699337,-0.024410512298345566,-0.28233978152275085,0.45717495679855347,-0.8005186319351196,-9.642677307128906
1745736493.9938664,0.02696603536605835,-0.018179956823587418,-0.28249484300613403,0.34020110964775085,-0.7277893424034119,-9.730982780456543
1745736493.9955075,-0.0012683940585702658,-0.023846261203289032,-0.2803601622581482,0.5016375780105591,-0.8356227874755859,-9.843099594116211
1745736493.9980998,0.03069167397916317,-0.023491770029067993,-0.2840654253959656,0.35152357816696167,-0.5910547971725464,-9.732933044433594
1745736494.0346844,0.003313222900032997,-0.019308367744088173,-0.2834625244140625,0.47358569502830505,-0.98406583070755,-9.67601203918457
1745736494.037591,0.02058015577495098,-0.026183247566223145,-0.28221258521080017,0.3378167748451233,-0.6911870241165161,-9.6630220413208
1745736494.0397356,0.014161540195345879,-0.015082131139934063,-0.2834177017211914,0.40283361077308655,-0.8914783596992493,-9.729058265686035
1745736494.0407853,-0.0007572723552584648,-0.024064451456069946,-0.28307172656059265,0.47015419602394104,-0.8090675473213196,-9.808550834655762
1745736494.043514,0.027633752673864365,-0.017806358635425568,-0.28275221586227417,0.3990282118320465,-0.8416382670402527,-9.718899726867676
1745736494.0797365,-0.008985244669020176,-0.026789391413331032,-0.28397315740585327,0.4855565130710602,-0.8172653317451477,-9.687734603881836
1745736494.0807943,0.01958952471613884,-0.019348636269569397,-0.2820567190647125,0.2994227409362793,-0.7906871438026428,-9.776057243347168
1745736494.0823987,0.0013315265532582998,-0.017533931881189346,-0.28243201971054077,0.4755202829837799,-0.8315328359603882,-9.676149368286133
1745736494.083804,0.013228935189545155,-0.02449697256088257,-0.28289785981178284,0.40888771414756775,-0.6746914386749268,-9.675043106079102
1745736494.1226807,0.013912910595536232,-0.019898947328329086,-0.28328394889831543,0.42521268129348755,-0.8962093591690063,-9.834808349609375
1745736494.1258924,-0.005511221941560507,-0.023946035653352737,-0.28086423873901367,0.517005205154419,-0.7689858675003052,-9.765043258666992
1745736494.129296,0.00948361400514841,-0.020050570368766785,-0.28214627504348755,0.33332985639572144,-0.846748948097229,-9.754472732543945
1745736494.1334326,-0.0010710202623158693,-0.019562721252441406,-0.28214728832244873,0.4831022322177887,-0.8251579403877258,-9.61579418182373
1745736494.1646926,-0.00017599128477741033,-0.018841318786144257,-0.2796085476875305,0.27089956402778625,-0.6674798727035522,-9.698904991149902
1745736494.1690273,0.0018123891204595566,-0.018061170354485512,-0.2809002995491028,0.4974418580532074,-0.9404101371765137,-9.828112602233887
1745736494.1731935,0.007712642662227154,-0.023422664031386375,-0.2811427712440491,0.36742597818374634,-0.4594174921512604,-9.797701835632324
1745736494.1765666,0.012866983190178871,-0.015357749536633492,-0.2823295593261719,0.3936801552772522,-0.908788800239563,-9.828450202941895
1745736494.1790082,0.012076282873749733,-0.02074303850531578,-0.2830154299736023,0.451183021068573,-0.5325033068656921,-9.611635208129883
1745736494.2094355,0.014623312279582024,-0.019864238798618317,-0.28418436646461487,0.3898233473300934,-1.002082109451294,-9.732364654541016
1745736494.2113981,0.00023174872330855578,-0.01944415643811226,-0.2821362614631653,0.5322096347808838,-0.8936667442321777,-9.766331672668457
1745736494.2181575,0.003286508144810796,-0.017611932009458542,-0.2812163233757019,0.293024480342865,-0.8330153226852417,-9.867721557617188
1745736494.218361,-0.0039655775763094425,-0.01588556542992592,-0.27864164113998413,0.4624919891357422,-1.0035598278045654,-9.651792526245117
1745736494.2539272,-0.007021534256637096,-0.02130236104130745,-0.2802272140979767,0.3743709623813629,-0.5020090341567993,-9.602869987487793
1745736494.261899,-0.00454876571893692,-0.016620855778455734,-0.2797622084617615,0.4227953553199768,-1.0127555131912231,-10.006183624267578
1745736494.2619495,0.004265124909579754,-0.019162237644195557,-0.28302472829818726,0.4033365249633789,-0.43915969133377075,-9.8140869140625
1745736494.2620015,0.005028603132814169,-0.011438475921750069,-0.28298601508140564,0.32547062635421753,-0.8610223531723022,-9.663492202758789
1745736494.2649558,0.0030223235953599215,-0.017568599432706833,-0.27878859639167786,0.46421098709106445,-0.815379798412323,-9.503682136535645
1745736494.2937899,0.01055822055786848,-0.015991102904081345,-0.28141340613365173,0.27464693784713745,-0.6875066757202148,-9.823400497436523
1745736494.296247,0.0021614222787320614,-0.013426685705780983,-0.27924996614456177,0.5717482566833496,-0.949502170085907,-9.958436965942383
1745736494.2974064,0.010759720578789711,-0.015516787767410278,-0.2780231833457947,0.33627042174339294,-0.5552815794944763,-9.677175521850586
1745736494.300896,0.0047205411829054356,-0.016077792271971703,-0.2803388237953186,0.48654380440711975,-1.0196994543075562,-9.658157348632812
1745736494.3369257,-0.0031753096263855696,-0.023046597838401794,-0.28034672141075134,0.4418436586856842,-0.6061367988586426,-9.901346206665039
1745736494.3410356,-0.0076677994802594185,-0.014188039116561413,-0.28007960319519043,0.5444348454475403,-0.8619480133056641,-9.90797233581543
1745736494.345274,0.01642143912613392,-0.013022025115787983,-0.2811526954174042,0.32365646958351135,-0.46469634771347046,-10.02918815612793
1745736494.3538005,0.004809410311281681,-0.011790258809924126,-0.2814471423625946,0.44573742151260376,-0.9202783703804016,-9.754237174987793
1745736494.355917,0.020489348098635674,-0.017697608098387718,-0.28061211109161377,0.350475013256073,-0.45722895860671997,-9.496968269348145
1745736494.381514,0.019045835360884666,-0.012814128771424294,-0.28117698431015015,0.38368475437164307,-0.9885488748550415,-9.85297679901123
1745736494.3850758,0.01086459495127201,-0.015130440704524517,-0.28021615743637085,0.5066059231758118,-0.6527128219604492,-9.829381942749023
1745736494.3884408,0.01327715627849102,-0.009350985288619995,-0.2806229591369629,0.344900906085968,-0.9237319231033325,-9.734561920166016
1745736494.390787,0.0016086522955447435,-0.014837983064353466,-0.2808690071105957,0.5050960779190063,-0.8547741770744324,-9.564828872680664
1745736494.4256613,0.006534105632454157,-0.014115746133029461,-0.28145766258239746,0.3354518711566925,-0.656299889087677,-9.799643516540527
1745736494.427545,-0.007117338478565216,-0.013979045674204826,-0.2808092534542084,0.5080740451812744,-1.0339329242706299,-10.085274696350098
1745736494.4301991,0.013122238218784332,-0.01469405461102724,-0.28035321831703186,0.3720490634441376,-0.5494247674942017,-9.754572868347168
1745736494.4320657,0.0019208065932616591,-0.012327109463512897,-0.27939459681510925,0.37711432576179504,-0.8783560991287231,-9.5808687210083
1745736494.4651594,0.01135527528822422,-0.017980849370360374,-0.27898621559143066,0.40123504400253296,-0.6488605737686157,-9.580848693847656
1745736494.4709651,0.030866842716932297,-0.022422360256314278,-0.27733588218688965,0.36327680945396423,-0.7243507504463196,-9.88542652130127
1745736494.4749527,0.007577297277748585,-0.017732052132487297,-0.27583980560302734,0.4549482464790344,-0.8842201232910156,-9.858209609985352
1745736494.4784222,0.03231790289282799,-0.022928277030587196,-0.2767010033130646,0.3645995259284973,-0.5862271189689636,-9.589584350585938
1745736494.5100894,0.012189912609755993,-0.01955265924334526,-0.27747952938079834,0.4669523239135742,-0.9328973889350891,-9.670700073242188
1745736494.5157506,0.01843387819826603,-0.02561177685856819,-0.27767378091812134,0.4072343409061432,-0.6460191011428833,-9.753013610839844
1745736494.5181117,0.023164385929703712,-0.01662922091782093,-0.2806757390499115,0.440437376499176,-0.8364394903182983,-9.784985542297363
1745736494.5235941,-0.0048314789310097694,-0.02225922793149948,-0.2810135781764984,0.47471490502357483,-0.8263503313064575,-9.673008918762207
1745736494.5269136,0.015840360894799232,-0.022668074816465378,-0.2816292643547058,0.3914486765861511,-0.8752322196960449,-9.757969856262207
1745736494.552548,-0.005564808379858732,-0.024564247578382492,-0.27908745408058167,0.5185750126838684,-0.8245064616203308,-9.843034744262695
1745736494.554608,0.01143495924770832,-0.022481674328446388,-0.2778976559638977,0.34441056847572327,-0.6749180555343628,-9.79843521118164
1745736494.5584269,0.012005500495433807,-0.017512252554297447,-0.2786681056022644,0.4634245038032532,-0.7946413159370422,-9.58907413482666
1745736494.5614395,0.011242611333727837,-0.027422990649938583,-0.27796316146850586,0.39741095900535583,-0.595079779624939,-9.605027198791504
1745736494.5940256,0.0234464593231678,-0.01888090930879116,-0.27681443095207214,0.37843671441078186,-0.7920502424240112,-9.872888565063477
1745736494.5982733,0.012487228959798813,-0.02386055514216423,-0.27866479754447937,0.3966025710105896,-0.6803472638130188,-9.846235275268555
1745736494.6007957,0.03414125740528107,-0.01728282868862152,-0.2782451808452606,0.29826825857162476,-0.7569224238395691,-9.647332191467285
1745736494.6057856,0.006235632114112377,-0.023650694638490677,-0.27928662300109863,0.5524683594703674,-0.7828616499900818,-9.62494945526123
1745736494.6099494,0.026199692860245705,-0.02575114741921425,-0.2786627411842346,0.35885804891586304,-0.7889742851257324,-9.8969144821167
1745736494.6394975,0.01713271625339985,-0.016583701595664024,-0.280594140291214,0.5134097933769226,-0.8756293058395386,-9.853757858276367
1745736494.643655,0.008131693117320538,-0.02510696090757847,-0.2789781391620636,0.442905992269516,-0.6559309959411621,-9.599298477172852
1745736494.6471128,0.01969762146472931,-0.018863007426261902,-0.28078168630599976,0.46235284209251404,-0.9517472386360168,-9.608024597167969
1745736494.6494293,0.002469045342877507,-0.025226851925253868,-0.277171790599823,0.41062259674072266,-0.6050412058830261,-9.806894302368164
1745736494.682371,0.026683339849114418,-0.017301613464951515,-0.280220091342926,0.36824193596839905,-0.8320999145507812,-9.989532470703125
1745736494.685741,0.006746138446033001,-0.02219129540026188,-0.2772359549999237,0.413936048746109,-0.6576822996139526,-9.64435863494873
1745736494.6884205,0.0249579269438982,-0.020966926589608192,-0.2794305384159088,0.5090968012809753,-0.9772065281867981,-9.644562721252441
1745736494.6914005,0.00528681231662631,-0.024745779111981392,-0.27691203355789185,0.3942827880382538,-0.6286300420761108,-9.537542343139648
1745736494.6928859,0.02241905964910984,-0.01610104739665985,-0.27758046984672546,0.40580296516418457,-0.9273307919502258,-9.867233276367188
1745736494.7347481,0.00979201216250658,-0.023693112656474113,-0.2790784239768982,0.456257164478302,-0.6008126735687256,-9.88224983215332
1745736494.7392771,0.02577829919755459,-0.019110316410660744,-0.27726882696151733,0.31544753909111023,-0.7160928249359131,-9.77737045288086
1745736494.7421908,0.020752152428030968,-0.021389294415712357,-0.2781941294670105,0.4961934983730316,-0.7351458668708801,-9.650850296020508
1745736494.7438922,0.0285048671066761,-0.025206346064805984,-0.2785870134830475,0.2748039662837982,-0.6832677125930786,-9.790669441223145
1745736494.7675061,0.027342433109879494,-0.015567188151180744,-0.27706727385520935,0.48522457480430603,-0.9259103536605835,-9.760965347290039
1745736494.7708933,0.020913144573569298,-0.02269391342997551,-0.27649998664855957,0.37919601798057556,-0.7390785813331604,-9.675680160522461
1745736494.7747824,0.032828886061906815,-0.016044508665800095,-0.273895800113678,0.35826990008354187,-0.9690361022949219,-9.722429275512695
1745736494.778304,0.011623439379036427,-0.020755190402269363,-0.2751014828681946,0.4860614240169525,-0.6105585694313049,-9.707160949707031
1745736494.8101013,0.024415938183665276,-0.017972759902477264,-0.27573588490486145,0.3109499216079712,-0.9500238299369812,-9.983846664428711
1745736494.8154795,0.020049383863806725,-0.01791716180741787,-0.27813026309013367,0.5102559924125671,-0.7078307867050171,-9.70838737487793
1745736494.822378,0.018955400213599205,-0.016680656000971794,-0.2781261205673218,0.37678295373916626,-0.472463995218277,-9.87935733795166
1745736494.8275025,0.006699355784803629,-0.012955142185091972,-0.2771426737308502,0.41993609070777893,-0.9919943809509277,-9.810930252075195
1745736494.8534214,0.016993718221783638,-0.018034640699625015,-0.2752963602542877,0.3894950747489929,-0.6035158038139343,-9.59761905670166
1745736494.8581462,0.012922664172947407,-0.014302613213658333,-0.2763829827308655,0.3412831127643585,-0.940676212310791,-9.860086441040039
1745736494.861911,0.010354718193411827,-0.019824977964162827,-0.27548322081565857,0.5222761631011963,-0.703524112701416,-9.741636276245117
1745736494.866777,0.018184933811426163,-0.01279246062040329,-0.27524542808532715,0.2837792634963989,-0.7161088585853577,-9.706759452819824
1745736494.8699594,0.009486131370067596,-0.017249565571546555,-0.2755303680896759,0.5220279097557068,-0.9127352833747864,-9.634326934814453
1745736494.9025056,0.024547426030039787,-0.01708977296948433,-0.2773421108722687,0.3967640697956085,-0.5046721696853638,-9.737479209899902
1745736494.9055138,0.006951493211090565,-0.011985263787209988,-0.2757512629032135,0.44971799850463867,-0.989579975605011,-9.955291748046875
1745736494.9069548,0.025381555780768394,-0.016812454909086227,-0.27570176124572754,0.41074028611183167,-0.6062827110290527,-9.703261375427246
1745736494.9085827,0.019131748005747795,-0.011847594752907753,-0.27362751960754395,0.32598745822906494,-0.9298213720321655,-9.667366027832031
1745736494.941087,0.014745786786079407,-0.01851295307278633,-0.275596559047699,0.45740050077438354,-0.7743561863899231,-9.683576583862305
1745736494.9436111,0.02980164811015129,-0.011478187516331673,-0.2769366204738617,0.35160377621650696,-0.7074781656265259,-9.875532150268555
1745736494.9454608,0.006788467522710562,-0.014977087266743183,-0.2751341760158539,0.536439061164856,-0.9347454309463501,-9.724601745605469
1745736494.9482725,0.023516971617937088,-0.013981861993670464,-0.27592432498931885,0.3752465844154358,-0.6527280211448669,-9.58996295928955
1745736494.9497654,0.0026846560649573803,-0.01619337871670723,-0.2761996388435364,0.5550779104232788,-1.104914903640747,-9.857745170593262
1745736494.9866655,0.013830432668328285,-0.019970133900642395,-0.27455973625183105,0.3695620000362396,-0.6252995133399963,-9.885002136230469
1745736494.9884717,0.002259055618196726,-0.01164937298744917,-0.2747253179550171,0.40329909324645996,-0.959124743938446,-9.799245834350586
1745736494.9903252,0.0032400786876678467,-0.01964954100549221,-0.27322766184806824,0.425894170999527,-0.746338963508606,-9.562155723571777
1745736494.9928212,0.019843442365527153,-0.01504669152200222,-0.27508556842803955,0.3045571744441986,-0.6768075823783875,-9.720155715942383
1745736495.027374,-0.0013216830557212234,-0.01697390154004097,-0.2758823335170746,0.5965437293052673,-0.7832980155944824,-9.875900268554688
1745736495.0289109,0.02915206179022789,-0.01289590634405613,-0.2743479311466217,0.3062489628791809,-0.5987120270729065,-9.774084091186523
1745736495.0311198,0.006094320677220821,-0.013976676389575005,-0.2754259705543518,0.39047256112098694,-0.927781879901886,-9.677995681762695
1745736495.0334952,-0.005692176520824432,-0.021027732640504837,-0.2765536606311798,0.504896879196167,-0.7748990058898926,-9.668620109558105
1745736495.0681741,0.01818498596549034,-0.018330641090869904,-0.27605336904525757,0.3656892478466034,-0.6438957452774048,-9.830781936645508
1745736495.0704138,-0.012280828319489956,-0.014037671498954296,-0.27563557028770447,0.457740843296051,-0.90899258852005,-9.800644874572754
1745736495.0715554,0.012190138921141624,-0.01915135234594345,-0.27615779638290405,0.3310093879699707,-0.6998740434646606,-9.635246276855469
1745736495.0741751,0.0012518232688307762,-0.015464464202523232,-0.2773422598838806,0.40894779562950134,-0.8485948443412781,-9.708793640136719
1745736495.1109788,0.001795431599020958,-0.02291419729590416,-0.2754135727882385,0.4306109547615051,-0.6403357982635498,-9.874384880065918
1745736495.1115026,0.017881881445646286,-0.013489557430148125,-0.27558788657188416,0.4247196316719055,-0.7833215594291687,-9.868671417236328
1745736495.1156073,-0.001922817900776863,-0.022130519151687622,-0.27745795249938965,0.5140348672866821,-0.8033941984176636,-9.641746520996094
1745736495.1205754,0.017198987305164337,-0.019551139324903488,-0.2755926251411438,0.39267823100090027,-0.7720634341239929,-9.678484916687012
1745736495.1221564,-0.010983781889081001,-0.02075488492846489,-0.2767159342765808,0.5176668167114258,-0.941217303276062,-9.818925857543945
1745736495.1539385,0.00681947311386466,-0.017350398004055023,-0.27281349897384644,0.30617302656173706,-0.6959365010261536,-9.805597305297852
1745736495.156233,-0.013498549349606037,-0.017508193850517273,-0.2736339271068573,0.5031965970993042,-0.8932115435600281,-9.695442199707031
1745736495.158242,-0.004576048348098993,-0.026577746495604515,-0.27625828981399536,0.3581746220588684,-0.6770617365837097,-9.726033210754395
1745736495.1598601,0.01701214164495468,-0.01620207540690899,-0.26977089047431946,0.4706250727176666,-1.0287278890609741,-9.727416038513184
1745736495.1979733,-0.004533520434051752,-0.021486695855855942,-0.27191630005836487,0.41307249665260315,-0.6756898760795593,-9.510603904724121
1745736495.198146,0.006984808947890997,-0.01848936825990677,-0.27003416419029236,0.4166983664035797,-0.9851434826850891,-9.770444869995117
1745736495.2000315,-0.003755943151190877,-0.021235916763544083,-0.2703149914741516,0.4392114281654358,-0.6091185808181763,-9.849352836608887
1745736495.2015638,0.011891037225723267,-0.018636558204889297,-0.2703227400779724,0.2865044176578522,-0.6538165211677551,-9.850150108337402
1745736495.239064,0.01288182009011507,-0.01840009167790413,-0.2695609927177429,0.4803619384765625,-0.7174484729766846,-9.634223937988281
1745736495.2428846,0.017173871397972107,-0.027115777134895325,-0.2692601680755615,0.2869141697883606,-0.597427248954773,-9.759721755981445
1745736495.2466962,0.02140839770436287,-0.018476013094186783,-0.271459698677063,0.467620313167572,-0.889764666557312,-9.837294578552246
1745736495.249588,0.012541592121124268,-0.021250326186418533,-0.2688158452510834,0.38021355867385864,-0.6611045002937317,-9.686572074890137
1745736495.2531738,0.02142835035920143,-0.015998730435967445,-0.2688915729522705,0.4083276391029358,-1.0143831968307495,-9.614051818847656
1745736495.2846072,0.0003636099281720817,-0.023662280291318893,-0.26968175172805786,0.5528319478034973,-0.6886608004570007,-9.633748054504395
1745736495.2881355,0.006213515065610409,-0.020664457231760025,-0.2677566409111023,0.3636809289455414,-0.875229001045227,-10.113161087036133
1745736495.2909205,0.0034818791318684816,-0.017946042120456696,-0.2706199288368225,0.5328823924064636,-0.8134534955024719,-9.797554969787598
1745736495.2947593,0.0009234342724084854,-0.023099876940250397,-0.27129843831062317,0.28975242376327515,-0.5767160654067993,-9.52806568145752
1745736495.3282506,0.005769339390099049,-0.01823248714208603,-0.26886120438575745,0.44547146558761597,-0.9336757659912109,-9.628751754760742
1745736495.3337166,0.0063173845410346985,-0.022366130724549294,-0.27273350954055786,0.3583269715309143,-0.443507581949234,-9.815643310546875
1745736495.3428614,0.016317730769515038,-0.013577091507613659,-0.26831716299057007,0.40718021988868713,-0.9403210878372192,-9.920717239379883
1745736495.3693237,0.009914794936776161,-0.02012748084962368,-0.2691386938095093,0.4031546711921692,-0.5942166447639465,-9.52149486541748
1745736495.369439,0.020405283197760582,-0.017527341842651367,-0.26866406202316284,0.32650408148765564,-0.9046348333358765,-9.825640678405762
1745736495.3708363,0.004084921441972256,-0.020594555884599686,-0.2680125832557678,0.5073410868644714,-0.7748706936836243,-9.94127368927002
1745736495.374309,0.011528292670845985,-0.015943123027682304,-0.27113109827041626,0.2967981696128845,-0.6804397702217102,-9.82786750793457
1745736495.3764963,0.006048028357326984,-0.01851264014840126,-0.26908889412879944,0.5212883353233337,-0.9847313761711121,-9.542322158813477
1745736495.3795981,0.011107657104730606,-0.018393227830529213,-0.2680686414241791,0.27924463152885437,-0.6508815884590149,-9.98691463470459
1745736495.4172633,0.007722614798694849,-0.017287995666265488,-0.27101731300354004,0.5234817862510681,-0.790513813495636,-9.751046180725098
1745736495.4173386,0.012296306900680065,-0.01930229738354683,-0.2684061527252197,0.29151925444602966,-0.6040865778923035,-9.534695625305176
1745736495.4213388,0.007370828650891781,-0.01252131350338459,-0.2688659131526947,0.44394078850746155,-0.9375817179679871,-9.703245162963867
1745736495.4246602,0.008691209368407726,-0.017481323331594467,-0.2705342173576355,0.46219736337661743,-0.4826180040836334,-9.78316593170166
1745736495.4549966,0.0051851654425263405,-0.009711514227092266,-0.2704929709434509,0.3812600374221802,-0.9173898696899414,-9.936351776123047
1745736495.459479,0.0026292302645742893,-0.01598384790122509,-0.2705209255218506,0.4947921633720398,-0.7075236439704895,-9.673334121704102
1745736495.46648,0.010187501087784767,-0.016943858936429024,-0.2713267207145691,0.29942482709884644,-0.7438225746154785,-9.750704765319824
1745736495.4685478,-0.0024950928054749966,-0.012306314893066883,-0.27105027437210083,0.4461759030818939,-0.8914817571640015,-9.795438766479492
1745736495.47382,0.016803426668047905,-0.011014164425432682,-0.2701660096645355,0.301552951335907,-0.4306364953517914,-9.722618103027344
1745736495.4990468,0.003581347642466426,-0.012463693507015705,-0.2701356112957001,0.5053111910820007,-0.9742242693901062,-9.691061019897461
1745736495.5010893,0.014987880364060402,-0.014988983981311321,-0.26786452531814575,0.3698834180831909,-0.48769474029541016,-9.700042724609375
1745736495.5105789,0.015962108969688416,-0.01212182454764843,-0.2678415775299072,0.3863300085067749,-0.9782468676567078,-10.005468368530273
1745736495.5106974,0.014407580718398094,-0.015193837694823742,-0.26752740144729614,0.43256813287734985,-0.630950927734375,-9.79583740234375
1745736495.5415452,0.018434492871165276,-0.008599629625678062,-0.2705669701099396,0.35255056619644165,-0.7980965375900269,-9.795076370239258
1745736495.545193,-0.0005919773248024285,-0.015202971175312996,-0.2691194415092468,0.4992700219154358,-0.7996585965156555,-9.784123420715332
1745736495.547293,0.03273436054587364,-0.009716102853417397,-0.2676568329334259,0.3068690001964569,-0.5938243865966797,-9.679936408996582
1745736495.5503824,0.0013833477860316634,-0.006472036242485046,-0.2680276334285736,0.44666093587875366,-0.8196527361869812,-9.585874557495117
1745736495.58371,0.025882458314299583,-0.014257999137043953,-0.2682114243507385,0.39014962315559387,-0.6116377711296082,-9.701089859008789
1745736495.5873492,0.019863087683916092,-0.006450167391449213,-0.267015278339386,0.4528738856315613,-0.8089971542358398,-9.928269386291504
1745736495.5900154,0.01854451186954975,-0.016911853104829788,-0.26571422815322876,0.40065449476242065,-0.608733057975769,-9.876958847045898
1745736495.5931458,0.035135023295879364,-0.0074181631207466125,-0.2687639892101288,0.35948342084884644,-0.7936171889305115,-9.682398796081543
1745736495.5960865,0.008281407877802849,-0.01716485619544983,-0.2678368389606476,0.4499936103820801,-0.819351851940155,-9.613372802734375
1745736495.6312032,0.033920422196388245,-0.012173651717603207,-0.26554352045059204,0.36241936683654785,-0.6707207560539246,-9.713300704956055
1745736495.6331813,0.0022436990402638912,-0.011337806470692158,-0.26512715220451355,0.49426478147506714,-0.8816423416137695,-9.814889907836914
1745736495.6353302,0.0272987000644207,-0.012630179524421692,-0.26763099431991577,0.3333956301212311,-0.5962966680526733,-9.674431800842285
1745736495.6398017,0.010721484199166298,-0.010468300431966782,-0.2665155827999115,0.4974280297756195,-0.803420901298523,-9.646123886108398
1745736495.6754436,0.014946550130844116,-0.016915854066610336,-0.2682379484176636,0.3991019129753113,-0.6052739024162292,-9.93517017364502
1745736495.6755435,0.03352054953575134,-0.00850081816315651,-0.26763254404067993,0.40645962953567505,-0.8219855427742004,-9.864738464355469
1745736495.6785007,0.01078682579100132,-0.01756741665303707,-0.2681514322757721,0.42485904693603516,-0.6588584184646606,-9.566719055175781
1745736495.682065,0.037183552980422974,-0.010572321712970734,-0.26694008708000183,0.32381686568260193,-0.8377017974853516,-9.617929458618164
1745736495.685289,0.008293390274047852,-0.014011962339282036,-0.2650243937969208,0.49594607949256897,-0.7303582429885864,-9.733773231506348
1745736495.7157881,0.03025326132774353,-0.014047779142856598,-0.2688519060611725,0.38647112250328064,-0.7189200520515442,-9.876477241516113
1745736495.7208924,0.009773919358849525,-0.009927733801305294,-0.26601845026016235,0.5039832592010498,-0.8654616475105286,-9.733591079711914
1745736495.7209399,0.018909085541963577,-0.022639911621809006,-0.2674635946750641,0.40751737356185913,-0.707442581653595,-9.717073440551758
1745736495.727799,0.010235303081572056,-0.014291336759924889,-0.2665847837924957,0.42317837476730347,-0.9244478344917297,-9.875823974609375
1745736495.756333,0.018008621409535408,-0.01959526538848877,-0.2674318253993988,0.30505597591400146,-0.5913406610488892,-9.626672744750977
1745736495.7603755,0.0242146048694849,-0.01275026984512806,-0.2652212679386139,0.44592928886413574,-0.88225257396698,-9.66612720489502
1745736495.763036,0.013934428803622723,-0.021012499928474426,-0.2649790644645691,0.38308826088905334,-0.6324156522750854,-9.846921920776367
1745736495.7657237,0.031788673251867294,-0.012559717521071434,-0.2645302414894104,0.41038116812705994,-0.8412359356880188,-9.80836009979248
1745736495.8015687,0.0055852956138551235,-0.02014252543449402,-0.2649034857749939,0.5027170777320862,-0.7640708684921265,-9.538354873657227
1745736495.8045995,0.02315107360482216,-0.015032115392386913,-0.26581671833992004,0.3596535623073578,-0.7817083597183228,-9.69578742980957
1745736495.8046796,0.005757857579737902,-0.016225554049015045,-0.26753202080726624,0.5487955808639526,-0.7182298898696899,-9.842141151428223
1745736495.8073869,0.01145557127892971,-0.01775846816599369,-0.2666162848472595,0.36656251549720764,-0.6622233390808105,-9.933250427246094
1745736495.8122206,0.02047538571059704,-0.015339678153395653,-0.2658022940158844,0.4869720935821533,-0.91998291015625,-9.665382385253906
1745736495.84308,0.00921206921339035,-0.02452457882463932,-0.2650347054004669,0.34081539511680603,-0.54433274269104,-9.644149780273438
1745736495.8471699,0.026210684329271317,-0.013954843394458294,-0.26450246572494507,0.33979853987693787,-0.9610800743103027,-9.847681999206543
1745736495.8506033,0.017177704721689224,-0.01823972724378109,-0.2656633257865906,0.43784013390541077,-0.48864060640335083,-9.64135456085205
1745736495.8539696,0.027727046981453896,-0.018451975658535957,-0.2647242546081543,0.42309314012527466,-0.8523440361022949,-9.691380500793457
1745736495.8862498,0.01256202720105648,-0.018614161759614944,-0.2666214108467102,0.5156479477882385,-0.6869429349899292,-9.715337753295898
1745736495.8889484,0.00268536526709795,-0.025242432951927185,-0.2660931348800659,0.5129935145378113,-0.7190285325050354,-9.814332962036133
1745736495.8907456,0.010483229532837868,-0.027784954756498337,-0.26529842615127563,0.3182676434516907,-0.5938547253608704,-9.80966567993164
1745736495.892169,0.0052145253866910934,-0.026301836594939232,-0.2652025818824768,0.5149763226509094,-0.883445143699646,-9.730840682983398
1745736495.929566,0.005755864083766937,-0.030243057757616043,-0.26534223556518555,0.321170836687088,-0.5904377698898315,-9.749656677246094
1745736495.9343495,-0.0006175562739372253,-0.020381052047014236,-0.26653820276260376,0.4201318323612213,-0.9694183468818665,-9.746891021728516
1745736495.9396112,-0.0006746620056219399,-0.0291074700653553,-0.2707729935646057,0.4608212411403656,-0.5360670685768127,-9.575815200805664
1745736495.9450011,-0.011942089535295963,-0.023670705035328865,-0.26907116174697876,0.35415148735046387,-0.9181855320930481,-9.822683334350586
1745736495.9484415,-0.01004710141569376,-0.0279054157435894,-0.2673169672489166,0.5332494378089905,-0.7460528016090393,-9.840255737304688
1745736495.972471,-0.002909100381657481,-0.027366245165467262,-0.26419687271118164,0.23775872588157654,-0.6973302960395813,-9.875338554382324
1745736495.9747162,-0.0076504601165652275,-0.024308916181325912,-0.26327186822891235,0.3336108326911926,-0.8913213610649109,-9.726045608520508
1745736495.976904,0.006079625803977251,-0.02743867039680481,-0.2570078670978546,0.20490093529224396,-0.5327852964401245,-9.603670120239258
1745736495.9779944,-0.008205839432775974,-0.028364013880491257,-0.25361210107803345,0.13714160025119781,-1.0112813711166382,-9.828801155090332
1745736496.0134563,-0.0039146458730101585,-0.02788214385509491,-0.2536197602748871,0.05002304166555405,-0.3625168800354004,-9.64720344543457
1745736496.0159614,-0.007452941033989191,-0.022125033661723137,-0.25690892338752747,0.17043229937553406,-0.8419507741928101,-9.700654983520508
1745736496.0168986,-0.014731097035109997,-0.034915097057819366,-0.2586631178855896,0.3799806535243988,-0.509651780128479,-9.708877563476562
1745736496.0214741,-0.005961949937045574,-0.032046593725681305,-0.2583865523338318,0.3649964928627014,-0.7149673700332642,-10.063067436218262
1745736496.022529,-0.023127978667616844,-0.0366697683930397,-0.25212451815605164,0.45578432083129883,-1.004534363746643,-9.980484008789062
1745736496.0591106,-0.008441252633929253,-0.03037385269999504,-0.24901044368743896,0.20533797144889832,-0.7858327627182007,-9.532800674438477
1745736496.0614474,-0.0241409782320261,-0.03325128182768822,-0.24212153255939484,0.36370646953582764,-0.9840490221977234,-9.508773803710938
1745736496.0638893,-0.016724729910492897,-0.036361657083034515,-0.24177435040473938,0.22629252076148987,-0.3341515064239502,-9.824369430541992
1745736496.0673804,-2.6757177693070844e-05,-0.023833004757761955,-0.24115796387195587,0.2066206932067871,-0.5487076044082642,-9.993592262268066
1745736496.1017747,-0.0013884244253858924,-0.04133506864309311,-0.2443169802427292,0.23661179840564728,-0.34830665588378906,-9.701379776000977
1745736496.1037776,-0.0330071821808815,-0.04020810127258301,-0.23175068199634552,0.18439382314682007,-0.5716642737388611,-9.806723594665527
1745736496.1050718,-0.001972373342141509,-0.03146059066057205,-0.2317357361316681,0.13214042782783508,-0.6691157817840576,-9.653947830200195
1745736496.1085985,-0.034409746527671814,-0.04070943593978882,-0.23298363387584686,0.2067800760269165,-0.4954649806022644,-9.634065628051758
1745736496.1445575,-0.002934630960226059,-0.03826010599732399,-0.2279069870710373,-0.10796763747930527,-0.7281800508499146,-9.989984512329102
1745736496.1458669,-0.015129643492400646,-0.033329982310533524,-0.2270263433456421,0.12491843849420547,-0.5902335047721863,-9.668953895568848
1745736496.148963,-0.012672114185988903,-0.03575329855084419,-0.22549231350421906,0.13597626984119415,-0.6087976098060608,-9.566011428833008
1745736496.1512895,-0.012706289999186993,-0.03726083040237427,-0.2248225212097168,0.41570591926574707,-0.7497537732124329,-9.791740417480469
1745736496.157405,-0.01414328534156084,-0.0461745448410511,-0.2222178727388382,0.40028151869773865,-0.5578392148017883,-10.07148551940918
1745736496.189498,-0.008892403915524483,-0.03353311866521835,-0.21877717971801758,0.2527773380279541,-0.8839279413223267,-9.987517356872559
1745736496.1918633,-0.025775108486413956,-0.04359860718250275,-0.21631070971488953,0.23852935433387756,-0.7927027940750122,-9.488476753234863
1745736496.1951246,-0.013334803283214569,-0.042337603867053986,-0.21042589843273163,0.06301896274089813,-0.751547634601593,-9.587617874145508
1745736496.2011704,-0.04133668914437294,-0.041426949203014374,-0.2115757167339325,0.213659405708313,-0.6041799783706665,-9.9361572265625
1745736496.2295036,-0.006875849328935146,-0.0418408177793026,-0.2107267826795578,0.06374557316303253,-0.45323196053504944,-9.947378158569336
1745736496.2322977,-0.022962836548686028,-0.03744823485612869,-0.21351930499076843,0.2392350733280182,-0.5396369695663452,-9.58350944519043
1745736496.2372904,-0.019252892583608627,-0.01714443229138851,-0.18565693497657776,0.3357040286064148,-0.9237314462661743,-10.036246299743652
1745736496.2406244,0.00014710128016304225,-0.0177047960460186,-0.18536105751991272,0.2790077328681946,-0.5239107012748718,-9.698406219482422
1745736496.2737737,-0.007123963441699743,-0.009369634091854095,-0.18667694926261902,0.2277638465166092,-0.5784836411476135,-9.601040840148926
1745736496.2784002,-0.020643576979637146,-0.0212874598801136,-0.18795807659626007,0.24377839267253876,-0.7229646444320679,-9.813467025756836
1745736496.2814765,-0.0016656049992889166,-0.008312860503792763,-0.18814824521541595,0.10324198007583618,-0.519342303276062,-9.873275756835938
1745736496.2893543,-0.029274126514792442,-0.005940730683505535,-0.18452753126621246,0.33209228515625,-0.7379241585731506,-9.72010326385498
1745736496.2948744,-0.006602881010621786,-0.011843600310385227,-0.18668797612190247,0.14432072639465332,-0.38753166794776917,-9.615416526794434
1745736496.318527,-0.021132303401827812,-0.005194615572690964,-0.18486623466014862,0.3949798345565796,-0.6981207132339478,-9.866982460021973
1745736496.3212624,-0.013395833782851696,-0.009964054450392723,-0.18541035056114197,0.29574573040008545,-0.2845824062824249,-9.912970542907715
1745736496.3261495,-0.009977308101952076,-0.001851149252615869,-0.1863105744123459,0.3128070831298828,-0.7443296909332275,-9.81062126159668
1745736496.3295505,-0.0010768210049718618,-0.0076396046206355095,-0.18293146789073944,0.34514352679252625,-0.3779631555080414,-9.597576141357422
1745736496.3587925,-0.00500171585008502,-0.005544173531234264,-0.18221119046211243,0.07339317351579666,-0.5705104470252991,-9.898027420043945
1745736496.3620648,-0.0004911510040983558,-0.00563428271561861,-0.1810324639081955,0.3637232780456543,-0.6290284991264343,-9.765768051147461
1745736496.3641307,0.015039466321468353,0.0024875402450561523,-0.18434052169322968,0.10422098636627197,-0.23078933358192444,-9.662531852722168
1745736496.3673098,-0.00734159629791975,-0.0038573159836232662,-0.18631722033023834,0.2820058763027191,-0.7405623197555542,-9.84761905670166
1745736496.40152,0.01690957322716713,-0.005834203213453293,-0.18489770591259003,0.3073747754096985,-0.4426366686820984,-9.765477180480957
1745736496.4058416,0.005042414180934429,0.006656806915998459,-0.1853100061416626,0.21455173194408417,-0.7678314447402954,-9.877111434936523
1745736496.4095583,-0.013464359566569328,-0.005447075702250004,-0.1853809952735901,0.2973822057247162,-0.672410786151886,-9.691385269165039
1745736496.4134426,0.0015205669915303588,0.0033853217028081417,-0.17915861308574677,0.3041314482688904,-0.8093551397323608,-9.632575035095215
1745736496.416942,-0.018239151686429977,-0.0009504359331913292,-0.17522764205932617,0.17151406407356262,-0.7049254775047302,-9.856775283813477
1745736496.4460309,-0.007604597602039576,0.0035231970250606537,-0.17092403769493103,-0.24563486874103546,-0.652299702167511,-9.818971633911133
1745736496.4500878,-0.030118638649582863,0.00531851127743721,-0.1621762365102768,0.4521208703517914,-1.1239022016525269,-9.423295021057129
