timestamp,angular_vel_x,angular_vel_y,angular_vel_z,linear_acc_x,linear_acc_y,linear_acc_z
1745737274.7547755,0.1745128631591797,-0.024335723370313644,0.4473700523376465,1.033652424812317,0.537540078163147,-9.96002197265625
1745737274.7548306,0.15785375237464905,-0.030034329742193222,0.45167821645736694,1.0411990880966187,0.6223815679550171,-9.974225997924805
1745737274.7657032,0.17625050246715546,-0.02664259448647499,0.45557647943496704,0.7407441139221191,0.8524552583694458,-9.8040132522583
1745737274.7927415,0.1472981870174408,-0.036155324429273605,0.45550841093063354,0.8711129426956177,0.6708418130874634,-9.650724411010742
1745737274.7939599,0.18688161671161652,-0.04494764655828476,0.4568086266517639,0.7412660717964172,1.0731546878814697,-9.784570693969727
1745737274.795857,0.16210046410560608,-0.03713785111904144,0.4557621479034424,0.8614946603775024,0.8419172167778015,-10.121101379394531
1745737274.7970812,0.18444696068763733,-0.05525160953402519,0.4534901976585388,0.7229878902435303,1.0285403728485107,-9.870969772338867
1745737274.807685,0.18631426990032196,-0.04492812603712082,0.4543534219264984,0.9045106172561646,0.747193455696106,-9.618680953979492
1745737274.8121989,0.16757285594940186,-0.05964815616607666,0.454195499420166,1.029400110244751,0.7363550662994385,-9.792017936706543
1745737274.8272884,0.18618440628051758,-0.05483122915029526,0.4579857885837555,0.9475147128105164,0.5698598027229309,-10.120946884155273
1745737274.8273516,0.16286930441856384,-0.06202640011906624,0.4598989486694336,1.0610542297363281,0.7055121660232544,-9.77305793762207
1745737274.8278732,0.17915551364421844,-0.06315811723470688,0.45937833189964294,0.801068127155304,0.7666958570480347,-9.599355697631836
1745737274.8279052,0.16107475757598877,-0.06067851930856705,0.4619608521461487,0.8980726003646851,0.7134729027748108,-9.76211929321289
1745737274.830674,0.05402659252285957,-0.08622352033853531,0.47377005219459534,0.758997917175293,0.32860270142555237,-9.822456359863281
1745737274.831852,0.0715625137090683,-0.08371172845363617,0.4747830331325531,0.6597286462783813,0.5391163229942322,-9.765764236450195
1745737274.8346293,0.04442222788929939,-0.07771320641040802,0.474405437707901,0.8070253133773804,0.30285507440567017,-9.734518051147461
1745737274.837612,0.03992181271314621,-0.09257157891988754,0.4726738929748535,0.7005331516265869,0.39382731914520264,-9.815299987792969
1745737274.8376658,0.04707031324505806,-0.08166711032390594,0.4763638973236084,0.8371595144271851,0.34479811787605286,-9.842514991760254
1745737274.8402877,0.025832712650299072,-0.08575677871704102,0.4782015383243561,0.7101539373397827,0.4761722683906555,-9.81041145324707
1745737274.8416865,0.04574919492006302,-0.07882684469223022,0.4776994287967682,0.5415850877761841,0.3947356641292572,-9.69225025177002
1745737274.8431292,0.030534857884049416,-0.08574113994836807,0.478694349527359,0.7143943905830383,0.42955198884010315,-9.587326049804688
1745737274.8464608,0.03782524913549423,-0.07666784524917603,0.4795273244380951,0.5303972959518433,0.5549946427345276,-9.823315620422363
1745737274.8535733,0.03436034172773361,-0.07749640196561813,0.4796227812767029,0.6860190629959106,0.3887403607368469,-9.801910400390625
1745737274.8555915,0.027242451906204224,-0.08050169050693512,0.47792738676071167,0.5059767961502075,0.5488458871841431,-9.72883129119873
1745737274.855657,0.02963581122457981,-0.07170475274324417,0.47735652327537537,0.7111145853996277,0.1731502264738083,-9.669743537902832
1745737274.855709,0.0005234688287600875,-0.07626296579837799,0.47591835260391235,0.7078579664230347,0.5182359218597412,-9.670199394226074
1745737274.856902,0.007344094105064869,-0.07466496527194977,0.475592702627182,0.6334141492843628,0.10329320281744003,-9.93754768371582
1745737274.8600125,-0.012355191633105278,-0.07391472160816193,0.47879257798194885,0.7846125364303589,0.34614381194114685,-9.719826698303223
1745737274.8618276,-0.0128543172031641,-0.06787052750587463,0.4784080386161804,0.5074127316474915,0.360236793756485,-9.757872581481934
1745737274.863533,-0.02416699007153511,-0.07206287235021591,0.4802396893501282,0.706192672252655,0.2736842632293701,-9.639079093933105
1745737274.8675768,-0.011335792951285839,-0.07338317483663559,0.4822908937931061,0.541967511177063,0.6764379739761353,-9.727699279785156
1745737274.8676121,-0.01924099400639534,-0.06065858155488968,0.48115667700767517,0.6543013453483582,0.37187591195106506,-9.968221664428711
1745737274.8706188,-0.006819810718297958,-0.07466675341129303,0.4796241819858551,0.5858882665634155,0.7705568075180054,-9.703033447265625
1745737274.8706696,-0.008968247100710869,-0.06475502252578735,0.47950148582458496,0.5494011640548706,0.31378173828125,-9.752832412719727
1745737274.8725412,-0.01267288625240326,-0.0679977536201477,0.47815704345703125,0.6547182202339172,0.46174994111061096,-9.757299423217773
1745737274.8752942,-0.06842450052499771,-0.05917397886514664,0.4809715151786804,0.559090256690979,0.5611273646354675,-9.747697830200195
1745737274.8770056,-0.04515241086483002,-0.05112265422940254,0.48097556829452515,0.4642024040222168,0.5513476729393005,-9.855813026428223
1745737274.8911858,-0.059734661132097244,-0.056421540677547455,0.48089879751205444,0.6396906971931458,0.4315144121646881,-9.659317970275879
1745737274.8943164,-0.036238908767700195,-0.045968424528837204,0.4810017943382263,0.46014222502708435,0.6857170462608337,-9.655945777893066
1745737274.8943698,-0.06734814494848251,-0.04791165143251419,0.4807220995426178,0.6783396005630493,0.3340182900428772,-9.783543586730957
1745737274.8959107,-0.04295634478330612,-0.054702479392290115,0.4800868034362793,0.5538715124130249,0.5421597361564636,-9.808220863342285
1745737274.9338927,-0.05870286375284195,-0.03748368099331856,0.48003268241882324,0.6869977116584778,0.34837114810943604,-9.793817520141602
1745737274.9349449,-0.07331697642803192,-0.05104465410113335,0.47886306047439575,0.5193473696708679,0.4418942928314209,-9.711041450500488
1745737274.9361084,-0.06333450973033905,-0.04323611781001091,0.4804268777370453,0.550395131111145,0.31902629137039185,-9.725961685180664
1745737274.9388435,-0.0861952006816864,-0.04712015390396118,0.47765427827835083,0.6847612261772156,0.46928781270980835,-9.700726509094238
1745737274.9734666,-0.0766083225607872,-0.038933999836444855,0.4796447157859802,0.45357340574264526,0.48259419202804565,-9.886244773864746
1745737274.9762754,-0.08532198518514633,-0.04399717599153519,0.47948694229125977,0.6900509595870972,0.5011080503463745,-9.727997779846191
1745737274.9789824,-0.07296399772167206,-0.04483515024185181,0.4805854856967926,0.4962226450443268,0.6321607828140259,-9.724531173706055
1745737274.9906087,-0.07916657626628876,-0.031732697039842606,0.479067325592041,0.616965115070343,0.4059964716434479,-9.76411247253418
1745737275.021067,-0.08368043601512909,-0.006325640715658665,0.4740566611289978,0.6032887697219849,0.5508836507797241,-9.715087890625
1745737275.0211108,-0.07992275059223175,-0.01632639393210411,0.47258859872817993,0.504611074924469,0.7299802899360657,-9.780856132507324
1745737275.0217865,-0.0729977935552597,-0.0043208664283156395,0.4704505503177643,0.5806533694267273,0.5867952108383179,-9.801563262939453
1745737275.0240047,-0.09592785686254501,-0.012534151785075665,0.47097843885421753,0.52840656042099,0.6795123219490051,-9.76059627532959
1745737275.0260682,-0.07246820628643036,-0.009089880622923374,0.4700123369693756,0.5079203844070435,0.5716468691825867,-9.674224853515625
1745737275.0608397,-0.09432810544967651,-0.01008441112935543,0.4720441699028015,0.6226769685745239,0.6453527212142944,-9.663076400756836
1745737275.063251,-0.07764939963817596,-0.006339403335005045,0.47277408838272095,0.4595865309238434,0.7479966878890991,-9.821666717529297
1745737275.0651114,-0.08459963649511337,-0.006400120910257101,0.47081542015075684,0.6509912014007568,0.5827436447143555,-9.798391342163086
1745737275.0671787,-0.0742899477481842,-0.009599240496754646,0.4698338508605957,0.4396730065345764,0.9981762170791626,-9.641496658325195
1745737275.1051493,-0.06740278005599976,-0.004517501685768366,0.47187918424606323,0.614886462688446,0.6251590847969055,-9.735391616821289
1745737275.116935,-0.07506395876407623,-0.011998286470770836,0.46717947721481323,0.4837873578071594,0.9517642259597778,-9.798285484313965
1745737275.11699,-0.06195027753710747,-0.003783043473958969,0.46807265281677246,0.46260395646095276,0.5220187306404114,-9.808062553405762
1745737275.1170454,-0.07099847495555878,-0.005135579966008663,0.4672912657260895,0.6302075982093811,0.7899855375289917,-9.459330558776855
1745737275.117106,-0.07409511506557465,-0.004933376796543598,0.46785569190979004,0.4100011885166168,0.6736338138580322,-9.817927360534668
1745737275.15617,-0.07602090388536453,-0.009839411824941635,0.4666384756565094,0.7386330366134644,0.5702669620513916,-9.86058521270752
1745737275.1563222,-0.0679376944899559,-0.0021204142831265926,0.4656147360801697,0.48359784483909607,0.9127486348152161,-9.713761329650879
1745737275.156407,-0.0787055492401123,0.0008822142262943089,0.4669426381587982,0.5604811310768127,0.5118093490600586,-9.677070617675781
1745737275.1564915,-0.06615091860294342,-0.013581039384007454,0.4664885103702545,0.530537486076355,0.8577189445495605,-9.641851425170898
1745737275.1919055,-0.06661606580018997,0.001676624291576445,0.4668051600456238,0.49969473481178284,0.7119580507278442,-9.847126960754395
1745737275.1931603,-0.07108023762702942,-0.007720826659351587,0.4645501971244812,0.5397613644599915,0.8045690655708313,-9.773736953735352
1745737275.197418,-0.055790193378925323,-0.005419084336608648,0.4648703932762146,0.4069964289665222,0.8013560175895691,-9.736380577087402
1745737275.2015622,-0.06716643273830414,-0.007651580963283777,0.4592283368110657,0.6181378364562988,0.8420079946517944,-9.722244262695312
1745737275.2365448,-0.034560251981019974,-0.009086674079298973,0.4553762972354889,0.4116443693637848,0.9582112431526184,-9.733927726745605
1745737275.2377863,-0.058360230177640915,-0.008918548002839088,0.4563351571559906,0.5828031897544861,0.6644712686538696,-9.782925605773926
1745737275.2406182,-0.037823546677827835,-0.01268720906227827,0.45491474866867065,0.482572466135025,0.8779460787773132,-9.733607292175293
1745737275.2464578,-0.050514984875917435,-0.0010889563709497452,0.45309653878211975,0.5666537284851074,0.7004661560058594,-9.670320510864258
1745737275.2814496,-0.05997736379504204,-0.016551217064261436,0.4534371793270111,0.48798179626464844,0.7142034769058228,-9.7598295211792
1745737275.2841806,-0.037625767290592194,-0.0049807168543338776,0.4529443383216858,0.5736502408981323,0.7461689114570618,-9.778789520263672
1745737275.28604,-0.0657956600189209,-0.007538513280451298,0.4530239701271057,0.5949438810348511,0.7368066906929016,-9.775911331176758
1745737275.290709,-0.036686114966869354,-0.009054267778992653,0.45323389768600464,0.42323240637779236,0.8421618342399597,-9.673291206359863
1745737275.2931502,-0.05233447626233101,-0.012617932632565498,0.45176321268081665,0.6377306580543518,0.6713164448738098,-9.70345401763916
1745737275.3214412,-0.04686204716563225,-0.008014107123017311,0.4533294141292572,0.40836843848228455,0.9243310689926147,-9.81690788269043
1745737275.3214965,-0.041149795055389404,-0.004693309776484966,0.4506240785121918,0.5653881430625916,0.6669882535934448,-9.72904109954834
1745737275.3227367,-0.0522928461432457,-0.0169075895100832,0.4504692554473877,0.48239225149154663,0.9145777821540833,-9.695241928100586
1745737275.3251312,-0.033367276191711426,-0.005818295292556286,0.4495086669921875,0.5690094232559204,0.6732162833213806,-9.8242769241333
1745737275.3625548,-0.05584811046719551,-0.015010121278464794,0.44711485505104065,0.5977233648300171,0.9226858019828796,-9.727720260620117
1745737275.365294,-0.023377802222967148,-0.025623183697462082,0.42843347787857056,0.4378369450569153,0.9982309341430664,-9.845624923706055
1745737275.3683722,-0.015794238075613976,-0.011934900656342506,0.4288875460624695,0.524420976638794,0.703245222568512,-9.755021095275879
1745737275.3721497,-0.03653087466955185,-0.025529060512781143,0.4261306822299957,0.5405312776565552,0.886494517326355,-9.588302612304688
1745737275.407317,-0.016083400696516037,-0.022405439987778664,0.42638444900512695,0.5053842067718506,0.6533638834953308,-9.755661964416504
1745737275.4126282,-0.04001595452427864,-0.020037131384015083,0.42504358291625977,0.6580706834793091,0.8154652714729309,-9.832240104675293
1745737275.4163043,-0.026260653510689735,-0.02201186679303646,0.4265827536582947,0.41528528928756714,0.8259032368659973,-9.857576370239258
1745737275.4198735,-0.03174249082803726,-0.024594970047473907,0.42670106887817383,0.6367188692092896,0.743991494178772,-9.586549758911133
1745737275.4213939,-0.022198284044861794,-0.02721821889281273,0.42600470781326294,0.45515504479408264,1.0621751546859741,-9.655092239379883
1745737275.4518344,-0.02555146813392639,-0.018230194225907326,0.42513760924339294,0.5460866689682007,0.7146090865135193,-9.929692268371582
1745737275.4542162,-0.01118291076272726,-0.029490366578102112,0.4231887757778168,0.4941955506801605,1.1505329608917236,-9.733697891235352
1745737275.4563856,-0.0052524833008646965,-0.02220265567302704,0.42244353890419006,0.4216972887516022,0.7014219164848328,-9.700879096984863
1745737275.4591882,-0.009443140588700771,-0.027481069788336754,0.4241178035736084,0.5302944183349609,0.8946634531021118,-9.656915664672852
1745737275.4918373,-0.006074582226574421,-0.020122569054365158,0.42265424132347107,0.39848870038986206,0.830801784992218,-9.796727180480957
1745737275.493779,-0.012310110032558441,-0.029979322105646133,0.4190855026245117,0.645982563495636,0.5850217342376709,-9.708246231079102
1745737275.4974759,-0.007831710390746593,-0.02131016179919243,0.42148542404174805,0.4743715822696686,0.9590226411819458,-9.76179313659668
1745737275.4998434,-0.025297801941633224,-0.02132325805723667,0.420064777135849,0.5429600477218628,0.5023353099822998,-9.858772277832031
1745737275.5437515,-0.01621336117386818,-0.03251021355390549,0.41837137937545776,0.4573892056941986,0.8659982681274414,-9.625327110290527
1745737275.5439143,-0.02168864570558071,-0.019498247653245926,0.4198950231075287,0.5274189710617065,0.65154629945755,-9.6600923538208
1745737275.5439773,-0.03931255638599396,-0.026426469907164574,0.421159029006958,0.4808202385902405,0.7874749302864075,-9.820085525512695
1745737275.5440469,-0.009639265947043896,-0.022749604657292366,0.41815853118896484,0.4365214407444,0.93633633852005,-9.737550735473633
1745737275.5769205,-0.014811962842941284,-0.03014376200735569,0.41104286909103394,0.6357213258743286,0.8217599987983704,-9.821311950683594
1745737275.5806258,0.00027311951271258295,-0.028289448469877243,0.41230687499046326,0.3888382017612457,0.9552497863769531,-9.898740768432617
1745737275.5831153,-0.004674001596868038,-0.019840920343995094,0.4121938645839691,0.47918957471847534,0.7011041045188904,-9.660890579223633
1745737275.583974,-0.015498051419854164,-0.03335007652640343,0.41018638014793396,0.427419513463974,0.8615778684616089,-9.5344877243042
1745737275.621269,0.0062567307613790035,-0.024204367771744728,0.4120855927467346,0.5307349562644958,0.7427167892456055,-9.790559768676758
1745737275.625606,-0.01958288811147213,-0.027631264179944992,0.4095742106437683,0.5611024498939514,0.9279299974441528,-9.97554874420166
1745737275.631079,0.005769150797277689,-0.028488000854849815,0.40649494528770447,0.3673495352268219,0.8572185635566711,-9.815016746520996
1745737275.6367333,-0.008554716594517231,-0.028127942234277725,0.4089198112487793,0.5577663779258728,0.7262217402458191,-9.446965217590332
1745737275.6433005,-0.002441381337121129,-0.0250554122030735,0.4090510308742523,0.43048912286758423,0.8858250379562378,-9.663179397583008
1745737275.6679873,-0.009406251832842827,-0.023618321865797043,0.41026100516319275,0.5600752234458923,0.5627644658088684,-10.012870788574219
1745737275.6719675,0.0002940584090538323,-0.03223293274641037,0.40829381346702576,0.4464898705482483,1.0856043100357056,-9.703699111938477
1745737275.67377,-0.0012354354839771986,-0.021836236119270325,0.4079445004463196,0.5108715295791626,0.6681603193283081,-9.661625862121582
1745737275.6760068,-0.008414676412940025,-0.03336747735738754,0.40631240606307983,0.49328142404556274,0.993120014667511,-9.764909744262695
1745737275.710237,-0.0011162031441926956,-0.023138299584388733,0.40441012382507324,0.4028916358947754,0.740020751953125,-9.880289077758789
1745737275.710387,-0.004783825017511845,-0.03038192354142666,0.4036537706851959,0.5965527892112732,0.747451663017273,-9.566518783569336
1745737275.716139,0.009170221164822578,-0.024718794971704483,0.3951815962791443,0.4889448285102844,0.6706839799880981,-9.69604778289795
1745737275.7211313,0.0041710445657372475,-0.03264746814966202,0.3958946764469147,0.38829505443573,1.0367932319641113,-9.641797065734863
1745737275.7482104,0.014307466335594654,-0.02466975338757038,0.39581313729286194,0.4390866756439209,0.6012328267097473,-9.871843338012695
1745737275.7502086,0.010987612418830395,-0.029251495376229286,0.39306554198265076,0.5679823756217957,0.922765851020813,-9.667695999145508
1745737275.7524855,0.007286594249308109,-0.02472977712750435,0.3955313265323639,0.3529382348060608,0.7733052372932434,-9.840791702270508
1745737275.755225,0.0008249465608969331,-0.0348786935210228,0.39183148741722107,0.6431070566177368,0.6740055680274963,-9.740579605102539
1745737275.7566786,0.009832602925598621,-0.025815676897764206,0.3926004469394684,0.37827420234680176,0.9538129568099976,-9.735527038574219
1745737275.794559,-0.0045507242903113365,-0.023830149322748184,0.3921321630477905,0.5323432683944702,0.5379265546798706,-9.764444351196289
1745737275.7991655,0.00816068984568119,-0.03464491665363312,0.3918277323246002,0.41069021821022034,0.8890460729598999,-9.700657844543457
1745737275.8088794,0.0014440870145335793,-0.021007707342505455,0.39421260356903076,0.46184858679771423,0.6910490393638611,-9.738455772399902
1745737275.8090074,0.0030284076929092407,-0.03186614066362381,0.3925167918205261,0.4832420349121094,0.8697468042373657,-9.714166641235352
1745737275.8363283,0.01568203791975975,-0.02530147135257721,0.392805278301239,0.3974538743495941,0.8411585688591003,-9.852428436279297
1745737275.8403401,-0.002151619177311659,-0.030267199501395226,0.3905743658542633,0.5760260820388794,0.677597165107727,-9.793339729309082
1745737275.8447533,0.02220575138926506,-0.02763649821281433,0.391329288482666,0.35427531599998474,0.9742233157157898,-9.605749130249023
1745737275.8448234,-0.009111909195780754,-0.02670878730714321,0.38938647508621216,0.5037485361099243,0.5210361480712891,-9.752523422241211
1745737275.848475,0.012278961017727852,-0.033049244433641434,0.391486257314682,0.4344877600669861,0.8762794733047485,-9.813542366027832
1745737275.881154,0.002174993511289358,-0.020718520507216454,0.3898378610610962,0.5280923843383789,0.5925362706184387,-9.769121170043945
1745737275.8831642,-0.004582212306559086,-0.030858203768730164,0.39107370376586914,0.43812283873558044,0.8285792469978333,-9.656521797180176
1745737275.8863645,0.01328367181122303,-0.026248130947351456,0.3933205008506775,0.4201425611972809,0.6941176652908325,-9.72680950164795
1745737275.8891275,-0.007867068983614445,-0.028077876195311546,0.3914290964603424,0.5505083799362183,0.8249866366386414,-9.716361999511719
1745737275.9228857,0.020648080855607986,-0.0256003737449646,0.3912062346935272,0.40407103300094604,0.8168203234672546,-9.855191230773926
1745737275.9261796,0.003304123179987073,-0.02184315025806427,0.39028793573379517,0.5223814845085144,0.6744057536125183,-9.669662475585938
1745737275.9267755,0.001109352451749146,-0.03265181556344032,0.38789546489715576,0.34097984433174133,0.9944974780082703,-9.589584350585938
1745737275.9282591,0.01354539580643177,-0.022750740870833397,0.389361709356308,0.5594439506530762,0.6034228801727295,-9.885916709899902
1745737275.9691331,-0.001930438680574298,-0.029789889231324196,0.3864279091358185,0.5112989544868469,1.0006725788116455,-9.833402633666992
1745737275.972712,0.006207209546118975,-0.026150217279791832,0.3849136531352997,0.3845303952693939,0.5474649667739868,-9.802165031433105
1745737275.9727755,-0.005236139986664057,-0.031866881996393204,0.3841415047645569,0.5904620885848999,0.7733047008514404,-9.541901588439941
1745737275.9775758,0.0007079463684931397,-0.023866504430770874,0.3854339122772217,0.36761394143104553,0.7430070638656616,-9.8114652633667
1745737275.9811478,-0.008661707863211632,-0.02685341238975525,0.3874354660511017,0.5300189256668091,0.560394823551178,-9.815999984741211
1745737276.0092247,0.0075463419780135155,-0.03010227158665657,0.3883705139160156,0.3777410686016083,0.8834689855575562,-9.705374717712402
1745737276.010318,-0.005082597024738789,-0.021688630804419518,0.3894719183444977,0.5472330451011658,0.668274998664856,-9.664506912231445
1745737276.0123992,0.005711568985134363,-0.0309150330722332,0.38684648275375366,0.4267478883266449,0.971655547618866,-9.796637535095215
1745737276.0166156,0.009074305184185505,-0.023888176307082176,0.38453471660614014,0.3922422230243683,0.7279044985771179,-9.970904350280762
1745737276.051409,0.002496033441275358,-0.02937566116452217,0.3859548568725586,0.4797751009464264,0.7640689015388489,-9.649103164672852
1745737276.0538616,0.013955955393612385,-0.02181808277964592,0.3851010799407959,0.3528099060058594,0.825847327709198,-9.479546546936035
1745737276.054347,-0.015390679240226746,-0.030334269627928734,0.3856433928012848,0.499777227640152,0.4877486228942871,-9.805957794189453
1745737276.0576224,-0.00466217240318656,-0.023298008367419243,0.38695797324180603,0.44296178221702576,0.5719941854476929,-9.847017288208008
1745737276.0949454,0.0011031629983335733,-0.026823336258530617,0.3840438723564148,0.45419245958328247,0.895965576171875,-9.691216468811035
1745737276.097343,-0.00189104862511158,-0.01804829202592373,0.3841310441493988,0.4022594094276428,0.7988871335983276,-9.707865715026855
1745737276.0999002,-0.011213092133402824,-0.032431721687316895,0.38188910484313965,0.5217482447624207,0.615017294883728,-9.777580261230469
1745737276.108348,0.010273143649101257,-0.02405574545264244,0.3828315734863281,0.4006330072879791,0.8715513348579407,-9.778656005859375
1745737276.1084104,-0.016262982040643692,-0.02156677469611168,0.3849397301673889,0.4998890459537506,0.5305886268615723,-9.774571418762207
1745737276.1393137,0.006827955599874258,-0.027355531230568886,0.38375765085220337,0.2989227771759033,0.8460685014724731,-9.628734588623047
1745737276.1428266,-0.0028800498694181442,-0.01941242814064026,0.386165976524353,0.48047012090682983,0.5993127226829529,-9.710172653198242
1745737276.1463132,-0.010458745062351227,-0.022976109758019447,0.3841787278652191,0.39183586835861206,0.9041447639465332,-9.824646949768066
1745737276.150212,0.01071755401790142,-0.01978645846247673,0.3843197226524353,0.4631050229072571,0.7261009216308594,-9.776695251464844
1745737276.180921,-0.012109088711440563,-0.028763270005583763,0.38303738832473755,0.4428268373012543,0.7626082301139832,-9.728071212768555
1745737276.1860077,0.009663190692663193,-0.017871489748358727,0.37981465458869934,0.34953469038009644,0.639994204044342,-9.822710990905762
1745737276.190096,-0.022378157824277878,-0.019118046388030052,0.3845823109149933,0.5430780649185181,0.6289758682250977,-9.65158748626709
1745737276.1924255,-0.004512612707912922,-0.028635099530220032,0.3829801082611084,0.33741283416748047,0.740502655506134,-9.726225852966309
1745737276.2273946,-0.015080774202942848,-0.01896931603550911,0.38282373547554016,0.5737810134887695,0.6150377988815308,-9.805976867675781
1745737276.2280369,-0.016271371394395828,-0.022185003384947777,0.38212281465530396,0.37147608399391174,0.9040497541427612,-9.875828742980957
1745737276.2317264,-0.005206504371017218,-0.019622202962636948,0.38328564167022705,0.4346544146537781,0.5986497402191162,-9.691838264465332
1745737276.2357147,-0.009634733200073242,-0.028688183054327965,0.3844178318977356,0.48521631956100464,0.8746312260627747,-9.582891464233398
1745737276.239546,-0.0074861557222902775,-0.015653075650334358,0.384329617023468,0.36423951387405396,0.6674165725708008,-9.940131187438965
1745737276.2735586,-0.010936609469354153,-0.023868698626756668,0.3825371265411377,0.506554365158081,0.781465470790863,-9.796289443969727
1745737276.273629,-0.01518486998975277,-0.021321292966604233,0.38048604130744934,0.5009328126907349,0.5723081827163696,-9.765325546264648
1745737276.2737064,-0.007957909256219864,-0.021160989999771118,0.3814464211463928,0.3843879699707031,0.8585414886474609,-9.785135269165039
1745737276.274313,-0.013756481930613518,-0.015884915366768837,0.37974804639816284,0.44197526574134827,0.6198862195014954,-9.734251022338867
1745737276.3105257,-0.021499458700418472,-0.03143300116062164,0.38051146268844604,0.4895232319831848,0.7036459445953369,-9.699203491210938
1745737276.314298,-0.004529726691544056,-0.01788131333887577,0.3788163959980011,0.4394451677799225,0.8155128359794617,-9.857821464538574
1745737276.318397,-0.028945934027433395,-0.025012338533997536,0.3790472149848938,0.5048757791519165,0.6730393171310425,-9.890177726745605
1745737276.3195539,-0.0013941838406026363,-0.02226678654551506,0.3786713480949402,0.2934165596961975,0.8670466542243958,-9.641378402709961
1745737276.3509033,-0.014961784705519676,-0.023076487705111504,0.37744325399398804,0.4903126358985901,0.6073090434074402,-9.588844299316406
1745737276.353066,-0.01534622348845005,-0.023393554612994194,0.3815315067768097,0.32989123463630676,0.8430633544921875,-9.835515975952148
1745737276.3554716,-0.002830600133165717,-0.01920234225690365,0.37868452072143555,0.5044355988502502,0.6234103441238403,-9.83476734161377
1745737276.3564427,-0.01954454928636551,-0.028249625116586685,0.3792155683040619,0.3796483278274536,0.8119902610778809,-9.748960494995117
1745737276.3585603,0.0020372129511088133,-0.018295619636774063,0.379091739654541,0.41683340072631836,0.6260119676589966,-9.740524291992188
1745737276.3979208,-0.028138676658272743,-0.02543511986732483,0.3774411380290985,0.54205721616745,0.7743769288063049,-9.651273727416992
1745737276.4008062,-0.012772506102919579,-0.026167353615164757,0.37700456380844116,0.3328714966773987,0.6268051266670227,-9.892412185668945
1745737276.4033651,-0.028630997985601425,-0.0218774676322937,0.377689003944397,0.5714657306671143,0.6148515343666077,-9.748603820800781
1745737276.4059381,-0.025295734405517578,-0.023001471534371376,0.3775057792663574,0.3200428783893585,0.7962146997451782,-9.731779098510742
1745737276.4387496,-0.03300116956233978,-0.0258136298507452,0.37500080466270447,0.4135856032371521,0.8248451352119446,-9.740861892700195
1745737276.4430172,-0.01072340365499258,-0.026494374498724937,0.37391331791877747,0.3637118935585022,0.5685177445411682,-9.607531547546387
1745737276.445147,-0.03305774927139282,-0.023207584396004677,0.3756254315376282,0.5427378416061401,0.7637866735458374,-9.688573837280273
1745737276.4473596,-0.022072020918130875,-0.022058680653572083,0.3752228617668152,0.2853454351425171,0.7478243112564087,-9.985162734985352
1745737276.4818742,-0.022109972313046455,-0.024002261459827423,0.37768232822418213,0.5237538814544678,0.5752902030944824,-9.65534782409668
1745737276.4860013,-0.017834533005952835,-0.024513807147741318,0.3767607808113098,0.3318479061126709,0.9705546498298645,-9.523286819458008
1745737276.4899952,-0.027630234137177467,-0.016985241323709488,0.3786267638206482,0.4220241606235504,0.532645583152771,-9.883230209350586
1745737276.493787,-0.01623852737247944,-0.029995238408446312,0.3769824802875519,0.4349742531776428,1.0590543746948242,-9.798761367797852
1745737276.4975915,-0.011769774369895458,-0.01805524341762066,0.37551620602607727,0.40808233618736267,0.6911582350730896,-9.7941312789917
1745737276.5237327,-0.01983930915594101,-0.0264347642660141,0.37428945302963257,0.4476092457771301,0.8370333909988403,-9.670038223266602
1745737276.5319552,-0.01707923784852028,-0.019318565726280212,0.373483806848526,0.3014993965625763,0.8019859194755554,-9.728724479675293
1745737276.5319977,-0.02084001526236534,-0.02619260549545288,0.3734126389026642,0.5554879307746887,0.5468443632125854,-9.683805465698242
1745737276.5320334,-0.013638029806315899,-0.02155894972383976,0.37463462352752686,0.3947680592536926,0.9853397607803345,-9.780363082885742
1745737276.5688746,-0.02486414648592472,-0.02039596624672413,0.3747960329055786,0.47051820158958435,0.5309330224990845,-9.910466194152832
1745737276.5719213,-0.01151363831013441,-0.02709253504872322,0.3747674524784088,0.34838932752609253,0.9449699521064758,-9.650111198425293
1745737276.5749624,-0.013330183923244476,-0.017856791615486145,0.3761123716831207,0.41341862082481384,0.6569719314575195,-9.624030113220215
1745737276.5786529,-0.024257007986307144,-0.024615105241537094,0.3763523995876312,0.44702285528182983,0.7894712686538696,-9.759675979614258
1745737276.5790677,-0.001531062414869666,-0.018395397812128067,0.3742842674255371,0.34099069237709045,0.8462465405464172,-9.818354606628418
1745737276.6128612,-0.025912513956427574,-0.025998547673225403,0.3741886019706726,0.47943583130836487,0.6520898342132568,-9.735868453979492
1745737276.615897,-0.0023311800323426723,-0.017383186146616936,0.37665724754333496,0.2905327379703522,0.8527830839157104,-9.713299751281738
1745737276.6181626,-0.03401894122362137,-0.01992788538336754,0.3722463846206665,0.5261815190315247,0.5386970639228821,-9.693172454833984
1745737276.6222758,-0.012923923321068287,-0.01694491133093834,0.3730847239494324,0.4585023522377014,0.6276274919509888,-9.889962196350098
1745737276.6543531,-0.031469978392124176,-0.020841365680098534,0.371058851480484,0.34933942556381226,0.8421516418457031,-9.82283878326416
1745737276.6575015,-0.01396281085908413,-0.018040429800748825,0.3717823028564453,0.42534488439559937,0.47340402007102966,-9.593907356262207
1745737276.6622064,-0.034545883536338806,-0.021692663431167603,0.3730313777923584,0.5454873442649841,0.8789142370223999,-9.619568824768066
1745737276.6649296,-0.025904778391122818,-0.02160339429974556,0.3732404112815857,0.31543198227882385,0.6748046278953552,-10.07402229309082
1745737276.6972013,-0.033421337604522705,-0.02117697335779667,0.37192001938819885,0.4798279404640198,0.6959741711616516,-9.758180618286133
1745737276.7024238,-0.02405998297035694,-0.014648889191448689,0.3732554018497467,0.3300558626651764,0.9781872034072876,-9.415331840515137
1745737276.7125955,-0.03985070809721947,-0.0187001284211874,0.37283068895339966,0.4877457022666931,0.5533811450004578,-9.707612991333008
1745737276.71468,-0.016888093203306198,-0.026216229423880577,0.37214142084121704,0.34780216217041016,1.091796875,-10.002361297607422
1745737276.7191088,-0.02385910414159298,-0.012763956561684608,0.3707050383090973,0.41470322012901306,0.5873194932937622,-9.905206680297852
1745737276.7391555,-0.019782181829214096,-0.020313020795583725,0.3723282217979431,0.37407225370407104,0.9305130839347839,-9.416196823120117
1745737276.7423372,-0.02096228301525116,-0.01678217202425003,0.3727317452430725,0.3838122487068176,0.7182060480117798,-9.627944946289062
1745737276.7442048,-0.024208977818489075,-0.026648079976439476,0.37289029359817505,0.5504535436630249,0.6864328980445862,-9.997314453125
1745737276.7488158,-0.013036280870437622,-0.013249387964606285,0.3697502911090851,0.3705194592475891,0.8999801874160767,-9.986027717590332
1745737276.7840462,-0.03739553689956665,-0.022354217246174812,0.37056612968444824,0.4519970417022705,0.5338925123214722,-9.548895835876465
1745737276.7875168,-0.04218762367963791,-0.03175366297364235,0.36608052253723145,0.4977725148200989,0.6200188994407654,-9.87911605834961
1745737276.7917643,-0.01174918282777071,-0.024416934698820114,0.367134153842926,0.34201207756996155,0.9294528961181641,-9.883915901184082
1745737276.7949495,-0.03680606931447983,-0.01903570629656315,0.366557240486145,0.5352927446365356,0.70283442735672,-9.62185287475586
1745737276.8246627,-0.01943420246243477,-0.028403615579009056,0.36870068311691284,0.2906624674797058,0.9528153538703918,-9.63558578491211
1745737276.8273764,-0.014206561259925365,-0.024183372035622597,0.36784347891807556,0.5098646879196167,0.8329497575759888,-9.736589431762695
1745737276.829453,-0.01912776380777359,-0.029292166233062744,0.36614885926246643,0.4277185797691345,0.9455658197402954,-9.943401336669922
1745737276.8307958,-0.0042643314227461815,-0.018332991749048233,0.3661554157733917,0.3457714021205902,0.8084643483161926,-9.826642990112305
1745737276.833553,-0.028097962960600853,-0.02774609997868538,0.3642439842224121,0.4149245321750641,0.7663334608078003,-9.464821815490723
1745737276.8696008,0.004024331923574209,-0.025779467076063156,0.3659684658050537,0.39651957154273987,0.8649136424064636,-9.615456581115723
1745737276.872261,-0.03003341518342495,-0.023768896237015724,0.366203635931015,0.5891216397285461,0.6758103370666504,-10.051401138305664
1745737276.877298,-0.0058234380558133125,-0.028151920065283775,0.3674663305282593,0.2917986512184143,0.8619607090950012,-9.943317413330078
1745737276.8773882,-0.011253356002271175,-0.020243575796484947,0.3683100938796997,0.4565969407558441,0.638143002986908,-9.426541328430176
1745737276.9130766,-0.01717681810259819,-0.02857690490782261,0.3686945140361786,0.3654311001300812,0.9244959950447083,-9.536035537719727
1745737276.9167032,-0.0074455454014241695,-0.021040821447968483,0.3682042062282562,0.3783753216266632,0.5982343554496765,-10.134860038757324
1745737276.9205139,-0.012720231898128986,-0.027940863743424416,0.36862340569496155,0.3982486128807068,0.9559432864189148,-9.81811237335205
1745737276.921793,-0.0009865708416327834,-0.019195862114429474,0.36842647194862366,0.3149167001247406,0.7106786966323853,-9.51884651184082
1745737276.922968,-0.025483235716819763,-0.027846192941069603,0.3659190535545349,0.4794453978538513,0.7394623756408691,-9.62623405456543
1745737276.9598486,-0.018109392374753952,-0.0281683299690485,0.36712953448295593,0.324842631816864,0.743413507938385,-10.03148365020752
1745737276.9599218,-0.016931625083088875,-0.02322738990187645,0.36662665009498596,0.5659369230270386,0.5948306322097778,-9.80761432647705
1745737276.9610999,-0.03557427227497101,-0.024147313088178635,0.3661476671695709,0.32827141880989075,0.9239199757575989,-9.588247299194336
1745737276.9673107,-0.028103956952691078,-0.028222963213920593,0.3667333722114563,0.43033427000045776,0.5614169836044312,-9.669256210327148
1745737276.9968092,-0.030103687196969986,-0.028050309047102928,0.3674377202987671,0.4169946312904358,1.0559403896331787,-9.776092529296875
1745737277.0002384,-0.011523330584168434,-0.02243630215525627,0.36553728580474854,0.42256802320480347,0.5226798057556152,-9.640024185180664
1745737277.0050519,-0.003033233806490898,-0.030434543266892433,0.3636212646961212,0.3973866105079651,0.9599267840385437,-9.491458892822266
1745737277.008002,-0.02032145857810974,-0.018723690882325172,0.36466503143310547,0.37274056673049927,0.5305622816085815,-10.004669189453125
1745737277.0410852,-0.022958314046263695,-0.028979752212762833,0.3663019835948944,0.46182408928871155,0.7133368253707886,-9.851568222045898
1745737277.0433393,-0.012518365867435932,-0.017921466380357742,0.3677290081977844,0.3310483992099762,0.7804757952690125,-9.56209659576416
1745737277.0444493,-0.04045061022043228,-0.026018336415290833,0.36800849437713623,0.5276938676834106,0.5899796485900879,-9.629922866821289
1745737277.0481474,-0.015831120312213898,-0.02624228596687317,0.36887606978416443,0.32868140935897827,0.8915674090385437,-9.94978141784668
1745737277.0507772,-0.03242785111069679,-0.021005932241678238,0.3681204915046692,0.49440860748291016,0.7350685596466064,-9.811918258666992
1745737277.0847704,-0.018568608909845352,-0.02820241078734398,0.36927786469459534,0.3402896225452423,0.9711872339248657,-9.57811164855957
1745737277.0864093,-0.01812192238867283,-0.020455462858080864,0.36872220039367676,0.3888034224510193,0.7515442371368408,-9.775609016418457
1745737277.087434,-0.0283517949283123,-0.03034575842320919,0.3682851791381836,0.3798670768737793,0.8641694188117981,-9.846588134765625
1745737277.088581,-0.000780500122345984,-0.022056888788938522,0.36600303649902344,0.3775671422481537,0.9134913682937622,-9.67591667175293
1745737277.127996,-0.032315704971551895,-0.02676299773156643,0.3659200668334961,0.46845316886901855,0.8315807580947876,-9.692498207092285
1745737277.1304452,0.0006487760692834854,-0.03001043200492859,0.36781781911849976,0.3337242007255554,0.8589024543762207,-9.855181694030762
1745737277.132873,-0.006301942281424999,-0.017794476822018623,0.3660169541835785,0.493830144405365,0.6288784742355347,-9.699858665466309
1745737277.135939,-0.0011824946850538254,-0.02248760685324669,0.36585742235183716,0.31580907106399536,1.0924856662750244,-9.622702598571777
1745737277.1738825,-1.881159914773889e-05,-0.01709703728556633,0.36587420105934143,0.42753854393959045,0.6172677278518677,-9.90369987487793
1745737277.1837006,-0.004537732806056738,-0.023571213707327843,0.36588940024375916,0.3609600365161896,0.9780282974243164,-9.820502281188965
1745737277.1853268,-4.4932588934898376e-05,-0.013550343923270702,0.36305347084999084,0.35106295347213745,0.6435624361038208,-9.691241264343262
1745737277.1887453,-0.009842763654887676,-0.024242956191301346,0.36361750960350037,0.4791807234287262,0.8334685564041138,-9.539691925048828
1745737277.1919386,-0.007256627082824707,-0.01610647700726986,0.3633538782596588,0.3061804175376892,0.7663061022758484,-9.938085556030273
1745737277.2123756,-0.018632959574460983,-0.02081911638379097,0.364277184009552,0.5349639654159546,0.6008368134498596,-9.852407455444336
1745737277.2203305,-0.007905004546046257,-0.01852070353925228,0.36546045541763306,0.29211604595184326,0.9581387639045715,-9.605859756469727
1745737277.220372,-0.022130724042654037,-0.01512166392058134,0.3661367893218994,0.48248291015625,0.5864967703819275,-9.664978981018066
1745737277.2213888,-0.012209107168018818,-0.024234022945165634,0.36440610885620117,0.3665224611759186,0.955693244934082,-9.860780715942383
1745737277.26392,-0.002696496434509754,-0.01315964013338089,0.36549967527389526,0.39795351028442383,0.8502331972122192,-9.81568431854248
1745737277.264,-0.012578515335917473,-0.02193685993552208,0.3651368319988251,0.3963569402694702,0.8646456599235535,-9.649725914001465
1745737277.2640812,0.0034445852506905794,-0.017571909353137016,0.3636861741542816,0.31671199202537537,0.8680545687675476,-9.78870964050293
1745737277.2661235,-0.018695911392569542,-0.021564405411481857,0.36471354961395264,0.48712071776390076,0.6608268618583679,-9.797189712524414
1745737277.2993882,0.01111532375216484,-0.018349727615714073,0.3632935881614685,0.3535032272338867,0.9488264918327332,-9.660234451293945
1745737277.3025994,-0.025717701762914658,-0.016270117834210396,0.3636187016963959,0.5235472917556763,0.5822176933288574,-9.82825756072998
1745737277.304692,-0.005256973206996918,-0.028633227571845055,0.3628031611442566,0.4153134822845459,0.9266330599784851,-9.814026832580566
1745737277.3068492,-0.00796310044825077,-0.014796057716012001,0.3662016987800598,0.4375178813934326,0.7004209160804749,-9.721390724182129
1745737277.3089478,-0.02121703140437603,-0.02086988277733326,0.3638421893119812,0.40225744247436523,0.8751721382141113,-9.675274848937988
1745737277.3433032,0.0025616760831326246,-0.02004581317305565,0.365032821893692,0.37195882201194763,0.7171056866645813,-9.834390640258789
1745737277.3475852,-0.01901199482381344,-0.02345895953476429,0.36330026388168335,0.47959572076797485,0.9493188858032227,-9.698952674865723
1745737277.3570552,0.0034850016236305237,-0.01943553239107132,0.36575961112976074,0.300504595041275,0.8865411877632141,-9.806222915649414
1745737277.3571248,-0.018050873652100563,-0.028030872344970703,0.3627461791038513,0.390514612197876,0.8992724418640137,-9.89242935180664
1745737277.387656,-0.002337520942091942,-0.02076183445751667,0.36383238434791565,0.41856104135513306,0.6489033102989197,-9.937626838684082
1745737277.3909502,-0.017520394176244736,-0.023425837978720665,0.36496201157569885,0.43397998809814453,0.9044891595840454,-9.567224502563477
1745737277.3958728,-0.0053092604503035545,-0.018554186448454857,0.362941712141037,0.35790014266967773,0.8119993209838867,-9.632623672485352
1745737277.4003317,-0.01750398427248001,-0.02818148396909237,0.36413198709487915,0.48801732063293457,0.7055585980415344,-9.845776557922363
1745737277.4054244,-0.0013259714469313622,-0.02214847505092621,0.3628097176551819,0.3099965453147888,1.0556706190109253,-9.829551696777344
1745737277.428214,-0.009697623550891876,-0.0201228316873312,0.3625708222389221,0.4843219816684723,0.6486645340919495,-9.711164474487305
1745737277.4313102,-0.0036165236961096525,-0.026780536398291588,0.36204856634140015,0.3135632276535034,1.0392091274261475,-9.691398620605469
1745737277.4347725,-0.01059981994330883,-0.02244451642036438,0.3628484606742859,0.45605260133743286,0.5621129870414734,-9.857017517089844
1745737277.4392366,5.499832332134247e-05,-0.02815939113497734,0.36206942796707153,0.48096591234207153,1.0242547988891602,-9.672300338745117
1745737277.4737754,-0.004935300908982754,-0.021033072844147682,0.3611989915370941,0.3383190929889679,0.7139430046081543,-9.879640579223633
1745737277.4751053,-0.011185025796294212,-0.03214656189084053,0.36054500937461853,0.4573560655117035,0.7480146288871765,-9.718213081359863
1745737277.4767864,0.003298390656709671,-0.020113466307520866,0.36230891942977905,0.30012834072113037,0.9029024839401245,-9.66887092590332
1745737277.478571,-0.002374485367909074,-0.023428205400705338,0.3623170554637909,0.30504274368286133,0.8330208659172058,-9.86717700958252
1745737277.5139236,-0.017528610303997993,-0.02162599377334118,0.3621516823768616,0.507911205291748,0.8070416450500488,-9.75340461730957
1745737277.5177598,-0.0026803924702107906,-0.026611100882291794,0.3612528443336487,0.29375970363616943,0.9301668405532837,-9.726037979125977
1745737277.5206912,-0.007100657559931278,-0.02264309674501419,0.36120250821113586,0.4052254557609558,0.7083605527877808,-9.801051139831543
1745737277.5237942,-0.01608136110007763,-0.028656642884016037,0.3612444996833801,0.3707885146141052,0.8504101037979126,-9.803095817565918
1745737277.5270076,0.004775654524564743,-0.02089673839509487,0.3601507544517517,0.4103136956691742,0.7364734411239624,-9.677351951599121
1745737277.5592263,-0.032097917050123215,-0.03044581413269043,0.36069753766059875,0.42287367582321167,0.7850885391235352,-9.776155471801758
1745737277.5628853,-0.001223534345626831,-0.025830114260315895,0.36050233244895935,0.3727709650993347,0.7390788793563843,-9.81025505065918
1745737277.5656996,-0.026798361912369728,-0.026090120896697044,0.3619072437286377,0.5312423706054688,0.7277296185493469,-9.672586441040039
1745737277.5696673,-0.014584498479962349,-0.023799754679203033,0.36230742931365967,0.2940483093261719,0.8689028024673462,-9.742415428161621
1745737277.6050296,-0.018802912905812263,-0.025403205305337906,0.36180806159973145,0.4849030375480652,0.6135374307632446,-9.7979736328125
1745737277.6086917,-0.015376215800642967,-0.02913312055170536,0.3630104064941406,0.3335859179496765,1.1133794784545898,-9.68380069732666
1745737277.6131399,-0.0039933547377586365,-0.01994851790368557,0.3633456826210022,0.421677827835083,0.6755883097648621,-9.768548965454102
1745737277.6220982,-0.016418425366282463,-0.031047021970152855,0.36215728521347046,0.3671936094760895,0.9776590466499329,-9.765009880065918
1745737277.643596,-0.000634880387224257,-0.020626241341233253,0.3609756529331207,0.3335372507572174,0.7419763803482056,-9.801465034484863
1745737277.6470494,-0.009202087298035622,-0.026415279135107994,0.3605611324310303,0.5039222836494446,0.8878162503242493,-9.583503723144531
1745737277.6496105,-0.009343825280666351,-0.024935418739914894,0.3585638105869293,0.2927772104740143,0.8481786847114563,-9.863749504089355
1745737277.6529377,-0.013329312205314636,-0.030314084142446518,0.3576798439025879,0.5555598735809326,0.6277827024459839,-9.869247436523438
1745737277.655925,-0.01032690517604351,-0.02563037909567356,0.35785555839538574,0.2708980143070221,0.9726656675338745,-9.69498348236084
1745737277.6858768,-0.017011361196637154,-0.01987352967262268,0.36017170548439026,0.44164353609085083,0.5207168459892273,-9.604063034057617
1745737277.687252,-0.015981152653694153,-0.031201129779219627,0.3601555824279785,0.3835427463054657,0.9025309681892395,-9.701384544372559
1745737277.6894639,-0.008953754790127277,-0.022039005532860756,0.3598402142524719,0.37920552492141724,0.7480279803276062,-9.926446914672852
1745737277.6923714,-0.016105197370052338,-0.02823842503130436,0.36085274815559387,0.4635693430900574,0.8808929324150085,-9.783437728881836
1745737277.7287002,0.002082228660583496,-0.03809521347284317,0.34946364164352417,0.12525323033332825,1.0852127075195312,-9.915887832641602
1745737277.731214,0.01069938950240612,-0.02458544820547104,0.3461070954799652,0.18040473759174347,0.9327699542045593,-9.459294319152832
1745737277.7349217,0.002408338477835059,-0.03694557398557663,0.34065335988998413,0.12774808704853058,1.0116708278656006,-9.577204704284668
1745737277.73652,0.027727743610739708,-0.037208192050457,0.3356742858886719,-0.07991887629032135,0.7666616439819336,-10.13025951385498
1745737277.7395668,0.012732723727822304,-0.031962938606739044,0.33746278285980225,0.13813893496990204,0.5051025152206421,-9.739875793457031
1745737277.7779303,0.02964082360267639,-0.023884069174528122,0.3371390700340271,0.036275528371334076,0.7957237958908081,-9.252076148986816
1745737277.781194,-0.014347118325531483,-0.04009401053190231,0.3341156840324402,0.3045777380466461,0.26344946026802063,-9.72028923034668
1745737277.7857566,0.021486405283212662,-0.0380549430847168,0.3377778232097626,0.22971615195274353,0.5539523363113403,-10.19383430480957
1745737277.790402,-0.03916047140955925,-0.01552179642021656,0.33327430486679077,0.30691277980804443,0.4361630976200104,-9.9690523147583
1745737277.815687,-0.04029740020632744,-0.04705071821808815,0.32982003688812256,0.29628604650497437,0.4327627122402191,-9.336027145385742
1745737277.8190048,-0.04592272639274597,-0.034129075706005096,0.32702022790908813,0.29558858275413513,0.7381989359855652,-9.465791702270508
1745737277.8226006,-0.080838643014431,-0.03781142085790634,0.3258874714374542,0.19352808594703674,0.7453213930130005,-10.307867050170898
1745737277.82471,-0.039506226778030396,-0.035246483981609344,0.3200036883354187,0.18988960981369019,1.144607663154602,-9.82402229309082
1745737277.8608503,-0.013010400347411633,-0.014607459306716919,0.3076193928718567,0.5030990242958069,1.084439992904663,-9.443537712097168
1745737277.8609045,-0.05003577470779419,-0.033043764531612396,0.301829069852829,0.5373570919036865,0.8000885248184204,-9.470300674438477
1745737277.8627832,0.006947212852537632,-0.028010303154587746,0.30576571822166443,0.3685768246650696,1.4219834804534912,-9.944717407226562
1745737277.8645837,-0.002743510063737631,-0.010449325665831566,0.30326393246650696,0.2984957695007324,1.2122442722320557,-10.122945785522461
1745737277.9008667,0.039182618260383606,-0.02807527221739292,0.3040468096733093,0.21562716364860535,1.3479245901107788,-9.487775802612305
1745737277.9030027,0.07862333953380585,-0.011092384345829487,0.3077791631221771,0.4082062244415283,1.1731239557266235,-9.395129203796387
1745737277.9065924,0.0729905515909195,-0.018976973369717598,0.30710312724113464,0.3229207694530487,1.0057425498962402,-10.063445091247559
1745737277.9070582,0.11053746938705444,-0.012958277948200703,0.3104354739189148,0.4029448926448822,0.5638374090194702,-10.071418762207031
1745737277.9098725,0.07923543453216553,-0.002673632698133588,0.31713858246803284,0.48022976517677307,0.43749141693115234,-9.495767593383789
1745737277.944552,0.07533568143844604,-0.015046214684844017,0.32047972083091736,0.3192428648471832,0.352352112531662,-9.532541275024414
1745737277.9472098,0.029370391741394997,-0.009020643308758736,0.3192451596260071,0.44559288024902344,-0.03138565272092819,-9.99171257019043
1745737277.9482915,0.01783250831067562,-0.0030883054714649916,0.3200340270996094,0.273672878742218,0.41777104139328003,-9.94837760925293
1745737277.9508276,-0.03368716314435005,0.0031391154043376446,0.3175399899482727,0.3945678472518921,0.1514112651348114,-9.552180290222168
1745737277.9860094,-0.0447959303855896,-0.017661407589912415,0.3156851828098297,0.38023051619529724,0.5099323987960815,-9.507240295410156
1745737277.9889867,-0.043680645525455475,0.0048181647434830666,0.3180006742477417,0.47159987688064575,0.649172306060791,-10.021252632141113
1745737277.9900203,-0.060182590037584305,-0.001277076080441475,0.32000643014907837,0.3839340806007385,0.8308935165405273,-10.063353538513184
1745737277.9912453,-0.009789482690393925,-0.002070049522444606,0.32528263330459595,0.304243803024292,0.9114958047866821,-9.523270606994629
1745737277.9946127,-0.01090373657643795,0.002502864459529519,0.32976478338241577,0.44769421219825745,1.0856753587722778,-9.421074867248535
1745737278.031398,0.02079791948199272,0.0022499493788927794,0.33145833015441895,0.2559599280357361,1.2400848865509033,-9.977741241455078
1745737278.032458,0.05087769031524658,0.004231308586895466,0.3303828537464142,0.5037328600883484,1.2187000513076782,-9.968917846679688
1745737278.034821,0.05677815526723862,-0.0016941169742494822,0.3260083794593811,0.29222092032432556,1.2195966243743896,-9.725491523742676
1745737278.0361385,0.07615254819393158,0.0076927607879042625,0.32396167516708374,0.3818604350090027,0.7913247346878052,-9.649694442749023
1745737278.07804,-0.00014668740914203227,0.0020714402198791504,0.33501139283180237,0.30692654848098755,0.7134004831314087,-9.729988098144531
1745737278.079311,-0.005962196737527847,0.011188751086592674,0.33517932891845703,0.3597738742828369,0.4717295169830322,-9.830998420715332
1745737278.081416,-0.002370659727603197,-0.0015797186642885208,0.33701634407043457,0.2289762943983078,0.9661824107170105,-9.629972457885742
1745737278.082779,0.007332528475672007,0.009873194620013237,0.335313618183136,0.30478620529174805,0.6198284029960632,-9.741839408874512
1745737278.1177793,-0.00289578246884048,0.00498573761433363,0.33554723858833313,0.40391796827316284,0.8839138746261597,-9.778961181640625
1745737278.1199093,-0.0011077795643359423,0.010473135858774185,0.3337015211582184,0.33107295632362366,0.7609384655952454,-9.813226699829102
1745737278.1231575,-0.0020039486698806286,0.0009222623193636537,0.3328017592430115,0.6001412272453308,0.5901392698287964,-9.65892505645752
1745737278.1243987,0.0011914826463907957,0.007525681052356958,0.3344992399215698,0.5105624198913574,0.96217280626297,-9.766867637634277
1745737278.1589332,-0.001803049468435347,-0.002702014986425638,0.33189862966537476,0.579660952091217,0.7312924265861511,-9.93315601348877
1745737278.1609643,0.013872703537344933,-0.006344596855342388,0.3308519721031189,0.12960299849510193,1.1245603561401367,-9.913076400756836
1745737278.163219,0.03127899020910263,0.001800960162654519,0.32560214400291443,0.1481073796749115,0.9717957377433777,-9.520358085632324
1745737278.1674922,0.037455860525369644,-0.00626300647854805,0.32170936465263367,0.005314081907272339,1.0382580757141113,-9.521974563598633
1745737278.171309,0.06525660306215286,-0.0034720399416983128,0.3160608112812042,-0.12995058298110962,0.934938907623291,-9.916501998901367
1745737278.204051,0.057337772101163864,-0.008076452650129795,0.3152264952659607,0.09697951376438141,0.42239969968795776,-9.811189651489258
1745737278.2073522,0.028233399614691734,-0.03584396466612816,0.28162288665771484,0.27614346146583557,0.46738481521606445,-9.583491325378418
1745737278.2092667,0.011826826259493828,-0.03714526444673538,0.2826320230960846,0.38538646697998047,0.5548003911972046,-10.002035140991211
1745737278.211985,0.03241302818059921,-0.03567176312208176,0.2799884080886841,0.14428098499774933,0.7203719019889832,-10.01229190826416
1745737278.2445748,0.012961769476532936,-0.029502790421247482,0.28186729550361633,0.13486197590827942,0.446573406457901,-9.52842903137207
1745737278.2483032,0.02458777464926243,-0.034481875598430634,0.2821946442127228,-0.022579189389944077,0.5979272723197937,-9.39832592010498
1745737278.2505817,0.006758419331163168,-0.02286866307258606,0.2887164354324341,0.637163519859314,0.18268859386444092,-9.662532806396484
1745737278.2548378,-0.004212758503854275,-0.027569767087697983,0.29092785716056824,0.6163557171821594,0.4772142469882965,-10.22419261932373
1745737278.2582765,-0.01917201839387417,-0.02512226067483425,0.2939246594905853,0.5399823784828186,0.1885461062192917,-9.982870101928711
1745737278.2888553,-0.028889935463666916,-0.026024039834737778,0.30196717381477356,0.8374491930007935,0.4679059386253357,-9.185684204101562
1745737278.2909887,-0.04711436107754707,-0.01974186673760414,0.3024733364582062,0.6707075238227844,0.9153011441230774,-9.715999603271484
1745737278.2945037,-0.050364088267087936,-0.03897308558225632,0.30061104893684387,0.685512363910675,0.5895164608955383,-10.461212158203125
1745737278.2960074,-0.007559572346508503,-0.01901119388639927,0.30032962560653687,0.2639809250831604,1.4770570993423462,-9.802009582519531
1745737278.334317,-0.022308193147182465,-0.015469077043235302,0.29947465658187866,0.2409057915210724,0.9986389875411987,-9.260175704956055
1745737278.3369246,0.03697163611650467,-0.036436136811971664,0.2979561984539032,0.3793545067310333,1.4760959148406982,-9.355114936828613
1745737278.3369915,0.056965332478284836,-0.011159462854266167,0.30130061507225037,0.31889986991882324,0.96937495470047,-10.42583179473877
1745737278.3387709,0.07912726700305939,-0.021262332797050476,0.305114209651947,0.3835533857345581,0.9597377777099609,-10.056118965148926
1745737278.3786197,0.09269167482852936,-0.00891259778290987,0.31005391478538513,0.4164721965789795,0.4818294644355774,-9.177398681640625
1745737278.3808906,0.07234308868646622,-0.023057017475366592,0.31353259086608887,0.5357009172439575,0.28874456882476807,-9.500908851623535
1745737278.3845634,0.060726989060640335,-0.019624825567007065,0.31662043929100037,0.418610155582428,0.17216092348098755,-10.427273750305176
1745737278.389834,0.028754791244864464,-0.006023759488016367,0.3169158399105072,0.46125736832618713,-0.16273032128810883,-10.02412223815918
1745737278.3899274,-0.006333670578896999,-0.009824702516198158,0.31781694293022156,0.2673117220401764,0.3879200518131256,-8.989517211914062
1745737278.4185312,-0.05220846086740494,-0.016665875911712646,0.31735989451408386,0.44186148047447205,-0.11711601912975311,-9.54423999786377
1745737278.4230762,0.021878918632864952,-0.005990269593894482,0.3317210078239441,0.3503568172454834,1.3096818923950195,-10.172436714172363
1745737278.4272752,0.01657973602414131,0.0004252414219081402,0.3304847180843353,0.4049372673034668,0.9212172627449036,-9.213261604309082
1745737278.4309092,0.03826156258583069,-0.010529709979891777,0.3279595971107483,0.34145376086235046,1.1670193672180176,-9.407941818237305
1745737278.4606953,0.03156512230634689,-0.00071030727121979,0.32358577847480774,0.47087621688842773,0.6874605417251587,-10.311773300170898
1745737278.4632633,0.02585401013493538,-0.008929427713155746,0.3226812481880188,0.524873673915863,0.582069993019104,-10.084000587463379
1745737278.4647841,0.027391741052269936,0.003416078630834818,0.3241386115550995,0.38351720571517944,0.4514484405517578,-9.375154495239258
1745737278.4694233,-0.02300366573035717,-0.009013684466481209,0.32471364736557007,0.5281842947006226,0.18482384085655212,-9.51693058013916
1745737278.504912,0.000824319024104625,-0.005660290364176035,0.32998788356781006,0.4471959173679352,0.4010698199272156,-10.15956974029541
1745737278.507888,-0.03052983246743679,-5.3566785936709493e-05,0.3339526355266571,0.5493171811103821,0.3209935128688812,-10.037263870239258
1745737278.512183,-0.020833048969507217,-0.00017381366342306137,0.33638718724250793,0.225956991314888,0.6089073419570923,-9.48505687713623
1745737278.5158384,-0.020776214078068733,-0.0011263882042840123,0.3397061228752136,0.3792118430137634,0.5915617942810059,-9.444953918457031
1745737278.5469034,-0.024146027863025665,-0.011072849854826927,0.33661559224128723,0.33471834659576416,0.8234416246414185,-10.043317794799805
1745737278.550105,0.00014227404608391225,0.00600173557177186,0.33745306730270386,0.24949736893177032,0.6529685258865356,-10.152586936950684
1745737278.556336,-0.1228705421090126,-0.052257128059864044,0.20187541842460632,0.9865298271179199,0.7623961567878723,-7.700927734375
1745737278.5594094,-0.03782437741756439,-0.08941058814525604,0.19868336617946625,1.0189317464828491,1.5435693264007568,-10.03573226928711
1745737278.5917292,-0.004765787627547979,-0.06871260702610016,0.19446420669555664,0.43681105971336365,1.8060805797576904,-12.138279914855957
1745737278.5954738,0.1353074461221695,-0.04799933359026909,0.19725915789604187,-0.5464088916778564,1.4777913093566895,-9.956353187561035
1745737278.6023037,0.10193083435297012,-0.0466931089758873,0.20283496379852295,-0.5617836713790894,0.4944522976875305,-7.567862033843994
1745737278.6082358,0.10321386903524399,-0.074948750436306,0.19932325184345245,-0.04588420316576958,0.7492040395736694,-8.983481407165527
1745737278.6331205,0.10269187390804291,-0.04477640986442566,0.17543795704841614,0.19570384919643402,1.3436472415924072,-11.582963943481445
1745737278.6373487,0.1039886623620987,-0.0223978441208601,0.1486654281616211,0.18676431477069855,1.3395894765853882,-10.391217231750488
1745737278.637375,0.10464600473642349,-0.04494795203208923,0.13070978224277496,0.9797981381416321,0.5157204270362854,-8.014631271362305
1745737278.639856,0.034719184041023254,-0.08117474615573883,0.1309908926486969,1.0338894128799438,-0.0406205952167511,-9.855279922485352
1745737278.6421657,0.06131015345454216,-0.05362126976251602,0.1426563560962677,0.3085121214389801,-0.6509734392166138,-12.137633323669434
1745737278.679874,0.027000363916158676,-0.03430533409118652,0.1635746955871582,-0.16773346066474915,-0.3932962119579315,-9.517542839050293
1745737278.6821866,0.03745031729340553,-0.03780931979417801,0.1716056913137436,-0.2958669066429138,0.6142165660858154,-7.23900842666626
1745737278.685995,0.05464129522442818,-0.06093107536435127,0.16225005686283112,0.071156345307827,1.3274682760238647,-9.517282485961914
1745737278.6907256,0.11437128484249115,-0.04376475140452385,0.14125928282737732,-0.21138617396354675,2.0317134857177734,-12.227956771850586
1745737278.7194943,0.1616412103176117,-0.016083216294646263,0.12404511868953705,-0.09738527238368988,0.9002271890640259,-10.327804565429688
1745737278.7233498,0.1301961988210678,-0.05142304301261902,0.1153663769364357,-0.13111229240894318,0.14899809658527374,-7.640157222747803
1745737278.7270408,0.08473914861679077,-0.04500831291079521,0.12293024361133575,0.2077493965625763,-0.6773404479026794,-9.25298023223877
1745737278.7309477,0.03564489260315895,-0.028878584504127502,0.12686358392238617,0.799686074256897,-0.3603716492652893,-11.512659072875977
1745737278.733211,0.04501491039991379,-0.011404125019907951,0.12881629168987274,0.5861237645149231,0.08979557454586029,-10.289381980895996
1745737278.7626631,-0.001373206963762641,-0.03463400900363922,0.12429318577051163,0.971064567565918,0.6009844541549683,-8.161161422729492
1745737278.7654152,0.027478951960802078,-0.05452532693743706,0.11529922485351562,0.4744061529636383,1.2446479797363281,-9.809155464172363
1745737278.7689407,0.19124405086040497,-0.008085569366812706,0.0824912041425705,0.5298170447349548,0.18657700717449188,-8.76040267944336
1745737278.7710662,0.13788025081157684,-0.01796780154109001,0.08257627487182617,0.6072195768356323,-0.5178690552711487,-9.676431655883789
1745737278.805967,0.11431434005498886,-0.00930161401629448,0.08161425590515137,0.25155991315841675,-0.04635530710220337,-10.833422660827637
1745737278.807987,0.08498130738735199,0.01364252157509327,0.07750366628170013,0.20773449540138245,-0.21506023406982422,-10.037485122680664
1745737278.810176,0.05907852575182915,-0.008328069001436234,0.07074190676212311,-0.017285969108343124,0.5329204201698303,-8.60204792022705
1745737278.8124118,0.055600762367248535,0.0010729767382144928,0.06104744225740433,-0.04913745075464249,0.6443969011306763,-9.401451110839844
1745737278.8145828,0.07324308902025223,0.0023973900824785233,0.0528632327914238,0.11838527768850327,0.8885868787765503,-10.715723991394043
1745737278.8487673,0.1108521819114685,0.013865530490875244,0.0491846464574337,0.09969701617956161,0.7732945084571838,-10.360115051269531
1745737278.8509042,0.12807054817676544,0.006726906634867191,0.05262429267168045,0.2613140940666199,0.5054110288619995,-9.171600341796875
1745737278.85269,0.15935930609703064,0.004675759468227625,0.06048770993947983,0.02911439538002014,0.6181289553642273,-9.268366813659668
1745737278.8539877,0.1690988391637802,0.01841888017952442,0.06041932851076126,0.35209786891937256,0.29954734444618225,-10.197977066040039
1745737278.8923237,0.18070149421691895,0.01552080363035202,0.060642994940280914,0.32823216915130615,0.7113831043243408,-10.1102876663208
1745737278.8964882,0.1852809488773346,0.01845313049852848,0.05213239789009094,0.3019414246082306,0.2888233959674835,-9.553129196166992
1745737278.9010434,0.15838047862052917,0.008945172652602196,0.0432264506816864,0.164480060338974,0.5780436396598816,-9.494976997375488
1745737278.9037025,0.15134470164775848,0.05235583707690239,-0.057471632957458496,0.37101373076438904,0.4483604431152344,-9.721254348754883
1745737278.9349968,0.18840131163597107,0.05454422906041145,-0.060204196721315384,0.4679926037788391,0.03678259998559952,-9.696130752563477
1745737278.9371276,0.17316469550132751,0.03586406260728836,-0.06221034377813339,0.5307630896568298,0.36003246903419495,-9.638189315795898
1745737278.9408157,0.20157425105571747,0.05269945412874222,-0.06661926209926605,0.45079106092453003,0.04251161217689514,-9.985769271850586
1745737278.943355,0.18166162073612213,0.04730423167347908,-0.0748945102095604,0.5402470231056213,0.05281567573547363,-9.78165340423584
1745737278.976607,0.1821359097957611,0.04292135685682297,-0.08389506489038467,0.42158976197242737,0.04979097843170166,-9.535968780517578
1745737278.9814205,0.1519629806280136,0.04317241907119751,-0.08530183881521225,0.6069615483283997,-0.46351614594459534,-9.740692138671875
1745737278.984753,0.14605343341827393,0.03783224895596504,-0.08750313520431519,0.4090903401374817,-0.016993636265397072,-9.924190521240234
1745737278.9887657,0.14121678471565247,0.04975743964314461,-0.08864713460206985,0.4948907494544983,-0.40360140800476074,-9.799412727355957
1745737278.9916692,0.12874604761600494,0.03957470878958702,-0.09161291271448135,0.41338372230529785,0.039506010711193085,-9.373690605163574
1745737279.0206904,0.14528357982635498,0.045041751116514206,-0.09469657391309738,0.46643924713134766,0.03037961758673191,-9.713892936706543
1745737279.0244792,0.1435021460056305,0.038069795817136765,-0.09646815061569214,0.5207509398460388,0.0863899439573288,-10.036518096923828
1745737279.0261035,0.1817632019519806,0.04603704437613487,-0.09611921012401581,0.24736888706684113,0.19714999198913574,-9.84321403503418
1745737279.0305066,0.17377512156963348,0.04583221673965454,-0.09726365655660629,0.4594447612762451,-0.18248315155506134,-9.344472885131836
1745737279.0635521,0.18482378125190735,0.032732922583818436,-0.09442107379436493,-0.06471631675958633,0.007467730436474085,-9.666776657104492
1745737279.0658538,0.18507100641727448,0.050846945494413376,-0.08574098348617554,0.012310856953263283,-0.75176602602005,-9.823452949523926
1745737279.0692518,0.11898593604564667,0.019536081701517105,-0.0784311443567276,0.43671005964279175,-0.4890182912349701,-9.620381355285645
1745737279.0695758,0.13403651118278503,0.034941334277391434,-0.07446609437465668,-0.42118802666664124,-0.7644435167312622,-10.390037536621094
1745737279.0719683,0.07035697251558304,0.030949166044592857,-0.07630664855241776,0.15666155517101288,0.05428042262792587,-9.159006118774414
1745737279.1067276,0.05227435380220413,0.03397522121667862,-0.07591839134693146,0.5242654085159302,-0.48377496004104614,-9.37904167175293
1745737279.109798,0.06920279562473297,-0.010679805651307106,-0.0762256309390068,0.7977217435836792,0.24495510756969452,-10.159551620483398
1745737279.1114855,0.1041591614484787,-0.026278594508767128,-0.03316233307123184,0.7109917998313904,-0.9107406735420227,-10.205635070800781
1745737279.1500196,0.07556299865245819,0.0034734338987618685,-0.028280815109610558,0.458746999502182,-0.6563835144042969,-11.491891860961914
1745737279.1522758,0.024078110232949257,0.01952679641544819,-0.019303075969219208,0.2973093092441559,-1.1160081624984741,-9.290616989135742
1745737279.154076,0.005561599973589182,0.011750690639019012,3.7861987948417664e-05,0.8571285009384155,-0.913223922252655,-7.379767417907715
1745737279.157145,-0.07400058209896088,-0.026085790246725082,0.017344197258353233,0.9101503491401672,-0.4059044420719147,-10.00968074798584
1745737279.1584249,0.01235448569059372,0.015289942733943462,0.02654441073536873,1.123382806777954,-0.1250356137752533,-12.0330228805542
1745737279.2052183,-0.012959042564034462,0.010469476692378521,0.03196432814002037,0.524243950843811,0.7784354090690613,-9.847162246704102
1745737279.207954,0.043625183403491974,-0.0108186649158597,0.03473955765366554,0.35186368227005005,0.33614951372146606,-7.880316734313965
1745737279.210893,0.0602727010846138,-0.015875354409217834,0.0401008203625679,0.5317509174346924,0.9006509780883789,-9.403732299804688
1745737279.2144573,0.08753575384616852,0.008438853546977043,0.04114639014005661,0.34404081106185913,0.4562782347202301,-11.580617904663086
1745737279.2354527,0.14552995562553406,0.008901102468371391,0.046987392008304596,0.3800467848777771,0.1143045574426651,-9.877702713012695
1745737279.2389932,0.11163916438817978,-0.0026704592164605856,0.05417245626449585,0.4060598313808441,0.08946599811315536,-8.051129341125488
1745737279.241771,0.1145639643073082,-0.006201454903930426,0.05822182446718216,0.8060423731803894,-0.8025528192520142,-9.704137802124023
1745737279.2456515,0.08222176879644394,-0.0004134681075811386,0.06628857553005219,0.7921503782272339,-0.4111228585243225,-11.323688507080078
1745737279.249005,0.07077653706073761,0.009131974540650845,0.07321123033761978,0.720007061958313,-1.0280392169952393,-10.153676986694336
1745737279.2851562,-0.08143176883459091,-0.07201163470745087,0.15497426688671112,0.006306488066911697,1.7500721216201782,-10.277388572692871
1745737279.2888243,-0.006932026706635952,-0.08082837611436844,0.15340840816497803,-0.17335399985313416,1.2772250175476074,-10.751673698425293
1745737279.2989428,0.040814854204654694,-0.07401259988546371,0.15112590789794922,-0.18699398636817932,-0.18196162581443787,-9.793296813964844
1745737279.2991393,0.03072931244969368,-0.0724518671631813,0.16615621745586395,0.21161624789237976,-0.3625263571739197,-8.567767143249512
1745737279.3217418,-0.04189754277467728,-0.09493856132030487,0.17584633827209473,0.5173456072807312,-0.878354549407959,-10.102445602416992
1745737279.3268626,0.07749040424823761,-0.03382924944162369,0.16928145289421082,-0.48775172233581543,0.4683244824409485,-11.040362358093262
1745737279.3301876,-0.06618770211935043,-0.1119072213768959,0.14097747206687927,1.5370151996612549,0.3601544499397278,-8.139846801757812
1745737279.333733,0.006395232863724232,-0.05318491905927658,0.14061219990253448,0.5847991704940796,-1.1232271194458008,-10.723091125488281
1745737279.3361318,-0.0527629628777504,-0.12354768812656403,0.13041286170482635,-0.3441565930843353,-0.22663669288158417,-10.953959465026855
1745737279.366597,-0.11390338838100433,-0.06786622852087021,0.14309442043304443,-0.10871641337871552,-1.6848024129867554,-9.365159034729004
1745737279.3755064,-0.21794414520263672,-0.0572427399456501,0.1493350863456726,-0.7451454401016235,-1.2410303354263306,-8.524200439453125
1745737279.3755896,-0.08255095779895782,-0.04695303365588188,0.13588036596775055,0.0472136028110981,0.27251777052879333,-9.466936111450195
1745737279.3756733,-0.26182764768600464,-0.1014394760131836,0.11205561459064484,2.181549310684204,1.2732021808624268,-9.951581954956055
1745737279.4094744,-0.01362135075032711,-0.00924672931432724,0.09791510552167892,-0.6006080508232117,0.9061939120292664,-12.392279624938965
1745737279.4118042,-0.12761174142360687,-0.0720469206571579,0.07876333594322205,2.210899829864502,0.8813425302505493,-7.791085243225098
1745737279.4163558,-0.010538024827837944,-0.053653717041015625,0.08444973826408386,0.823004424571991,-0.9446880221366882,-9.543436050415039
1745737279.420442,-0.04987940937280655,-0.062323927879333496,0.08952972292900085,0.28354814648628235,1.1619694232940674,-11.223474502563477
1745737279.4503803,0.005192873068153858,-0.014304126612842083,0.08486668765544891,0.9825425148010254,-0.36474281549453735,-9.959495544433594
1745737279.4547112,0.11070893704891205,-0.0014948465395718813,0.07478860765695572,-0.06624744087457657,2.1187946796417236,-8.360025405883789
1745737279.4631453,-0.049462683498859406,-0.06974346935749054,0.054050933569669724,1.1820865869522095,-0.6225463151931763,-9.469758033752441
1745737279.4637988,0.16377414762973785,-0.012531447224318981,0.03776180371642113,0.2715952694416046,1.0689126253128052,-11.521142959594727
1745737279.4951406,0.06727121770381927,0.033451031893491745,-0.024011846631765366,0.4872005581855774,1.1365830898284912,-10.725163459777832
1745737279.4993043,-0.05356176942586899,0.01159927062690258,-0.031913094222545624,0.5257647633552551,-0.08625030517578125,-8.591464042663574
1745737279.502394,0.04220915585756302,0.009438754990696907,-0.027696270495653152,0.2966732978820801,-0.3572250306606293,-8.782914161682129
1745737279.5057166,-0.02049701288342476,0.037269894033670425,-0.026981431990861893,0.771484375,-0.049842022359371185,-10.607126235961914
1745737279.509954,-0.004715997725725174,0.034111253917217255,-0.028953295201063156,0.8161741495132446,-0.13977952301502228,-11.025238990783691
1745737279.5390663,0.06474939733743668,0.039063192903995514,-0.029869014397263527,0.7883526086807251,0.6421207189559937,-8.968913078308105
1745737279.5417256,0.01572278141975403,0.018215227872133255,-0.03338225930929184,0.43100452423095703,0.6497136950492859,-9.37309741973877
1745737279.5451283,0.1152518019080162,0.0334862656891346,-0.04745609313249588,0.06564925611019135,0.6988429427146912,-10.527628898620605
1745737279.5483184,0.05595133826136589,0.054034389555454254,-0.05738573148846626,0.125014528632164,-0.022658180445432663,-9.996560096740723
1745737279.5797188,0.11729079484939575,0.05221091955900192,-0.06428199261426926,0.0443476065993309,0.22263529896736145,-8.899351119995117
1745737279.5831268,0.07469882816076279,0.04975917190313339,-0.06825635582208633,0.541222870349884,-0.0283042099326849,-9.329411506652832
1745737279.5872161,0.09355614334344864,0.05260337516665459,-0.06798901408910751,0.49638795852661133,-0.3870914876461029,-10.742815971374512
1745737279.5918725,0.07597482949495316,0.0708085298538208,-0.06890270113945007,0.9068230390548706,-0.3782222270965576,-10.277594566345215
1745737279.5959072,0.04594147577881813,0.04895324632525444,-0.07008670270442963,0.6999372243881226,-0.7084634900093079,-9.239653587341309
1745737279.6284163,0.049619149416685104,0.06013522297143936,-0.0719309002161026,0.4513533115386963,-0.18473519384860992,-9.271799087524414
1745737279.629017,0.0872025340795517,0.03966362401843071,-0.12184138596057892,-0.3894273638725281,-0.6854631304740906,-10.263681411743164
1745737279.631705,0.05815700441598892,0.0303812138736248,-0.1274082213640213,-0.16702528297901154,-0.00950822327286005,-8.845059394836426
1745737279.6330698,0.03833078220486641,0.0321081206202507,-0.1347304880619049,0.16831521689891815,-0.3724111020565033,-9.097757339477539
1745737279.6679707,0.02933940291404724,0.005351080559194088,-0.1384134739637375,0.6130013465881348,-0.059542685747146606,-10.285785675048828
1745737279.6707597,0.03221503272652626,0.012499375268816948,-0.13371248543262482,0.41081470251083374,-0.6433852910995483,-10.804323196411133
1745737279.6739476,0.02721499279141426,0.007818566635251045,-0.12275578081607819,0.2627778649330139,-0.575535774230957,-9.507288932800293
1745737279.6767247,0.014163119718432426,0.0014956535305827856,-0.10915464162826538,0.19064900279045105,-0.7886170148849487,-8.683013916015625
1745737279.6811357,0.014414113946259022,-0.0017684667836874723,-0.10019928216934204,0.378025621175766,-0.09089348465204239,-9.614632606506348
1745737279.7114403,0.0341457836329937,-0.010258754715323448,-0.10224324464797974,0.24105696380138397,0.4580379128456116,-10.604218482971191
1745737279.712432,0.08280173689126968,-0.001821107929572463,-0.10475794970989227,0.0970667228102684,0.27077439427375793,-9.904296875
1745737279.715479,0.07188288122415543,-0.02096877247095108,-0.11214085668325424,-0.005783842410892248,0.3356964886188507,-8.932625770568848
1745737279.7165203,0.0805647149682045,-0.023741917684674263,-0.11366770416498184,0.10595254600048065,-0.4697975218296051,-9.600441932678223
1745737279.7521186,0.047649409621953964,-0.019040226936340332,-0.1122913509607315,0.17104224860668182,-0.42351579666137695,-10.281534194946289
1745737279.7550046,0.05666176602244377,-0.011590530164539814,-0.10799281299114227,0.2820356488227844,-0.6469640135765076,-9.73896598815918
1745737279.7580936,0.029628043994307518,-0.02647329308092594,-0.09664154052734375,0.6544026732444763,-0.6813490986824036,-9.006050109863281
1745737279.7624013,0.023541603237390518,-0.03772833198308945,-0.09396746009588242,0.37735986709594727,-0.3963877260684967,-9.800994873046875
1745737279.7954211,0.01576029136776924,-0.03037005104124546,-0.08964771777391434,0.47799164056777954,-0.6507865786552429,-10.475286483764648
1745737279.7987528,0.00827375054359436,-0.036303892731666565,-0.09239727258682251,-0.019376348704099655,-0.0986294150352478,-9.751725196838379
1745737279.801451,0.016679424792528152,-0.029147615656256676,-0.09153150022029877,-0.006783574819564819,-0.3177693486213684,-8.978833198547363
1745737279.8067322,0.005214625038206577,-0.05559433251619339,-0.09031084924936295,0.16368968784809113,0.11188481003046036,-9.419179916381836
1745737279.807075,0.042800359427928925,-0.03933899849653244,-0.09170649945735931,0.049178194254636765,-0.03245959430932999,-10.613521575927734
1745737279.840587,0.02144661173224449,-0.053150713443756104,-0.0756136029958725,0.24849872291088104,0.10183534771203995,-9.771150588989258
1745737279.8431463,0.005143892951309681,-0.0587645061314106,-0.07806964218616486,0.4294535517692566,-0.034754104912281036,-8.937016487121582
1745737279.8453887,0.016533955931663513,-0.07130022346973419,-0.07356172055006027,0.2421170473098755,-0.24596619606018066,-9.903755187988281
1745737279.8484774,0.011559371836483479,-0.0520692840218544,-0.066433846950531,0.49188295006752014,-0.5221362709999084,-10.405591011047363
1745737279.884951,0.008405016735196114,-0.047984201461076736,-0.059388719499111176,0.47099557518959045,-0.3147294521331787,-9.60859203338623
1745737279.8892663,0.017351556569337845,-0.0619732066988945,-0.05374225974082947,0.5725095868110657,-0.3213762938976288,-9.24830436706543
1745737279.890618,-0.0007850354304537177,-0.06644757091999054,-0.05009634047746658,0.531173825263977,-0.06485781073570251,-10.146136283874512
1745737279.8947825,0.03837012127041817,-0.05466219037771225,-0.05199398472905159,0.2618273198604584,0.021162891760468483,-10.510621070861816
1745737279.924124,0.010979857295751572,-0.05510546639561653,-0.05506279319524765,0.24089205265045166,-0.16465173661708832,-9.513684272766113
1745737279.925757,0.03558406978845596,-0.061115920543670654,-0.055233996361494064,0.0536050982773304,-0.14903461933135986,-9.080689430236816
1745737279.9278429,0.013027799315750599,-0.05310932546854019,-0.05117946118116379,0.3086853623390198,-0.4767529368400574,-9.953153610229492
1745737279.9308438,0.012154231779277325,-0.059370964765548706,-0.04743432626128197,0.18571467697620392,-0.3264316916465759,-10.35624885559082
1745737279.9332736,0.010491321794688702,-0.04415670037269592,-0.0445212796330452,0.42844557762145996,-0.605643630027771,-9.683652877807617
1745737279.9694626,-0.005138947628438473,-0.0560421459376812,-0.04272694140672684,0.4541226029396057,-0.29594260454177856,-9.403338432312012
1745737279.9730577,-0.0010952117154374719,-0.0578000470995903,-0.03975876793265343,0.36349183320999146,-0.4968489706516266,-10.10476303100586
1745737279.9755614,0.061291925609111786,0.04182974249124527,-0.1673879325389862,0.3793018162250519,-0.8374393582344055,-9.892766952514648
1745737279.9790165,0.05211636424064636,0.023938605561852455,-0.16646479070186615,0.2616475820541382,-0.09399917721748352,-8.331502914428711
1745737280.0111034,0.04231994226574898,0.02622927352786064,-0.16625043749809265,0.3456804156303406,-0.5785695314407349,-9.703678131103516
1745737280.0145202,0.053756844252347946,0.036326054483652115,-0.1696215569972992,0.5022673010826111,-0.11462607234716415,-10.938754081726074
1745737280.0161107,0.0705968365073204,0.046300433576107025,-0.17305371165275574,0.45002156496047974,-0.11496987193822861,-10.052915573120117
1745737280.0192301,0.06922648102045059,0.027981672435998917,-0.1795281618833542,0.7236678600311279,-0.27367550134658813,-8.837687492370605
1745737280.0210288,0.0674494281411171,0.02727912925183773,-0.1792159378528595,0.4716931879520416,-0.23246607184410095,-9.835131645202637
1745737280.0527458,0.08188914507627487,0.03911789506673813,-0.1796663999557495,0.6184778809547424,-0.5354791879653931,-10.683553695678711
1745737280.0555358,0.06936974823474884,0.03995051234960556,-0.18057069182395935,0.46718940138816833,-0.046189047396183014,-9.709531784057617
1745737280.0584753,0.08521611988544464,0.04216121882200241,-0.18379385769367218,0.5491507649421692,-0.5298309326171875,-8.99079418182373
1745737280.0622387,0.07795464992523193,0.026804164052009583,-0.18650637567043304,0.4587629437446594,0.10904888808727264,-9.677593231201172
1745737280.099877,0.08980807662010193,0.045464903116226196,-0.19106262922286987,0.5022512674331665,-0.35079461336135864,-10.674544334411621
1745737280.1023066,0.10159491002559662,0.0397365540266037,-0.19563326239585876,0.573722243309021,-0.21462103724479675,-9.883459091186523
1745737280.103478,0.10632811486721039,0.03559049218893051,-0.1976996660232544,0.349773645401001,-0.318565309047699,-9.137056350708008
1745737280.1063426,0.09548478573560715,0.037359923124313354,-0.19445614516735077,0.5255729556083679,-0.7557308077812195,-9.580423355102539
1745737280.140238,0.0953277051448822,0.04143141955137253,-0.19432948529720306,0.40219348669052124,-0.3474802076816559,-10.157976150512695
1745737280.1445272,0.0966576486825943,0.04565831646323204,-0.19563502073287964,0.6827856302261353,-0.8567649126052856,-9.796826362609863
1745737280.1468325,0.07437293231487274,0.03854415565729141,-0.19779860973358154,0.5596047639846802,-0.19748391211032867,-9.325546264648438
1745737280.1477902,0.07910200208425522,0.04221659153699875,-0.19987371563911438,0.5010471940040588,-0.6237991452217102,-9.924005508422852
1745737280.1502838,0.0726899728178978,0.03606132045388222,-0.20621009171009064,0.5833903551101685,-0.20958909392356873,-9.953556060791016
1745737280.1868289,0.07441861182451248,0.04648943245410919,-0.20632782578468323,0.48138222098350525,-0.43656405806541443,-9.78117561340332
1745737280.1940837,0.1001485213637352,0.03021974489092827,-0.21929416060447693,0.45055684447288513,-0.4527258276939392,-9.721749305725098
1745737280.198144,0.09888152778148651,0.036848366260528564,-0.22056996822357178,0.6739756464958191,-0.8054871559143066,-9.727729797363281
1745737280.2008584,0.08448489010334015,0.025846589356660843,-0.22331413626670837,0.5415283441543579,-0.22509650886058807,-9.649572372436523
1745737280.2275083,0.07950274646282196,0.03192303329706192,-0.22323036193847656,0.6940004825592041,-1.0212771892547607,-9.977073669433594
1745737280.2297533,0.07972938567399979,0.02303391322493553,-0.22363826632499695,0.6412660479545593,-0.3349050283432007,-9.658422470092773
1745737280.2339027,0.07491699606180191,0.027225691825151443,-0.22273540496826172,0.4817627966403961,-0.7943643927574158,-9.758963584899902
1745737280.2371137,0.06963172554969788,0.01941116899251938,-0.2197757512331009,0.6647001504898071,-0.47659921646118164,-9.489190101623535
1745737280.2688532,0.07966388761997223,0.024353157728910446,-0.2239615023136139,0.44684362411499023,-0.3513203561306,-9.800813674926758
1745737280.2808213,0.08133199065923691,0.01593679003417492,-0.22485962510108948,0.5824072360992432,-0.4404624402523041,-9.851778030395508
1745737280.2836168,0.08733328431844711,0.019424650818109512,-0.22988255321979523,0.4798375964164734,-0.14064252376556396,-9.573030471801758
1745737280.2879393,0.09603428840637207,0.02262856438755989,-0.2320358008146286,0.6533673405647278,-0.6735013723373413,-9.737468719482422
1745737280.2913659,0.0939544290304184,0.007008159067481756,-0.23335127532482147,0.48205167055130005,-0.30988532304763794,-9.722517013549805
1745737280.3126025,0.08742810785770416,0.01650295779109001,-0.2326042652130127,0.6632965207099915,-0.828046441078186,-9.788654327392578
1745737280.3136692,0.08999619632959366,0.014002358540892601,-0.2323899269104004,0.6180008053779602,-0.5470833778381348,-9.659614562988281
1745737280.3152208,0.07808903604745865,0.004253646824508905,-0.23157553374767303,0.5474778413772583,-0.6725370287895203,-9.657390594482422
1745737280.3233583,0.05415719747543335,-0.027485067024827003,-0.2546337842941284,0.4387822151184082,-0.29064297676086426,-9.597590446472168
1745737280.3560789,0.03619753569364548,-0.02322382479906082,-0.25652095675468445,0.6040733456611633,-0.8738940358161926,-9.850866317749023
1745737280.3582275,0.052228689193725586,-0.029988277703523636,-0.2533724904060364,0.5312857031822205,-0.39100152254104614,-9.73367977142334
1745737280.3605402,0.052992284297943115,-0.02288135327398777,-0.25748834013938904,0.4513791501522064,-0.5340651273727417,-9.780138969421387
1745737280.3633285,0.05850400775671005,-0.0293906070291996,-0.25703105330467224,0.5668078660964966,-0.5879012942314148,-9.742532730102539
1745737280.3967195,0.06725629419088364,-0.027715275064110756,-0.2583686411380768,0.37323909997940063,-0.42750829458236694,-9.757012367248535
1745737280.3989189,0.05348633602261543,-0.029015064239501953,-0.2599654793739319,0.6329963207244873,-0.8399950861930847,-9.765655517578125
1745737280.400983,0.053095974028110504,-0.031041249632835388,-0.26160821318626404,0.4016640782356262,-0.5677871704101562,-9.735960006713867
1745737280.4023454,0.03500980883836746,-0.028004083782434464,-0.25919416546821594,0.5781069397926331,-1.0327298641204834,-9.788409233093262
1745737280.404878,0.04455872252583504,-0.03482164815068245,-0.2621315121650696,0.5498892068862915,-0.505544900894165,-9.6255464553833
1745737280.4427958,0.021489139646291733,-0.024696392938494682,-0.26085686683654785,0.5176081657409668,-0.8423207998275757,-9.860913276672363
1745737280.4455247,0.0294673889875412,-0.033955298364162445,-0.2610570788383484,0.5889595746994019,-0.6284568309783936,-9.800016403198242
1745737280.4489357,0.03704296052455902,-0.028844956308603287,-0.26230257749557495,0.3738437294960022,-0.5297219157218933,-9.775496482849121
1745737280.4531813,0.02143096551299095,-0.030316900461912155,-0.26529690623283386,0.5281477570533752,-0.7903499603271484,-9.731436729431152
1745737280.4881163,0.04688718169927597,-0.030601700767874718,-0.26317623257637024,0.33017486333847046,-0.3429456651210785,-9.708051681518555
1745737280.4881651,0.024006644263863564,-0.029118990525603294,-0.26469680666923523,0.5901636481285095,-0.8626291155815125,-9.78863525390625
1745737280.493023,0.043766576796770096,-0.030189329758286476,-0.2641436457633972,0.45771417021751404,-0.393930584192276,-9.728105545043945
1745737280.493344,0.0347142368555069,-0.027944128960371017,-0.2662298381328583,0.5409812927246094,-0.8762243986129761,-9.883292198181152
1745737280.5287488,0.03469474986195564,-0.034808479249477386,-0.2634645104408264,0.5966078042984009,-0.558487057685852,-9.788581848144531
1745737280.531807,0.03382794186472893,-0.02776924893260002,-0.26179948449134827,0.4572955071926117,-0.6589471101760864,-9.819716453552246
1745737280.5376496,0.03497619554400444,-0.026322435587644577,-0.2684917747974396,0.4290963113307953,-0.5360145568847656,-9.701642990112305
1745737280.5401568,-0.0005868218722753227,-0.023628313094377518,-0.27080243825912476,0.4980473518371582,-0.834967315196991,-9.849401473999023
1745737280.570167,0.021678829565644264,-0.027712294831871986,-0.27009809017181396,0.43218928575515747,-0.49661025404930115,-9.842390060424805
1745737280.573309,0.019220346584916115,-0.021580278873443604,-0.2720455527305603,0.42945241928100586,-0.6356053948402405,-9.794734001159668
1745737280.5745718,0.01118507795035839,-0.02721174620091915,-0.27278047800064087,0.5052896738052368,-0.639410138130188,-9.680913925170898
1745737280.5811481,0.035769086331129074,-0.020373651757836342,-0.2712542414665222,0.38011640310287476,-0.5313090085983276,-9.824281692504883
1745737280.619268,0.00985044240951538,-0.02632906660437584,-0.2735960781574249,0.5757501125335693,-0.7867891788482666,-9.858701705932617
1745737280.6241736,0.03825624659657478,-0.019837288185954094,-0.271614134311676,0.3719833493232727,-0.46522873640060425,-9.752008438110352
1745737280.6252184,0.01584789901971817,-0.021877484396100044,-0.27153557538986206,0.5604817867279053,-0.8969211578369141,-9.787551879882812
1745737280.6284611,0.03321491554379463,-0.025929003953933716,-0.2709202170372009,0.4315779209136963,-0.480663925409317,-9.78555679321289
1745737280.6322947,0.01722371205687523,-0.015347147360444069,-0.270979642868042,0.4997270107269287,-0.7667306065559387,-9.878948211669922
1745737280.6569417,0.020511457696557045,-0.02735273167490959,-0.27428120374679565,0.45671921968460083,-0.6749220490455627,-9.751228332519531
1745737280.659322,0.03362322971224785,-0.014379632659256458,-0.2740752100944519,0.3521810472011566,-0.5682003498077393,-9.633390426635742
1745737280.6638994,0.00196582218632102,-0.020243680104613304,-0.2769540846347809,0.5734846591949463,-0.7693886160850525,-9.751334190368652
1745737280.6651719,0.03688757121562958,-0.015196974389255047,-0.27449747920036316,0.39627760648727417,-0.5884420871734619,-9.858808517456055
1745737280.7001348,0.012317619286477566,-0.01701265573501587,-0.28400129079818726,0.4986400604248047,-0.6606183648109436,-9.948010444641113
1745737280.7030756,0.04131215065717697,-0.008482888340950012,-0.2817458212375641,0.44288092851638794,-0.8555082082748413,-9.892923355102539
1745737280.7066615,0.016554253175854683,-0.015932898968458176,-0.2817278802394867,0.5373391509056091,-0.6521483659744263,-9.519153594970703
1745737280.7119076,0.030174126848578453,-0.01612725481390953,-0.28293174505233765,0.37736448645591736,-0.6637495160102844,-9.696691513061523
1745737280.7473314,0.0282615814357996,-0.011506986804306507,-0.282083660364151,0.5280211567878723,-0.6384342312812805,-9.952750205993652
1745737280.747545,0.030275046825408936,-0.01706792786717415,-0.2834818363189697,0.33391880989074707,-0.5166407823562622,-9.815449714660645
1745737280.7476146,0.04340658336877823,-0.008119250647723675,-0.281055748462677,0.476299911737442,-0.7975389957427979,-9.513148307800293
1745737280.7487252,0.03110564313828945,-0.020635273307561874,-0.2821306586265564,0.4544453024864197,-0.5747204422950745,-9.626582145690918
1745737280.751862,0.04733305796980858,-0.012078537605702877,-0.2808886170387268,0.47067880630493164,-0.7861906886100769,-10.021501541137695
1745737280.785992,0.028768759220838547,-0.013968929648399353,-0.28297656774520874,0.5477655529975891,-0.5689095258712769,-9.811726570129395
1745737280.7886648,0.045207004994153976,-0.014111928641796112,-0.28101667761802673,0.37645599246025085,-0.812174916267395,-9.623372077941895
1745737280.7911224,0.03532944992184639,-0.015173269435763359,-0.2811841368675232,0.5301352739334106,-0.6935603618621826,-9.510734558105469
1745737280.7942126,0.029733067378401756,-0.019748898223042488,-0.2818251848220825,0.4470769762992859,-0.6182193756103516,-9.913763046264648
1745737280.8298712,0.042393654584884644,-0.008135564625263214,-0.28228896856307983,0.5398659706115723,-0.8226062059402466,-9.930030822753906
1745737280.8312628,0.028026241809129715,-0.017566807568073273,-0.28149229288101196,0.38695934414863586,-0.38146063685417175,-9.520162582397461
1745737280.8336165,0.04684678837656975,-0.011797758750617504,-0.28386247158050537,0.5274747014045715,-0.9219644665718079,-9.691673278808594
1745737280.8360703,0.03228249400854111,-0.022231992334127426,-0.2820335626602173,0.5063599348068237,-0.5593352317810059,-9.876779556274414
1745737280.8705277,0.0491994209587574,-0.014085007831454277,-0.2813083231449127,0.3907943665981293,-0.8210386037826538,-9.962540626525879
1745737280.873399,0.0283757746219635,-0.015171575360000134,-0.2814200520515442,0.5469648838043213,-0.7306646108627319,-9.55443000793457
1745737280.8769577,0.04094360023736954,-0.018619274720549583,-0.2807329595088959,0.38461294770240784,-0.6575146913528442,-9.54902172088623
1745737280.880297,0.04058326035737991,-0.016402417793869972,-0.2829272150993347,0.6184261441230774,-0.766907274723053,-9.801300048828125
1745737280.9206855,0.056009478867053986,-0.02237013727426529,-0.2619009017944336,-0.309928834438324,-0.9072294235229492,-9.689834594726562
1745737280.9246497,0.002973905997350812,-0.03794342279434204,-0.2521102726459503,0.2093464434146881,-1.56806218624115,-9.725052833557129
1745737280.9285932,-0.0022112345322966576,-0.03176531568169594,-0.24267229437828064,-0.7413659691810608,-0.6341205835342407,-10.16893196105957
1745737280.9339662,-0.03723511844873428,-0.028267893940210342,-0.24595585465431213,-0.29474034905433655,-0.8361045718193054,-9.2813138961792
1745737280.9363046,-0.03261956945061684,-0.02517363429069519,-0.2491374909877777,-0.04209618642926216,-0.5716753005981445,-9.132417678833008
1745737280.9587758,-0.062476567924022675,-0.05698850005865097,-0.25148308277130127,0.5716006755828857,-0.6262413263320923,-10.13952922821045
1745737280.961238,-0.0387294739484787,-0.052056409418582916,-0.23641157150268555,0.30006903409957886,-1.1757022142410278,-10.96992301940918
1745737280.9655864,-0.04690449312329292,-0.053366005420684814,-0.22464604675769806,-0.25286537408828735,-0.4864245355129242,-9.548230171203613
1745737280.9666624,-0.05861971527338028,-0.03318294882774353,-0.21216921508312225,0.2526242733001709,-1.7116539478302002,-8.683021545410156
1745737281.002002,-0.024578722193837166,-0.07180463522672653,-0.20018236339092255,0.02472277358174324,0.48982420563697815,-9.428728103637695
1745737281.0047839,-0.02855338528752327,-0.06133412569761276,-0.2045116126537323,0.33667391538619995,-0.5230498909950256,-11.0964937210083
1745737281.0065446,0.06083964183926582,-0.0469072200357914,-0.20262975990772247,-0.3407209515571594,0.31479611992836,-10.123414993286133
1745737281.009011,-0.00821623019874096,-0.07524202764034271,-0.20685502886772156,-0.2915607988834381,-0.8655679821968079,-8.682561874389648
1745737281.0425692,0.024924999102950096,-0.058741144835948944,-0.20117469131946564,0.15431900322437286,-0.9672052264213562,-9.13763427734375
1745737281.0460339,-0.0467301681637764,-0.07103640586137772,-0.20135398209095,-0.3204910159111023,-0.8561370968818665,-10.836685180664062
1745737281.0468056,-0.11398482322692871,-0.06043229252099991,-0.030738025903701782,-0.6171404719352722,0.252966970205307,-11.016702651977539
1745737281.0480225,-0.11926580965518951,-0.09773439913988113,-0.02986878715455532,-0.2445739507675171,-1.2407366037368774,-8.927282333374023
1745737281.052092,-0.09640613943338394,-0.08623535931110382,-0.028226125985383987,-0.9135793447494507,0.6539629101753235,-8.4135160446167
1745737281.0860703,-0.10469286143779755,-0.02221737429499626,-0.041668567806482315,1.68106210231781,-0.6515987515449524,-9.797430038452148
1745737281.0883167,-0.04665970057249069,-0.08944466710090637,-0.03516656905412674,0.8279604911804199,0.5256023406982422,-11.115618705749512
1745737281.090078,-0.11549463123083115,-0.08507709950208664,-0.0343783013522625,1.104729175567627,-1.4740114212036133,-10.937675476074219
1745737281.092148,-0.003624656703323126,-0.06897790729999542,-0.013733871281147003,-0.29681330919265747,-0.47348183393478394,-9.636658668518066
1745737281.1296072,-0.15486733615398407,-0.05862739682197571,-0.020025597885251045,-0.06387648731470108,-1.123948335647583,-9.010576248168945
1745737281.1320755,-0.0246133916079998,-0.054563384503126144,-0.019825587049126625,-0.6252730488777161,-0.6893361806869507,-9.86052131652832
1745737281.1333485,-0.22431211173534393,-0.08972885459661484,-0.046688493341207504,-0.041898488998413086,2.0777194499969482,-9.059913635253906
1745737281.1351225,-0.011053252033889294,0.052902091294527054,-0.06384126096963882,0.7112132906913757,-1.5669701099395752,-10.503400802612305
1745737281.1385617,-0.025232475250959396,-0.1042662262916565,-0.06210687756538391,-0.8770458102226257,2.245683193206787,-9.228240013122559
1745737281.1730235,-0.11843907833099365,0.024992521852254868,-0.07253333926200867,1.2627485990524292,-3.1672658920288086,-9.938459396362305
1745737281.1762953,-0.009647744707763195,-0.03488803654909134,-0.04858044534921646,-0.2848145365715027,0.022468233481049538,-10.443353652954102
1745737281.1787395,-0.21083268523216248,-0.06491155922412872,-0.03456028550863266,0.8707548379898071,-2.5814783573150635,-10.370501518249512
1745737281.1821015,0.0013976495247334242,0.11023224890232086,-0.033980004489421844,-0.29986152052879333,1.847251296043396,-8.977836608886719
1745737281.2142413,-0.1791190803050995,-0.05401034280657768,-0.07831563800573349,1.5705960988998413,0.09883537143468857,-8.029928207397461
1745737281.2163408,0.08123984187841415,0.0313604474067688,-0.10122454166412354,2.0123186111450195,0.9810498952865601,-10.75627326965332
1745737281.2174938,-0.10812272876501083,-0.004593357443809509,-0.12377778440713882,0.5057665109634399,1.1555043458938599,-12.892133712768555
1745737281.2186227,0.15027788281440735,0.03128546476364136,-0.11681536585092545,0.16012728214263916,-2.023343563079834,-9.776519775390625
1745737281.2197351,-0.03850487992167473,0.057009052485227585,-0.10321719944477081,-0.6248358488082886,0.05990736559033394,-6.263159275054932
1745737281.258791,-0.06479499489068985,-0.0022767598275095224,-0.08323399722576141,0.8379642367362976,-3.4874160289764404,-9.854833602905273
1745737281.2614706,-0.11740176379680634,0.061642520129680634,-0.12154419720172882,0.37406378984451294,-1.9548397064208984,-5.643824577331543
1745737281.2628744,-0.06726096570491791,0.05492282658815384,-0.13711872696876526,0.9367592930793762,2.18682861328125,-8.424650192260742
1745737281.2645822,-0.07137797027826309,0.07878349721431732,-0.17374995350837708,1.0232222080230713,0.7497447729110718,-14.77043342590332
1745737281.3016546,0.09718188643455505,0.08163804560899734,-0.18725797533988953,0.8493310809135437,0.8781493902206421,-11.175583839416504
1745737281.304894,-0.005201938562095165,0.0901450365781784,-0.1900085210800171,-0.39543387293815613,-1.104796290397644,-6.295257568359375
1745737281.3065097,0.031362734735012054,0.04690190404653549,-0.16503362357616425,0.33487531542778015,-1.5990949869155884,-7.772387504577637
1745737281.3087409,-0.04189005121588707,0.10873689502477646,-0.15610657632350922,0.14380860328674316,-0.13476529717445374,-12.395398139953613
1745737281.3451154,0.06750514358282089,0.13498112559318542,-0.1619792878627777,0.7222235798835754,-0.14355167746543884,-11.062124252319336
1745737281.3470407,0.03986209258437157,0.11402766406536102,-0.17629645764827728,0.8873608708381653,1.3748915195465088,-6.817231178283691
1745737281.3492916,0.046964943408966064,0.0626988485455513,-0.19336409866809845,0.8274798393249512,-0.43053388595581055,-9.559532165527344
1745737281.350401,0.08543682098388672,0.08999525755643845,-0.20473599433898926,0.6898423433303833,0.14446482062339783,-12.524274826049805
1745737281.3533492,0.026942318305373192,0.14022719860076904,-0.20297148823738098,-0.2286366969347,-1.455339789390564,-11.023038864135742
1745737281.4014428,0.0678536519408226,0.10681374371051788,-0.19212453067302704,0.2747102379798889,-0.568433403968811,-6.316821098327637
1745737281.403311,0.006273539271205664,0.10063479095697403,-0.18413949012756348,0.36007243394851685,-0.127366304397583,-8.2479887008667
1745737281.4078457,0.08876053988933563,0.04452401399612427,-0.25110703706741333,0.6692909002304077,-0.48467499017715454,-9.88354206085205
1745737281.4078937,0.05874025076627731,0.04462112858891487,-0.2492212951183319,0.7432814836502075,-0.6367635130882263,-9.864426612854004
1745737281.4306793,0.07586441934108734,0.03995254635810852,-0.2519850730895996,0.49754661321640015,-0.5025510787963867,-9.436635971069336
1745737281.4323175,0.06456314027309418,0.03615378960967064,-0.24879190325737,0.5774095058441162,-0.6903573274612427,-9.358049392700195
1745737281.4337528,0.06114868074655533,0.025405755266547203,-0.25122198462486267,0.6237927675247192,-0.3811807930469513,-9.776156425476074
1745737281.435761,0.07329371571540833,0.03629926219582558,-0.25195398926734924,0.600009560585022,-0.5539774894714355,-10.081143379211426
1745737281.4780865,0.0610058419406414,0.021385248750448227,-0.2545461356639862,0.6198762059211731,-0.4223340153694153,-9.593748092651367
1745737281.4805174,0.0931679755449295,0.022946041077375412,-0.25479239225387573,0.6602472066879272,-0.4630780816078186,-9.234588623046875
1745737281.4805732,0.057650286704301834,0.012196294963359833,-0.25474831461906433,0.7363485097885132,-0.5584850907325745,-9.742544174194336
1745737281.4905574,0.08815553039312363,0.010957581922411919,-0.25536036491394043,0.5571004748344421,-0.5491271018981934,-10.186342239379883
1745737281.4948177,0.07573965936899185,0.017319604754447937,-0.2546795606613159,0.6962286233901978,-0.6699172854423523,-9.594217300415039
1745737281.51883,0.06850174069404602,0.003635323839262128,-0.25622284412384033,0.560422420501709,-0.4274701178073883,-9.209927558898926
1745737281.5217118,0.07923095673322678,0.0008195987902581692,-0.2579767107963562,0.6972283720970154,-0.5387821197509766,-9.753806114196777
1745737281.525166,0.0597648024559021,-0.007044064812362194,-0.261164128780365,0.6850441694259644,-0.42501839995384216,-10.109160423278809
1745737281.526717,0.08681973069906235,0.008167917840182781,-0.2618597447872162,0.5534480810165405,-0.5998519062995911,-9.721351623535156
1745737281.5625532,0.05808331444859505,-0.013543847016990185,-0.2618992030620575,0.6642841100692749,-0.6944392919540405,-9.206867218017578
1745737281.5656219,0.07879044860601425,-0.015674667432904243,-0.2589413523674011,0.5076637864112854,-0.6177228689193726,-9.696735382080078
1745737281.5679016,0.054062556475400925,-0.00500700157135725,-0.26059630513191223,0.6661519408226013,-0.6339085698127747,-10.1080961227417
1745737281.5721195,0.07382120192050934,-0.018008839339017868,-0.2599884867668152,0.48996004462242126,-0.4954645037651062,-9.659558296203613
1745737281.6038568,0.07705306261777878,-0.013012384995818138,-0.2606087327003479,0.6394187211990356,-0.5841763615608215,-9.165486335754395
1745737281.6073556,0.054229043424129486,-0.025901010259985924,-0.2634190320968628,0.6913781762123108,-0.46486252546310425,-9.718317985534668
1745737281.6108568,0.08734865486621857,-0.01890009269118309,-0.2614665627479553,0.556815505027771,-0.7396510243415833,-10.294585227966309
1745737281.613176,0.06937196105718613,-0.0366244912147522,-0.2665143311023712,0.6618273854255676,-0.6943564414978027,-9.651348114013672
1745737281.6151946,0.04208388179540634,-0.04247196018695831,-0.2655835747718811,0.5174751281738281,-0.4789960980415344,-10.185592651367188
1745737281.6487598,0.08071814477443695,-0.038851164281368256,-0.26511433720588684,0.504703164100647,-0.6942571997642517,-9.823333740234375
1745737281.6491065,0.05560888722538948,-0.04286012426018715,-0.2667086124420166,0.6511956453323364,-0.4464530944824219,-9.282259941101074
1745737281.6508436,0.06810931861400604,-0.0454888716340065,-0.2655091881752014,0.4042287766933441,-0.5941637754440308,-9.74083137512207
1745737281.6524477,0.07065533101558685,-0.04604446887969971,-0.2693048119544983,0.7014971375465393,-0.5953872203826904,-10.046011924743652
1745737281.69021,0.05789325386285782,-0.04527353495359421,-0.2699970602989197,0.5742496252059937,-0.6107988953590393,-9.911136627197266
1745737281.6932068,0.07006894052028656,-0.044053833931684494,-0.2680886387825012,0.565170407295227,-0.8328984975814819,-9.541897773742676
1745737281.6964774,0.04158765450119972,-0.05858304351568222,-0.26759058237075806,0.5068345665931702,-0.6655396223068237,-9.64973258972168
1745737281.6991951,0.06026475504040718,-0.04376387223601341,-0.2670615613460541,0.5143123865127563,-0.8650105595588684,-9.995543479919434
1745737281.7016604,0.02997775375843048,-0.047561317682266235,-0.2671447992324829,0.5830017328262329,-0.5390315055847168,-9.797388076782227
1745737281.7407062,0.05473126098513603,-0.05444907024502754,-0.268756628036499,0.4361461102962494,-0.6685568690299988,-9.683796882629395
1745737281.740893,0.041754100471735,-0.0530577227473259,-0.26642221212387085,0.5687412023544312,-0.5624203681945801,-9.666083335876465
1745737281.741,0.04508288949728012,-0.05174313858151436,-0.26978152990341187,0.4534284174442291,-0.5703540444374084,-9.996769905090332
1745737281.7448883,0.026825284585356712,-0.03892029449343681,-0.27731212973594666,0.38284844160079956,-0.5972304940223694,-10.062106132507324
1745737281.7810454,0.034537043422460556,-0.03387515991926193,-0.2778804898262024,0.5448005795478821,-0.7787904739379883,-9.970824241638184
1745737281.7837956,0.029963970184326172,-0.039175670593976974,-0.2805236279964447,0.3394588828086853,-0.40539583563804626,-9.642026901245117
1745737281.783865,0.04025548696517944,-0.030939841642975807,-0.2790354788303375,0.4630979597568512,-0.9414172172546387,-9.724472999572754
1745737281.7848532,0.03636001795530319,-0.03586211055517197,-0.2796507477760315,0.4031986594200134,-0.433540403842926,-9.814955711364746
1745737281.8211064,0.037342675030231476,-0.03039868175983429,-0.2785053849220276,0.47600817680358887,-0.9788707494735718,-9.9763765335083
1745737281.821168,0.032049864530563354,-0.030471378937363625,-0.2781639099121094,0.49417024850845337,-0.6603274345397949,-9.686635971069336
1745737281.822805,0.03550552576780319,-0.03269507735967636,-0.2784455716609955,0.38884812593460083,-0.7864423394203186,-9.831470489501953
1745737281.8255992,0.021999647840857506,-0.03076704777777195,-0.27884915471076965,0.6057516932487488,-0.8559548258781433,-9.909666061401367
1745737281.8620667,0.01962508261203766,-0.03035113215446472,-0.28079789876937866,0.372468501329422,-0.5372304916381836,-9.866971969604492
1745737281.8655188,0.01814473792910576,-0.031828831881284714,-0.28059881925582886,0.5363978147506714,-1.0427616834640503,-9.773988723754883
1745737281.8668225,0.016295554116368294,-0.03166757896542549,-0.2813382148742676,0.3571222424507141,-0.45432424545288086,-9.624404907226562
1745737281.8693717,0.011632336303591728,-0.024155285209417343,-0.280158668756485,0.49088653922080994,-0.9861477017402649,-9.877549171447754
1745737281.8724349,0.01980048418045044,-0.02603427693247795,-0.28138500452041626,0.4856015145778656,-0.4718419015407562,-9.769669532775879
1745737281.9078948,0.021059442311525345,-0.023796547204256058,-0.28219759464263916,0.39162129163742065,-0.6468222737312317,-9.814896583557129
1745737281.9118838,0.02876303158700466,-0.025344137102365494,-0.2822610139846802,0.5575206279754639,-0.6828740239143372,-9.729874610900879
1745737281.9155326,0.02934206649661064,-0.026020577177405357,-0.2831495702266693,0.3682849109172821,-0.5467597246170044,-9.854588508605957
1745737281.9178503,0.024148179218173027,-0.02494700625538826,-0.28162136673927307,0.5862263441085815,-0.9574339985847473,-9.805488586425781
1745737281.9483385,0.021458055824041367,-0.024073679000139236,-0.2825703024864197,0.336118221282959,-0.5947162508964539,-9.68603515625
1745737281.9528124,0.019337669014930725,-0.016045991331338882,-0.2832784354686737,0.482717365026474,-0.960820198059082,-9.703163146972656
1745737281.95662,0.017122812569141388,-0.023019252344965935,-0.2821350693702698,0.5359591841697693,-0.4855619966983795,-9.63474178314209
1745737281.961023,0.017223000526428223,-0.01772904209792614,-0.2859818935394287,0.4868074953556061,-0.9311732053756714,-9.771230697631836
1745737281.9950395,0.007905173115432262,-0.020819392055273056,-0.28510385751724243,0.5876513719558716,-0.6825183629989624,-9.811426162719727
1745737282.0024033,0.013210865668952465,-0.013738157227635384,-0.28665363788604736,0.3763531446456909,-0.712583065032959,-9.912996292114258
1745737282.002475,0.00272834999486804,-0.01869185082614422,-0.28735312819480896,0.5712229609489441,-0.9467484354972839,-9.654566764831543
1745737282.0038264,0.012064252980053425,-0.01749219372868538,-0.2869371771812439,0.33784493803977966,-0.4813220500946045,-9.479219436645508
1745737282.0325832,-0.008892117068171501,-0.015559941530227661,-0.2859322428703308,0.6245640516281128,-1.0115115642547607,-9.858304977416992
1745737282.036575,0.013172069564461708,-0.017078310251235962,-0.2904682755470276,0.4180755615234375,-0.4208548665046692,-9.86279296875
1745737282.03988,0.0024151583202183247,-0.011611443012952805,-0.2900557518005371,0.4739290177822113,-0.7739800214767456,-9.729893684387207
1745737282.0441606,0.011167919263243675,-0.018743794411420822,-0.2888879179954529,0.5121387243270874,-0.6129024624824524,-9.596907615661621
1745737282.0462039,0.01345100812613964,-0.01523970253765583,-0.2885173261165619,0.3753420114517212,-0.745843231678009,-9.850390434265137
1745737282.0789468,0.0015866499161347747,-0.018934043124318123,-0.28780776262283325,0.5592373609542847,-0.8203459978103638,-9.80725383758545
1745737282.0827584,0.013896902091801167,-0.012831069529056549,-0.28594136238098145,0.3257969319820404,-0.6839441657066345,-9.639219284057617
1745737282.0859938,-0.004644223488867283,-0.014022154733538628,-0.28873956203460693,0.6009801626205444,-0.913469672203064,-9.584576606750488
1745737282.1013584,0.011031877249479294,-0.0204000286757946,-0.28855207562446594,0.48347797989845276,-0.44550561904907227,-9.761260986328125
1745737282.120798,-0.06551966816186905,-0.05616716295480728,-0.1817815899848938,-0.24511969089508057,-0.7983691096305847,-8.889784812927246
1745737282.124061,-0.06629034131765366,-0.07480460405349731,-0.1764659434556961,0.47474321722984314,-0.471212774515152,-7.794186592102051
1745737282.1264493,-0.0695127621293068,-0.09493996202945709,-0.16972948610782623,0.4170113205909729,-0.9664798974990845,-11.318155288696289
1745737282.127481,-0.0985756516456604,-0.06355062127113342,-0.1630280315876007,-0.24690623581409454,-1.2513905763626099,-11.606908798217773
1745737282.1659381,-0.09954577684402466,-0.027124201878905296,-0.14964400231838226,0.2043212652206421,-1.4037996530532837,-7.757714748382568
1745737282.1672356,-0.14314702153205872,-0.08889197558164597,-0.13993693888187408,0.46815580129623413,-0.13877466320991516,-7.600316047668457
1745737282.1690233,-0.1334213763475418,-0.09255025535821915,-0.14386200904846191,0.3801129460334778,-0.544418454170227,-12.022956848144531
1745737282.1751301,-0.10405895859003067,-0.043155487626791,-0.1460021287202835,0.19646167755126953,-0.16380874812602997,-12.13023567199707
1745737282.1768248,-0.09986366331577301,-0.04924377426505089,-0.14924407005310059,-0.33490222692489624,-0.04924166947603226,-7.805975437164307
1745737282.208096,-0.10626591742038727,-0.0917784720659256,-0.1428157091140747,0.17344999313354492,-0.5975509881973267,-7.18234920501709
1745737282.2108698,-0.10438595712184906,-0.06447076052427292,-0.13375824689865112,0.16884136199951172,-0.3312948942184448,-11.498007774353027
1745737282.2126787,-0.089730404317379,-0.04172321781516075,-0.1300048530101776,0.402790367603302,-0.6398022770881653,-12.357645034790039
1745737282.2156959,-0.07724349945783615,-0.046875812113285065,-0.12290700525045395,0.1835111379623413,-0.24829396605491638,-8.051652908325195
1745737282.2492585,-0.08383927494287491,-0.058883003890514374,-0.11954718828201294,0.3986605405807495,-0.4275546073913574,-7.708285331726074
1745737282.2516513,-0.08930124342441559,-0.07813732326030731,-0.11509404331445694,0.61329185962677,-0.39719754457473755,-11.565203666687012
1745737282.2530816,-0.06716078519821167,-0.04243040084838867,-0.115589939057827,0.0678524449467659,-0.3772512674331665,-12.059161186218262
1745737282.257117,-0.07196338474750519,-0.030796140432357788,-0.11282887309789658,0.014261990785598755,-0.466952383518219,-8.314251899719238
1745737282.2908595,-0.08362720906734467,-0.07048823684453964,-0.10545501857995987,-0.21919023990631104,-0.3826672434806824,-7.652028560638428
1745737282.2921958,-0.09532971680164337,-0.05257761478424072,-0.10308486223220825,0.2663693428039551,-0.7594732046127319,-10.990303993225098
1745737282.2936163,-0.08404351770877838,-0.033198703080415726,-0.10326288640499115,0.16111886501312256,-0.2036632001399994,-11.858009338378906
1745737282.2950275,-0.08157412707805634,-0.029306460171937943,-0.10059700161218643,0.18062719702720642,-0.6848519444465637,-9.014089584350586
1745737282.3354137,-0.13760899007320404,-0.002936203731223941,-0.03995212912559509,0.9651520848274231,-0.13213598728179932,-9.230696678161621
1745737282.3451462,-0.16372281312942505,-0.015918288379907608,-0.03537285700440407,0.643778383731842,-0.28973960876464844,-8.873946189880371
1745737282.3484368,-0.1642187535762787,-0.02810695767402649,-0.02778421901166439,0.7509084343910217,-0.14539837837219238,-10.353750228881836
1745737282.3514354,-0.13745994865894318,0.01262767892330885,-0.0222477950155735,0.463794082403183,0.23958942294120789,-10.758256912231445
1745737282.361046,-0.10306344926357269,0.005252913571894169,-0.01516412477940321,0.3067644238471985,0.2731475830078125,-9.214881896972656
1745737282.3782003,-0.07875314354896545,-0.0062864371575415134,-0.011516844853758812,0.1287051886320114,0.800585925579071,-8.738862991333008
1745737282.3811944,-0.042399823665618896,0.015147745609283447,-0.008028930053114891,0.3460415005683899,-0.0013165101408958435,-10.29275894165039
1745737282.3901062,0.0053872354328632355,0.02093905583024025,-0.0032345205545425415,0.4300256669521332,0.42261165380477905,-10.594598770141602
1745737282.3901732,0.007688827812671661,0.02402723953127861,0.004613678436726332,0.4654630124568939,-0.47244948148727417,-9.592414855957031
1745737282.4203231,-0.00022149943106342107,0.015737073495984077,0.013004939071834087,0.3414430022239685,-0.8515440821647644,-9.186185836791992
1745737282.4215796,-0.02281085215508938,0.03325258567929268,0.025338049978017807,0.24163532257080078,-1.152929425239563,-9.888399124145508
1745737282.4222424,-0.09277815371751785,0.03551248461008072,0.03260750323534012,0.591340959072113,-1.32356858253479,-10.099580764770508
1745737282.422646,-0.11025051772594452,0.03702378273010254,0.03812487795948982,0.42332857847213745,-1.029889464378357,-9.688984870910645
1745737282.423851,-0.17491070926189423,0.03523959964513779,0.04138784483075142,0.4487984776496887,-1.0436277389526367,-9.664770126342773
1745737282.4683068,-0.20759372413158417,0.03693477064371109,0.04113749787211418,0.32091379165649414,-0.5488950610160828,-9.90947151184082
1745737282.4686196,-0.10251804441213608,0.06184127926826477,0.16895805299282074,0.48220333456993103,-0.18794739246368408,-9.851902961730957
1745737282.468724,-0.127600759267807,0.06501986086368561,0.1747451275587082,0.6094880104064941,-0.4877358376979828,-9.915285110473633
1745737282.47187,-0.14171846210956573,0.05540808290243149,0.1797381341457367,0.4715513288974762,-0.13654902577400208,-9.531564712524414
1745737282.50815,-0.14819948375225067,0.05896969512104988,0.18351124227046967,0.5771685838699341,-0.315471887588501,-9.53844165802002
1745737282.5112317,-0.16797003149986267,0.053513266146183014,0.18552549183368683,0.5815063714981079,0.13677489757537842,-9.856439590454102
1745737282.5137322,-0.14455215632915497,0.05633792281150818,0.18597838282585144,0.4140056073665619,0.1194465383887291,-9.96141529083252
1745737282.515293,-0.166449636220932,0.04867018759250641,0.1889415681362152,0.4799066185951233,0.10547307878732681,-9.577800750732422
1745737282.5540562,-0.1366269290447235,0.05758193880319595,0.19034376740455627,0.3100181818008423,0.2868250012397766,-9.507309913635254
1745737282.5541735,-0.1536422222852707,0.05276010185480118,0.19358286261558533,0.5719902515411377,0.10374806821346283,-9.635734558105469
1745737282.5554245,-0.12684142589569092,0.04449933022260666,0.19691655039787292,0.5089006423950195,0.3932207226753235,-9.850507736206055
1745737282.5572612,-0.12064367532730103,0.054024528712034225,0.19911055266857147,0.6559682488441467,0.15111605823040009,-9.891618728637695
1745737282.560697,-0.11741839349269867,0.03956924006342888,0.20234528183937073,0.5150509476661682,0.32547980546951294,-9.619441032409668
1745737282.5966754,-0.10948566347360611,0.04532899335026741,0.20474323630332947,0.5360103845596313,-0.006164231803268194,-9.663785934448242
1745737282.5970712,-0.12041807174682617,0.035825081169605255,0.2091745138168335,0.6305660605430603,0.11498668044805527,-9.713030815124512
1745737282.6024325,-0.1112547367811203,0.044336460530757904,0.21089890599250793,0.38529595732688904,0.06090453267097473,-9.867986679077148
1745737282.6066568,-0.13136589527130127,0.03410119190812111,0.21284718811511993,0.5912606120109558,0.015840817242860794,-9.597909927368164
1745737282.6382098,-0.12692418694496155,0.032305359840393066,0.21799221634864807,0.44271373748779297,0.1604936718940735,-9.654952049255371
1745737282.641595,-0.13327977061271667,0.0365334078669548,0.21650943160057068,0.5965459942817688,-0.018446221947669983,-9.853097915649414
1745737282.644577,-0.14519056677818298,0.025414925068616867,0.21940259635448456,0.5026735663414001,0.23760934174060822,-9.805570602416992
1745737282.6489131,-0.13029389083385468,0.028440352529287338,0.22056451439857483,0.5581868290901184,-0.10187730938196182,-9.660982131958008
1745737282.6802244,-0.14595812559127808,0.024165336042642593,0.22583317756652832,0.5599719285964966,0.2831200659275055,-9.60025405883789
1745737282.6830032,-0.1336345076560974,0.024208951741456985,0.23103216290473938,0.3948914408683777,0.09532018005847931,-9.847831726074219
1745737282.6889582,-0.12476491928100586,0.012957233004271984,0.23888549208641052,0.48570194840431213,0.046752430498600006,-9.654016494750977
1745737282.6890018,-0.12457765638828278,0.00538493599742651,0.2443327158689499,0.6602269411087036,0.22097735106945038,-9.738266944885254
1745737282.6906142,-0.11773785203695297,0.010519791394472122,0.24553029239177704,0.46825164556503296,0.3324165344238281,-9.914762496948242
1745737282.723804,-0.13235262036323547,0.0017593496013432741,0.24692896008491516,0.5820978283882141,0.16261419653892517,-9.763357162475586
1745737282.7266703,-0.11545516550540924,0.001032352214679122,0.2477908581495285,0.3865167498588562,0.38113585114479065,-9.57709789276123
1745737282.7310443,-0.12921909987926483,0.0052634961903095245,0.2508372366428375,0.5566812753677368,0.02340497076511383,-9.664168357849121
1745737282.7352345,-0.12715685367584229,-0.0017225496703758836,0.25266605615615845,0.43273258209228516,0.3460131883621216,-9.839506149291992
1745737282.7648659,-0.12565244734287262,0.002130240900442004,0.25651612877845764,0.5457397699356079,0.20254425704479218,-9.750531196594238
1745737282.7678766,-0.1312422752380371,-0.007064225617796183,0.25766634941101074,0.5888052582740784,0.3266754448413849,-9.687848091125488
1745737282.768936,-0.11801189184188843,-0.003986547701060772,0.2569465637207031,0.45732641220092773,0.405320942401886,-9.870741844177246
1745737282.772085,-0.14443452656269073,-0.010595528408885002,0.25895410776138306,0.610378086566925,0.17327138781547546,-9.786737442016602
1745737282.7764134,-0.11211293935775757,-0.007606912404298782,0.260187566280365,0.4405210018157959,0.42192959785461426,-9.594886779785156
1745737282.8080766,-0.14065280556678772,-0.008282377384603024,0.26435256004333496,0.5797931551933289,0.21809621155261993,-9.735788345336914
1745737282.809302,-0.12146351486444473,-0.017193039879202843,0.26372963190078735,0.4254869818687439,0.5272186398506165,-9.86247444152832
1745737282.81433,-0.07266327738761902,-0.056802354753017426,0.15175335109233856,0.3928322196006775,-0.5374600887298584,-8.728355407714844
1745737282.817864,-0.1250848025083542,-0.12258610874414444,0.1562785804271698,0.46703988313674927,-0.937722384929657,-10.609445571899414
1745737282.856317,-0.16710850596427917,-0.07961741834878922,0.162459135055542,-0.6461772322654724,-0.2359582483768463,-11.485270500183105
1745737282.8575861,-0.15027020871639252,-0.05111401155591011,0.15992362797260284,-0.057951293885707855,0.36412304639816284,-8.358636856079102
1745737282.859848,-0.19340264797210693,-0.09118291735649109,0.15648095309734344,-0.02702644094824791,0.38872870802879333,-8.191385269165039
1745737282.8627179,-0.138837531208992,-0.08718911558389664,0.15184226632118225,0.9262893795967102,1.207289695739746,-10.834539413452148
1745737282.8957047,-0.08620159327983856,-0.09135697036981583,0.14362689852714539,0.22947955131530762,1.8454649448394775,-12.141504287719727
1745737282.8996756,0.0029990137554705143,-0.061751771718263626,0.14124076068401337,-0.3928864896297455,1.1734974384307861,-9.143891334533691
1745737282.904913,-0.0026939488016068935,-0.07277345657348633,0.14896562695503235,0.10058131068944931,0.3928805887699127,-7.24735164642334
1745737282.909007,-0.005910213105380535,-0.10163102298974991,0.1484074890613556,0.12351274490356445,0.9550397992134094,-10.285720825195312
1745737282.9364495,0.021582268178462982,-0.06450892984867096,0.138492614030838,0.2921074330806732,0.5572931170463562,-12.255586624145508
1745737282.9408655,0.02925865724682808,-0.05362730473279953,0.13055595755577087,-0.3574022650718689,1.0584017038345337,-9.342816352844238
1745737282.9452512,0.0012617167085409164,-0.06939902156591415,0.11612917482852936,0.29996752738952637,0.44287529587745667,-7.342283725738525
1745737282.9527302,-0.027960345149040222,-0.10363892465829849,0.1098446398973465,0.6556809544563293,0.19921696186065674,-10.332016944885254
1745737282.9554505,-0.02518806792795658,-0.06466571986675262,0.1118975281715393,-0.04786558821797371,-0.0721515417098999,-12.736802101135254
1745737282.9835584,-0.0338534340262413,-0.047465939074754715,0.11691828817129135,0.0033829151652753353,-0.25901657342910767,-9.261373519897461
1745737282.9884174,-0.050240956246852875,-0.07579503953456879,0.12823787331581116,-0.32608944177627563,0.1562723070383072,-7.001242160797119
1745737282.9926903,-0.05087027698755264,-0.07872490584850311,0.1364704817533493,0.0579601526260376,0.20580919086933136,-10.098928451538086
1745737282.9977775,-0.026826873421669006,-0.06250949949026108,0.13037510216236115,0.07492528110742569,1.1696064472198486,-12.528440475463867
1745737283.0226932,0.015081912279129028,-0.04199853539466858,0.12125339359045029,-0.2631518840789795,0.47536522150039673,-10.097981452941895
1745737283.0258672,-0.013907225802540779,-0.0633482038974762,0.11509375274181366,-0.1956673413515091,0.6506286859512329,-7.0502119064331055
1745737283.029646,0.02929610013961792,-0.051008306443691254,0.10249980539083481,-0.3286931812763214,0.8718467950820923,-7.773339748382568
1745737283.0315142,0.026627635583281517,-0.059857022017240524,0.10586831718683243,-0.22184307873249054,0.721567690372467,-9.249663352966309
1745737283.0730736,0.0658344104886055,-0.03051825799047947,0.10289885103702545,-0.1429913491010666,0.6468113660812378,-11.643049240112305
1745737283.0767992,0.06460234522819519,-0.02278810925781727,0.10123549401760101,0.15220001339912415,0.24344146251678467,-10.284777641296387
1745737283.0794199,0.048486191779375076,-0.034650757908821106,0.100394107401371,-0.012770779430866241,0.2651779353618622,-8.231559753417969
1745737283.0883095,0.021803682669997215,-0.042469318956136703,0.09810669720172882,0.35451069474220276,-0.16058015823364258,-9.410558700561523
1745737283.1101534,-0.005626136902719736,-0.03624890744686127,0.09963209927082062,0.2391892373561859,0.17214778065681458,-11.353940963745117
