timestamp,angular_vel_x,angular_vel_y,angular_vel_z,linear_acc_x,linear_acc_y,linear_acc_z
1745664011.2011106,0.007263251580297947,0.002869312185794115,0.011126958765089512,0.301197350025177,-0.055034339427948,-9.784200668334961
1745664011.2011561,-0.0030889236368238926,-0.005068639758974314,0.010149821639060974,0.3646438419818878,-0.14126792550086975,-9.784686088562012
1745664011.2012231,0.004921575076878071,0.0014793140580877662,0.010990306735038757,0.1994805783033371,0.006598104722797871,-9.790607452392578
1745664011.201258,0.0019015276338905096,-0.0043021091260015965,0.00987716019153595,0.415272057056427,-0.17320947349071503,-9.74671745300293
1745664011.201286,-5.3436029702425e-05,-0.0009812007192522287,0.010171491652727127,0.19013361632823944,0.0036365166306495667,-9.82318115234375
1745664011.241367,0.006821891758590937,0.0012642028741538525,0.010996502824127674,0.40203022956848145,-0.12182565033435822,-9.797323226928711
1745664011.2414799,-0.002670231508091092,-0.00432983273640275,0.009167390875518322,0.27887067198753357,-0.06991856545209885,-9.748641967773438
1745664011.2436328,0.00795726291835308,0.0009107263758778572,0.011186875402927399,0.31369081139564514,-0.07776270806789398,-9.770639419555664
1745664011.2501066,-0.003785066306591034,-0.004449739120900631,0.009847225621342659,0.3474484086036682,-0.12126926332712173,-9.810546875
1745664011.275119,0.0067952596582472324,0.002739186631515622,0.010728037916123867,0.2236100733280182,-0.004195174667984247,-9.789990425109863
1745664011.2770543,-0.0016025243094190955,-0.002436754759401083,0.010675011202692986,0.41980576515197754,-0.1738491952419281,-9.734797477722168
1745664011.2805872,2.4264027160825208e-05,-0.0016465196385979652,0.009469270706176758,0.21593424677848816,0.011232267133891582,-9.797459602355957
1745664011.283812,0.00618156511336565,-2.8972699510632083e-05,0.011583752930164337,0.4076182246208191,-0.15674445033073425,-9.776693344116211
1745664011.2844298,-0.0030126802157610655,-0.0035099550150334835,0.010866720229387283,0.24551968276500702,-0.05318714305758476,-9.806770324707031
1745664011.3189468,0.006779258605092764,0.005611260421574116,0.0107796685770154,0.3498617708683014,-0.07576881349086761,-9.775505065917969
1745664011.321765,-0.0018954116385430098,-0.0073401061818003654,0.009018631651997566,0.3461901545524597,-0.11811269819736481,-9.784944534301758
1745664011.3245835,0.0059381769970059395,0.002480029594153166,0.01008305512368679,0.22888095676898956,-0.0059790476225316525,-9.812451362609863
1745664011.3615437,-0.0026014100294560194,-0.002002640860155225,0.009370935149490833,0.21239078044891357,-0.03521181270480156,-9.796548843383789
1745664011.3639636,0.00831985380500555,0.0035470235161483288,0.011151047423481941,0.3604593873023987,-0.08816270530223846,-9.80222225189209
1745664011.3652565,-0.0014527018647640944,-0.004064943175762892,0.009580738842487335,0.3146962821483612,-0.10230819135904312,-9.781235694885254
1745664011.3673165,0.004048272036015987,0.0028782871086150408,0.010281020775437355,0.2409803420305252,-0.01738145388662815,-9.76953125
1745664011.370645,-0.0020746146328747272,-0.0032633673399686813,0.010681765154004097,0.40518078207969666,-0.15159520506858826,-9.770397186279297
1745664011.4047287,0.004282102920114994,0.0006660382496193051,0.010770543478429317,0.20500043034553528,-0.005623924545943737,-9.823932647705078
1745664011.406896,0.0041989353485405445,0.0018554388079792261,0.010088525712490082,0.41867297887802124,-0.16509023308753967,-9.762530326843262
1745664011.407146,-0.0013365376507863402,-0.0036464284639805555,0.009172039106488228,0.22411580383777618,-0.010665513575077057,-9.760075569152832
1745664011.408737,0.00675756623968482,0.0033386037684977055,0.011165705509483814,0.3587375581264496,-0.08808233588933945,-9.763277053833008
1745664011.4487407,-0.004745669197291136,-0.004024206660687923,0.010305804200470448,0.29842159152030945,-0.0885377749800682,-9.808329582214355
1745664011.4505262,0.008563424460589886,0.00511207478120923,0.010082907974720001,0.24575848877429962,-0.02791019342839718,-9.789454460144043
1745664011.4531236,-0.0018162146443501115,-0.0023913183249533176,0.00985714327543974,0.4097752571105957,-0.168208047747612,-9.74101448059082
1745664011.4543247,0.001956797670572996,0.0022882320918142796,0.009119169786572456,0.2078332155942917,0.022469598799943924,-9.791181564331055
1745664011.4559042,0.003424717579036951,-0.000743408570997417,0.009138280525803566,0.4277168810367584,-0.16567029058933258,-9.783845901489258
1745664011.4930668,-0.0021763306576758623,-0.0016790576046332717,0.009155523963272572,0.20782461762428284,-0.019200682640075684,-9.799116134643555
1745664011.4935176,0.006468731909990311,0.003757220460101962,0.011132247745990753,0.37818580865859985,-0.09531181305646896,-9.75026798248291
1745664011.4945421,0.002986357780173421,0.004332986660301685,0.010557414963841438,0.20526190102100372,0.02518528699874878,-9.823002815246582
1745664011.5031006,0.0007282538572326303,-0.0020471089519560337,0.00975673459470272,0.4295162260532379,-0.17665180563926697,-9.742810249328613
1745664011.5330203,-0.00037166886613704264,0.0012860266724601388,0.009831594303250313,0.20094652473926544,-0.0010436445008963346,-9.794522285461426
1745664011.535303,0.006080033257603645,0.001679180539213121,0.011428102850914001,0.40476709604263306,-0.11545169353485107,-9.765615463256836
1745664011.5364492,-0.005405898205935955,-0.0023760206531733274,0.009782234206795692,0.28958362340927124,-0.07855994999408722,-9.789321899414062
1745664011.5375192,0.00700440863147378,0.005025699269026518,0.010466898791491985,0.28679701685905457,-0.021600451320409775,-9.785048484802246
1745664011.5393152,-0.002685182960703969,-0.004005905240774155,0.010718434117734432,0.38608062267303467,-0.16307207942008972,-9.766343116760254
1745664011.5782242,0.004809287842363119,0.0051383376121521,0.009701508097350597,0.2015509158372879,0.007207484450191259,-9.792398452758789
1745664011.5801601,0.0007575807976536453,-0.002428137231618166,0.010444259271025658,0.4224874973297119,-0.15375950932502747,-9.767048835754395
1745664011.5819294,-0.0006952757248654962,-0.0003860694414470345,0.011522382497787476,0.20828285813331604,-0.012808611616492271,-9.825410842895508
1745664011.5837557,0.005507839377969503,0.0031029970850795507,0.01052837260067463,0.4056374132633209,-0.11847841739654541,-9.761516571044922
1745664011.62058,-0.00395545270293951,-0.0034448406659066677,0.010177004151046276,0.28491804003715515,-0.0680200457572937,-9.775062561035156
1745664011.621025,0.00622351560741663,0.0038878493942320347,0.010587607510387897,0.308451384305954,-0.061158813536167145,-9.790979385375977
1745664011.6230927,-0.0021268294658511877,-0.0032962970435619354,0.010863648727536201,0.3878808915615082,-0.12369859218597412,-9.78471851348877
1745664011.6243212,0.0030285739339888096,0.00354856438934803,0.0109833013266325,0.21547603607177734,0.00868920236825943,-9.811958312988281
1745664011.6689692,0.002847554860636592,-0.0005924977594986558,0.009654955007135868,0.4324526786804199,-0.1701921671628952,-9.753951072692871
1745664011.6692393,0.0006991034606471658,0.0006049168296158314,0.009439880959689617,0.21698251366615295,0.002447656588628888,-9.817814826965332
1745664011.6692946,0.004804336465895176,0.0015122391050681472,0.009128672070801258,0.408037006855011,-0.131258025765419,-9.761493682861328
1745664011.6703596,-0.004356277175247669,-0.0028005209751427174,0.012024031952023506,0.28459596633911133,-0.07839026302099228,-9.797933578491211
1745664011.6741853,0.0073073082603514194,0.005690252408385277,0.009372519329190254,0.30105847120285034,-0.026737332344055176,-9.7797269821167
1745664011.7080328,0.006680972874164581,0.001669424818828702,0.010059557855129242,0.4173561930656433,-0.14154307544231415,-9.76267147064209
1745664011.711509,-0.0031804670579731464,-0.00490570068359375,0.009958130307495594,0.2698326110839844,-0.07142125070095062,-9.774222373962402
1745664011.711572,0.005444202572107315,0.002662376966327429,0.012160114012658596,0.3091711401939392,-0.024624373763799667,-9.789586067199707
1745664011.7127285,-0.001999157713726163,-0.006059317849576473,0.009090750478208065,0.3724176287651062,-0.14664515852928162,-9.77058219909668
1745664011.7504241,0.004558847285807133,0.0028999813366681337,0.011874119751155376,0.23702077567577362,0.031856924295425415,-9.811517715454102
1745664011.7537956,0.0010850008111447096,-0.0033466722816228867,0.009649137035012245,0.42914503812789917,-0.1684892624616623,-9.748723030090332
1745664011.7646368,-5.196342317503877e-05,-0.0033695672173053026,0.009181840345263481,0.2103036642074585,-2.031773419730598e-06,-9.794256210327148
1745664011.7648015,0.005850715097039938,0.001442501088604331,0.01134487334638834,0.4085468649864197,-0.1229863166809082,-9.774639129638672
1745664011.7954166,-0.00467800023034215,-0.004911188967525959,0.009451672434806824,0.25621941685676575,-0.06190437078475952,-9.795938491821289
1745664011.795618,0.0069085583090782166,0.0024800398387014866,0.009459811262786388,0.327922523021698,-0.05649399757385254,-9.761588096618652
1745664011.7972004,-0.0037073660641908646,-0.004997552372515202,0.011139879934489727,0.37231892347335815,-0.12814418971538544,-9.799164772033691
1745664011.799964,0.005134859122335911,0.0010066183749586344,0.010378715582191944,0.22551293671131134,0.019912471994757652,-9.782332420349121
1745664011.8358097,-6.733825284754857e-05,-0.004123221151530743,0.011539253406226635,0.43238019943237305,-0.1709214150905609,-9.758749961853027
1745664011.8381653,6.313063204288483e-05,-0.0015206087846308947,0.009415976703166962,0.21285685896873474,0.011832957156002522,-9.807184219360352
1745664011.8410614,0.003686854150146246,-0.001854178262874484,0.010747934691607952,0.41522321105003357,-0.1381642371416092,-9.766683578491211
1745664011.8426752,-0.0012029854115098715,-0.004965213127434254,0.010964415967464447,0.41268712282180786,-0.1685796082019806,-9.751138687133789
1745664011.8814907,0.001393037848174572,-0.0024249714333564043,0.008488832041621208,0.22132857143878937,0.010699624195694923,-9.807208061218262
1745664011.8823,0.003654495347291231,-0.0023043197579681873,0.011226640082895756,0.41199129819869995,-0.15961222350597382,-9.750923156738281
1745664011.8825395,-0.0015299066435545683,-0.005777209531515837,0.00997142493724823,0.22681912779808044,-0.021674277260899544,-9.791017532348633
1745664011.88398,0.007168860174715519,0.0016901042545214295,0.01021776907145977,0.33737263083457947,-0.07521802186965942,-9.761321067810059
1745664011.9295864,-0.004054034594446421,-0.007980654947459698,0.011409217491745949,0.3282518982887268,-0.11435285955667496,-9.774656295776367
1745664011.9296632,0.005351920612156391,0.0007125069969333708,0.010222598910331726,0.2572553753852844,-0.01304691843688488,-9.781221389770508
1745664011.9297395,0.0013201519614085555,-0.004157911986112595,0.009554335847496986,0.40930214524269104,-0.1679823398590088,-9.758909225463867
1745664011.9297912,0.0017049962189048529,-0.0009707852150313556,0.008980818092823029,0.19152423739433289,0.02300293929874897,-9.79824447631836
1745664011.9320464,0.0044163246639072895,-0.004035688005387783,0.010414487682282925,0.4319893717765808,-0.15825174748897552,-9.765649795532227
1745664011.9646535,-0.0006019642460159957,-0.005412021651864052,0.010591606609523296,0.2135210782289505,-0.04344639927148819,-9.789158821105957
1745664011.9670522,0.007252825889736414,-0.0002985972096212208,0.010000604204833508,0.3611915111541748,-0.10805408656597137,-9.788164138793945
1745664011.9707375,-0.004183975979685783,-0.006408901419490576,0.009044630452990532,0.3101291060447693,-0.06917662918567657,-9.772149085998535
1745664011.9727578,0.004915258847177029,0.00235888478346169,0.011393489316105843,0.25902873277664185,-0.02082129195332527,-9.778107643127441
1745664012.0074124,-0.0009580155019648373,-0.005688943900167942,0.009056534618139267,0.3989468216896057,-0.15087854862213135,-9.763803482055664
1745664012.009541,0.0029074004851281643,-0.0015247927512973547,0.008991913869976997,0.1994280368089676,0.01821870356798172,-9.818840026855469
1745664012.011096,0.003259047167375684,-0.0006709179724566638,0.009947111830115318,0.4273809492588043,-0.1632242202758789,-9.777643203735352
1745664012.012639,-0.0009891042718663812,-0.005023670848459005,0.009509396739304066,0.21893954277038574,-0.0048610372468829155,-9.805671691894531
1745664012.0144944,0.00684416014701128,0.0005069620674476027,0.010703210718929768,0.36791062355041504,-0.1269357055425644,-9.744100570678711
1745664012.0521812,-0.003674753475934267,-0.006973089184612036,0.008817488327622414,0.3142281174659729,-0.09866703301668167,-9.778345108032227
1745664012.054219,0.0005867076106369495,-0.004512061830610037,0.008847471326589584,0.2000259906053543,0.014496433548629284,-9.80175495147705
1745664012.0565996,0.006173909176141024,0.0015279074432328343,0.010157137177884579,0.3843208849430084,-0.12485460191965103,-9.750056266784668
1745664012.0613174,-0.0030335027258843184,-0.0055094389244914055,0.00938661303371191,0.29237788915634155,-0.06121450662612915,-9.781696319580078
1745664012.0939665,0.007526257541030645,0.0017134994268417358,0.01177674438804388,0.2864137589931488,-0.0424828939139843,-9.807106971740723
1745664012.0964973,-0.0012246040860190988,-0.005342426709830761,0.009633704088628292,0.36553579568862915,-0.14392252266407013,-9.767664909362793
1745664012.0975986,0.004610069561749697,0.0010550013976171613,0.010818492621183395,0.21746954321861267,0.00932345725595951,-9.776288986206055
1745664012.0997896,0.0017879788065329194,-0.0031308673787862062,0.01069142110645771,0.44213762879371643,-0.15468059480190277,-9.750688552856445
1745664012.1017957,0.0007896485622040927,-0.0011783663649111986,0.008328493684530258,0.19906708598136902,-0.0007457766914740205,-9.83446979522705
1745664012.1360643,0.0051250942051410675,-0.0006241723895072937,0.009374390356242657,0.38333040475845337,-0.12289421260356903,-9.770261764526367
1745664012.1384895,-0.0014963223366066813,-0.0030089716892689466,0.009827439673244953,0.2641758322715759,-0.05732888728380203,-9.77729606628418
1745664012.1422584,0.005334979854524136,0.0008008519071154296,0.009560853242874146,0.31437912583351135,-0.051329970359802246,-9.772788047790527
1745664012.1449385,-0.0014614238170906901,-0.0040137553587555885,0.009763654321432114,0.36503008008003235,-0.13562390208244324,-9.781140327453613
1745664012.1809003,0.006837720517069101,0.0016830253880470991,0.009640222415328026,0.2218477725982666,-0.014403209090232849,-9.785089492797852
1745664012.1844528,-0.0009864408057183027,-0.0037872351240366697,0.00994325801730156,0.3998090624809265,-0.1763843297958374,-9.752294540405273
1745664012.1914341,0.00032921237288974226,-0.0007144530536606908,0.008782779797911644,0.20491981506347656,0.0005001056124456227,-9.784585952758789
1745664012.1936064,0.005854520946741104,0.0013557979837059975,0.009728369303047657,0.4022005498409271,-0.1469482183456421,-9.767528533935547
1745664012.223756,-0.0033803824335336685,-0.003599877003580332,0.01010553352534771,0.29292377829551697,-0.08053714036941528,-9.787029266357422
1745664012.2272084,0.006812701467424631,0.0038897842168807983,0.010246595367789268,0.2759060561656952,-0.04426612704992294,-9.785146713256836
1745664012.2305505,-0.0010939643252640963,-0.002452533459290862,0.011467383243143559,0.37609174847602844,-0.13406626880168915,-9.765162467956543
1745664012.2337472,0.004432185087352991,0.003631706116721034,0.009475596249103546,0.2193567007780075,0.0029129846952855587,-9.79416561126709
1745664012.265859,0.0020291488617658615,-0.0003540611360222101,0.0099893007427454,0.40742549300193787,-0.15969593822956085,-9.77035140991211
1745664012.268583,-0.0007193293422460556,-0.0005325002712197602,0.010256757959723473,0.20329880714416504,0.0034889758098870516,-9.807966232299805
1745664012.2700365,0.0068458677269518375,0.001914538093842566,0.009072479791939259,0.38299453258514404,-0.132234588265419,-9.767438888549805
1745664012.2724588,-0.0024116176646202803,-0.0014804208185523748,0.01089516282081604,0.2605290412902832,-0.043992359191179276,-9.781858444213867
1745664012.274621,0.006268886383622885,0.004145056940615177,0.008756262250244617,0.3193540573120117,-0.06988527625799179,-9.776483535766602
1745664012.310185,-0.0018910968210548162,-0.004410427063703537,0.011670212261378765,0.3639851212501526,-0.11841647326946259,-9.78598403930664
1745664012.312671,0.007239887025207281,0.003631406929343939,0.010500863194465637,0.23508457839488983,-0.007342793047428131,-9.795872688293457
1745664012.313568,-0.0004529854631982744,0.0004673897346947342,0.00863658171147108,0.4088718295097351,-0.1538408100605011,-9.751296043395996
1745664012.3154106,0.00011313101276755333,0.0002077945100609213,0.010804792866110802,0.19574251770973206,0.0063844770193099976,-9.78996467590332
1745664012.3531227,0.005974044091999531,0.0026770313270390034,0.011393574997782707,0.4034934639930725,-0.15249446034431458,-9.7479829788208
1745664012.3557138,-0.002066857647150755,-0.0004568834265228361,0.010047933086752892,0.25164595246315,-0.02451435662806034,-9.799568176269531
1745664012.3591816,0.007619249168783426,0.00563965504989028,0.00964625645428896,0.330272912979126,-0.0854695737361908,-9.783479690551758
1745664012.359244,-0.002493914682418108,-0.002597292186692357,0.010727115906774998,0.33000585436820984,-0.11073432117700577,-9.778207778930664
1745664012.3611715,0.0065233358182013035,0.0047552213072776794,0.01047694031149149,0.2514849603176117,-0.027470802888274193,-9.781424522399902
1745664012.3965507,0.0002864135894924402,-0.001666772412136197,0.010054389014840126,0.40904778242111206,-0.15114106237888336,-9.753177642822266
1745664012.4029608,0.003347796620801091,0.0022447723895311356,0.008820595219731331,0.19953322410583496,0.010838045738637447,-9.803695678710938
1745664012.404725,-0.02505558170378208,-0.006521557457745075,0.013795435428619385,0.049414850771427155,0.0573689341545105,-9.90200424194336
1745664012.4076843,-0.006392994429916143,0.023526182398200035,0.00872772466391325,0.5483137369155884,0.12236036360263824,-9.32494831085205
1745664012.4374077,-0.025437375530600548,-0.03900561481714249,0.010249460116028786,0.9081500768661499,-0.2706511616706848,-9.76655387878418
1745664012.4418185,-0.016177156940102577,0.0041594975627958775,0.01310720108449459,0.09645025432109833,-0.008786991238594055,-10.844143867492676
1745664012.4429643,0.020030934363603592,0.018813833594322205,0.011069176718592644,0.2816796600818634,0.5502187609672546,-9.491495132446289
1745664012.4458935,0.023550348356366158,0.0002638717705849558,0.008675957098603249,0.48915281891822815,-0.08901463449001312,-8.571512222290039
1745664012.4459455,0.02637975476682186,-0.009863294661045074,0.002663222374394536,0.7971758246421814,0.37707072496414185,-9.649131774902344
1745664012.482537,0.027454018592834473,-0.006172360386699438,-0.002882190514355898,0.552446722984314,-0.06599956005811691,-11.353129386901855
1745664012.4860647,0.09824129194021225,0.034277379512786865,-0.004984659142792225,0.12941858172416687,0.4855616092681885,-9.846694946289062
1745664012.4886396,0.0046136947348713875,0.011720920912921429,-0.007645768579095602,0.6268523335456848,-0.6993186473846436,-8.151349067687988
1745664012.4926915,0.06309472024440765,-0.009226437658071518,-0.010195436887443066,0.609009861946106,-0.15655967593193054,-9.413263320922852
1745664012.523111,-0.00928493682295084,0.011150144971907139,-0.01610543765127659,0.5720483660697937,-0.10040880739688873,-11.449719429016113
1745664012.5252476,0.037292201071977615,0.03681645542383194,-0.016861630603671074,0.17150720953941345,-0.4060942530632019,-10.328940391540527
1745664012.527505,0.01650819182395935,0.029595550149679184,-0.017841625958681107,0.8074010610580444,0.005364322569221258,-7.657015323638916
1745664012.5311975,-0.02723664417862892,-0.016805170103907585,-0.01635141856968403,0.6762710213661194,-0.6924377679824829,-9.601383209228516
1745664012.5660403,0.01939360424876213,0.017463039606809616,-0.018054798245429993,0.16393598914146423,0.14254382252693176,-11.901878356933594
1745664012.5726771,0.13521291315555573,0.06536367535591125,-0.13153478503227234,0.9009071588516235,0.009184327907860279,-9.953592300415039
1745664012.5732086,0.15561769902706146,0.06678532809019089,-0.13959164917469025,0.8474159240722656,0.21711930632591248,-9.886597633361816
1745664012.5773883,0.1589832454919815,0.06163828447461128,-0.14496544003486633,0.9074463844299316,-0.13036903738975525,-9.826156616210938
1745664012.609969,0.16335003077983856,0.06539130210876465,-0.15095940232276917,0.7305492758750916,-0.06106217950582504,-9.675511360168457
1745664012.6104453,0.15504838526248932,0.07705715298652649,-0.15264159440994263,0.840710461139679,-0.43634510040283203,-9.408041000366211
1745664012.6129735,0.13822457194328308,0.06561759114265442,-0.15868762135505676,0.9441601634025574,-0.4522891640663147,-9.457365036010742
1745664012.6131408,0.12462226301431656,0.07693229615688324,-0.16220897436141968,0.7154091596603394,-0.14704658091068268,-10.013124465942383
1745664012.6137855,0.1415889859199524,0.08119930326938629,-0.16839845478534698,0.7005463242530823,-0.27531832456588745,-9.975348472595215
1745664012.655744,0.136473149061203,0.08187960088253021,-0.17648866772651672,0.729080855846405,0.0990309938788414,-9.225461959838867
1745664012.6573818,0.14747554063796997,0.07616938650608063,-0.17975398898124695,0.9798973202705383,-0.3847194314002991,-9.466130256652832
1745664012.6597629,0.14853467047214508,0.07606517523527145,-0.18392324447631836,0.7339503169059753,0.03944919630885124,-10.113965034484863
1745664012.6619809,0.15509727597236633,0.09208376705646515,-0.1876913607120514,0.8342385292053223,-0.22241024672985077,-9.953083992004395
1745664012.6954126,0.16748595237731934,0.0791051909327507,-0.18800464272499084,0.8959289789199829,-0.22936435043811798,-9.221447944641113
1745664012.6984224,0.16073854267597198,0.07520497590303421,-0.19145330786705017,0.9940448999404907,-0.26326340436935425,-9.693714141845703
1745664012.7001328,0.16616812348365784,0.06708760559558868,-0.197670117020607,1.1051723957061768,-0.12153824418783188,-10.462512969970703
1745664012.7047765,0.17714200913906097,0.08238247781991959,-0.2044893205165863,0.8113201856613159,-0.1536584198474884,-10.021615982055664
1745664012.7157154,0.1750182807445526,0.07332718372344971,-0.2088826596736908,1.0271905660629272,-0.15620101988315582,-8.920804023742676
1745664012.7400734,0.1500374972820282,0.05579162761569023,-0.21679934859275818,0.962064266204834,-0.4139525294303894,-9.513381004333496
1745664012.7433977,0.17664150893688202,0.06865067034959793,-0.21881015598773956,0.9411965608596802,-0.336984246969223,-10.548211097717285
1745664012.7480013,0.15787941217422485,0.0390813983976841,-0.2712303400039673,0.9521930813789368,-0.5000263452529907,-9.347914695739746
1745664012.7894347,0.15973515808582306,0.017376959323883057,-0.27238017320632935,1.0635223388671875,-0.2006203681230545,-9.390137672424316
1745664012.7896016,0.15220549702644348,0.0339711494743824,-0.27514052391052246,1.0244783163070679,-0.5948835015296936,-10.336246490478516
1745664012.7896807,0.1653866469860077,0.02246933802962303,-0.2775507867336273,1.0134729146957397,-0.5315578579902649,-9.989874839782715
1745664012.7921257,0.16097667813301086,0.023093845695257187,-0.28346124291419983,0.8757386207580566,-0.4009527266025543,-9.333638191223145
1745664012.7973046,0.1328786462545395,0.012598300352692604,-0.2838103473186493,1.0339076519012451,-0.8370352983474731,-9.585165023803711
1745664012.8278968,0.16436871886253357,0.009622753597795963,-0.2876656949520111,0.8399211764335632,-0.36103925108909607,-9.948305130004883
1745664012.8317852,0.11539600044488907,0.008819976821541786,-0.29297348856925964,1.1292632818222046,-0.6448790431022644,-9.844482421875
1745664012.837574,0.1405244767665863,0.010994131676852703,-0.2938768267631531,0.9008108377456665,-0.5707321763038635,-9.512405395507812
1745664012.8396697,0.1242222785949707,0.0026241287123411894,-0.2970447838306427,0.8679006695747375,-0.4978775382041931,-9.528635025024414
1745664012.8683567,0.11675729602575302,-0.0015192871214821935,-0.3007725179195404,1.089224934577942,-0.6182051301002502,-9.919713973999023
1745664012.8710852,0.137472003698349,0.006089960224926472,-0.3026321530342102,0.8508453369140625,-0.4353920817375183,-10.007569313049316
1745664012.872368,0.12620684504508972,-0.008913466706871986,-0.3018755316734314,1.040998101234436,-0.5132171511650085,-9.506032943725586
1745664012.8806844,0.13429424166679382,-0.002997551579028368,-0.307206928730011,0.8216421008110046,-0.35704320669174194,-9.452775955200195
1745664012.9094872,0.12548722326755524,-0.006578497588634491,-0.30705156922340393,1.00222647190094,-0.7537615299224854,-9.781448364257812
1745664012.9117765,0.1478157341480255,-0.012737160548567772,-0.3104732036590576,0.9866856336593628,-0.22255447506904602,-9.830698013305664
1745664012.9164612,0.10031703859567642,-0.06361404806375504,-0.3577783703804016,0.8389301300048828,-0.9700034260749817,-9.856107711791992
1745664012.9198532,0.10151077806949615,-0.07537689059972763,-0.3579865097999573,0.9157928228378296,-0.594287097454071,-9.762811660766602
1745664012.9549663,0.09421499818563461,-0.0729188472032547,-0.35761380195617676,0.8309017419815063,-0.8276418447494507,-9.846395492553711
1745664012.957626,0.09619033336639404,-0.06968606263399124,-0.3609725832939148,0.9133499264717102,-0.7623962163925171,-9.746339797973633
1745664012.9611428,0.08597090095281601,-0.0769672617316246,-0.35965245962142944,0.7531965374946594,-0.708229660987854,-9.625425338745117
1745664012.9658878,0.09023687988519669,-0.07294939458370209,-0.36148056387901306,0.9657190442085266,-0.7705422043800354,-9.728109359741211
1745664012.9693837,0.08440611511468887,-0.07642457634210587,-0.36327609419822693,0.7460355758666992,-0.6460044384002686,-9.926121711730957
1745664012.9974074,0.10181502252817154,-0.0741286426782608,-0.36358505487442017,0.7661086916923523,-0.6977540254592896,-9.803800582885742
1745664013.000466,0.07947193831205368,-0.07852345705032349,-0.3661160171031952,0.8055089712142944,-0.5908631086349487,-9.588111877441406
1745664013.0022259,0.09945400059223175,-0.07363776117563248,-0.36632218956947327,0.667362630367279,-0.8720481991767883,-9.685735702514648
1745664013.003538,0.09091228991746902,-0.07657639682292938,-0.368741512298584,0.9004728198051453,-0.6345187425613403,-9.684061050415039
1745664013.0483768,0.07953359186649323,-0.07015891373157501,-0.3678380250930786,0.6959344744682312,-0.7909296154975891,-9.903443336486816
1745664013.0485036,0.1070002093911171,-0.06851208209991455,-0.3675868809223175,0.7997045516967773,-0.7585862278938293,-9.671526908874512
1745664013.0485914,0.0825643464922905,-0.07832524180412292,-0.3695550560951233,0.7491350173950195,-0.6080323457717896,-9.640531539916992
1745664013.0486636,0.10191414505243301,-0.0682622417807579,-0.3706352114677429,0.7793104648590088,-0.8856981992721558,-9.902325630187988
1745664013.048709,0.08781035244464874,-0.07797613739967346,-0.3719576299190521,0.7868744730949402,-0.6493274569511414,-9.739127159118652
1745664013.0862846,0.09013941884040833,-0.07059948891401291,-0.36926594376564026,0.6811615228652954,-0.892611026763916,-9.765534400939941
1745664013.0876234,0.07750612497329712,-0.07494562864303589,-0.3713654577732086,0.859958291053772,-0.9136161804199219,-9.683553695678711
1745664013.090199,0.08508537709712982,-0.07535891234874725,-0.37007254362106323,0.6981000900268555,-0.7959117889404297,-9.845672607421875
1745664013.12843,0.0681159645318985,-0.06478337198495865,-0.3772711753845215,0.5068798661231995,-0.7607133984565735,-9.77915096282959
1745664013.1296747,0.04971761256456375,-0.05773691087961197,-0.378481924533844,0.7705363035202026,-0.8235965967178345,-9.51965618133545
1745664013.1318483,0.05568993091583252,-0.05998968333005905,-0.3807614743709564,0.6049972772598267,-0.7955774664878845,-9.699634552001953
1745664013.133929,0.05829552561044693,-0.057655345648527145,-0.3797411322593689,0.6733385920524597,-0.7965425252914429,-9.844306945800781
1745664013.1364264,0.04691997915506363,-0.05566514655947685,-0.38120952248573303,0.7889231443405151,-0.898786723613739,-9.851264953613281
1745664013.1731646,0.06473056226968765,-0.05287947505712509,-0.38069960474967957,0.549044668674469,-0.8374689817428589,-9.786955833435059
1745664013.175981,0.042656514793634415,-0.06354522705078125,-0.37992608547210693,0.8067118525505066,-0.942884087562561,-9.682390213012695
1745664013.1806843,0.04780874401330948,-0.055076826363801956,-0.38120394945144653,0.6013891100883484,-0.8433133959770203,-9.87013053894043
1745664013.1826878,0.03780800476670265,-0.05404479056596756,-0.38097280263900757,0.7217099666595459,-0.987514853477478,-9.762449264526367
1745664013.213942,0.04235956072807312,-0.05813987925648689,-0.38079366087913513,0.6006527543067932,-0.712615430355072,-9.548707962036133
1745664013.2182517,0.031796522438526154,-0.047693271189928055,-0.38159382343292236,0.6825443506240845,-0.8940779566764832,-9.788569450378418
1745664013.2191403,0.04294726252555847,-0.05476441979408264,-0.38395535945892334,0.6521639823913574,-0.8254776000976562,-9.935785293579102
1745664013.2207558,0.046088866889476776,-0.049779344350099564,-0.3836084008216858,0.5695971846580505,-0.7465227842330933,-9.685689926147461
1745664013.224613,0.03155478835105896,-0.050527531653642654,-0.3833291530609131,0.6977332234382629,-0.9794036149978638,-9.590847969055176
1745664013.2597008,0.05415866896510124,-0.04195869341492653,-0.3819490373134613,0.4140787124633789,-0.6929212808609009,-9.7034912109375
1745664013.259825,0.029009491205215454,-0.04275500029325485,-0.38316836953163147,0.8091174364089966,-1.0468651056289673,-9.691155433654785
1745664013.2616115,0.04269672930240631,-0.0420881062746048,-0.381430447101593,0.6044207215309143,-0.7579044699668884,-9.792665481567383
1745664013.262821,0.008533959276974201,-0.016550179570913315,-0.38730859756469727,0.7014790773391724,-1.045143485069275,-9.800614356994629
1745664013.3007698,-0.004085304215550423,-0.021726811304688454,-0.3860446810722351,0.6057134866714478,-0.869032084941864,-9.544305801391602
1745664013.30212,-0.0028886492364108562,-0.01907416619360447,-0.38477832078933716,0.6063066124916077,-1.075067162513733,-9.682222366333008
1745664013.3029714,-0.012229250743985176,-0.021911058574914932,-0.38696444034576416,0.7296756505966187,-0.8046396970748901,-9.824087142944336
1745664013.3073022,-0.014718130230903625,-0.013785655610263348,-0.38584113121032715,0.5118993520736694,-0.972407341003418,-9.91513442993164
1745664013.3407795,-0.004648155998438597,-0.017632702365517616,-0.3860490620136261,0.703956663608551,-0.8759587407112122,-9.568257331848145
1745664013.3442512,-0.021842248737812042,-0.022228628396987915,-0.38803091645240784,0.5706452131271362,-0.6522932052612305,-9.626001358032227
1745664013.3490677,-0.00860572885721922,-0.01475001871585846,-0.3851594924926758,0.7075608968734741,-1.003530502319336,-9.906698226928711
1745664013.3504474,-0.006875911261886358,-0.016384892165660858,-0.3862340450286865,0.4746455252170563,-0.5648525357246399,-9.726890563964844
1745664013.3530033,-0.0029077581129968166,-0.011479389853775501,-0.38464006781578064,0.6319608688354492,-0.9762586355209351,-9.57750129699707
1745664013.3873758,-1.5318708392442204e-05,-0.01872955821454525,-0.38381558656692505,0.6806414127349854,-0.71219801902771,-9.6743745803833
1745664013.3889756,0.0023144413717091084,-0.017021654173731804,-0.38442033529281616,0.5501731634140015,-0.8134953379631042,-9.971122741699219
1745664013.3917499,-0.006773433182388544,-0.01645035110414028,-0.38584497570991516,0.7269045114517212,-0.9309631586074829,-9.749676704406738
1745664013.3941376,-0.006263191346079111,-0.014532424509525299,-0.385286808013916,0.5069502592086792,-0.8698059320449829,-9.547945022583008
1745664013.427518,-0.012003312818706036,-0.012720698490738869,-0.3834853172302246,0.7245031595230103,-1.0010963678359985,-9.576925277709961
1745664013.430157,-0.026609992608428,-0.017363030463457108,-0.38587650656700134,0.5728132724761963,-0.7674872279167175,-9.871505737304688
1745664013.4330657,-0.010553400032222271,-0.0047408295795321465,-0.38446274399757385,0.5829315781593323,-1.0390177965164185,-9.885862350463867
1745664013.4351406,-0.02307991310954094,-0.016253268346190453,-0.38492482900619507,0.5939802527427673,-0.6137481927871704,-9.454231262207031
1745664013.4378927,-0.02044391818344593,-0.011021950282156467,-0.3860412836074829,0.5797173976898193,-0.9387930035591125,-9.6893310546875
1745664013.4738252,-0.01930689811706543,-0.010899451561272144,-0.3794979453086853,0.6764547228813171,-0.866868793964386,-9.636701583862305
1745664013.4769762,-0.008740684017539024,-0.01275489293038845,-0.38033491373062134,0.505499541759491,-0.7784302830696106,-9.698896408081055
1745664013.4824002,-0.027909141033887863,-0.010741369798779488,-0.3782333731651306,0.7451849579811096,-0.8430153131484985,-9.707860946655273
1745664013.4833531,-0.023100262507796288,-0.014769164845347404,-0.3795267343521118,0.5455684661865234,-0.8042438626289368,-9.837053298950195
1745664013.5144634,-0.0168010201305151,-0.007907886989414692,-0.3808434009552002,0.6706873178482056,-0.8230913281440735,-9.67021369934082
1745664013.5178466,-0.04377198964357376,-0.019054580479860306,-0.37936314940452576,0.6567145586013794,-0.8028964996337891,-9.660959243774414
1745664013.5185645,-0.013164306990802288,-0.005075736436992884,-0.3775075078010559,0.582680344581604,-0.8531852960586548,-9.810670852661133
1745664013.5213552,-0.038856346160173416,-0.018181968480348587,-0.37908145785331726,0.673230767250061,-0.7059409022331238,-9.802888870239258
1745664013.5606284,-0.013716399669647217,-0.011294221505522728,-0.378309428691864,0.5264581441879272,-0.7988549470901489,-9.805649757385254
1745664013.561223,-0.01891069859266281,-0.014798320829868317,-0.3754105269908905,0.6698607206344604,-0.7251114845275879,-9.655930519104004
1745664013.5637715,-0.015609493479132652,-0.02151634730398655,-0.3755124807357788,0.5601624250411987,-0.6917396783828735,-9.742796897888184
1745664013.5649142,-0.020860519260168076,-0.013814082369208336,-0.37448471784591675,0.729793906211853,-0.8532593846321106,-9.794401168823242
1745664013.5674086,-0.02254408970475197,-0.020679663866758347,-0.37715455889701843,0.5877864360809326,-0.7858690023422241,-9.799562454223633
1745664013.599798,-0.01728587970137596,-0.014179220423102379,-0.37405067682266235,0.6567001342773438,-0.8276596069335938,-9.66478443145752
1745664013.601188,-0.04082629084587097,-0.02235800214111805,-0.3742291033267975,0.6411977410316467,-0.8554439544677734,-9.712876319885254
1745664013.6039107,-0.011680549010634422,-0.01657937653362751,-0.37264102697372437,0.5201380848884583,-0.7532695531845093,-9.80424690246582
1745664013.6156368,-0.03914263844490051,-0.01932086981832981,-0.37427616119384766,0.7052952647209167,-0.6752258539199829,-9.607442855834961
1745664013.6452613,0.005950947292149067,-0.01903628744184971,-0.36136695742607117,0.48551639914512634,-0.5451434254646301,-9.741433143615723
1745664013.6489282,-0.00996517576277256,-0.018865985795855522,-0.36043819785118103,0.5603593587875366,-0.7830867171287537,-9.695476531982422
1745664013.6509001,-0.005762722343206406,-0.024459393694996834,-0.3592258095741272,0.6310965418815613,-0.6658252477645874,-9.701896667480469
1745664013.6565506,-8.034929487621412e-05,-0.017919281497597694,-0.3586907386779785,0.5696436166763306,-0.7849231958389282,-9.809959411621094
1745664013.6569026,-0.008432726375758648,-0.024303503334522247,-0.355392187833786,0.6776549816131592,-0.7626034617424011,-9.844488143920898
1745664013.687735,-0.0022285636514425278,-0.01796509139239788,-0.3558673560619354,0.532378077507019,-0.6057088971138,-9.792988777160645
1745664013.6930828,-0.012682629749178886,-0.0251481793820858,-0.35518091917037964,0.658306360244751,-0.9221396446228027,-9.742485046386719
1745664013.7084901,0.00640964787453413,-0.02525419555604458,-0.3552238345146179,0.43330803513526917,-0.5310392379760742,-9.673179626464844
1745664013.7086098,-0.019423682242631912,-0.022146373987197876,-0.3549174964427948,0.6958717107772827,-0.8314844965934753,-9.777345657348633
1745664013.7375448,0.0020769061520695686,-0.023469988256692886,-0.35432925820350647,0.559980571269989,-0.6397382020950317,-9.780277252197266
1745664013.737648,-0.005171698518097401,-0.021535295993089676,-0.3538421392440796,0.5147131681442261,-0.7057661414146423,-9.74070930480957
1745664013.737713,-0.005329385865479708,-0.029865678399801254,-0.3519662916660309,0.6164770722389221,-0.786282479763031,-9.77113151550293
1745664013.737785,0.005923963151872158,-0.02111276052892208,-0.351393461227417,0.4338998794555664,-0.6161684989929199,-9.819666862487793
1745664013.7735753,-0.009772303514182568,-0.02929685451090336,-0.3497513234615326,0.6605046987533569,-0.8349326848983765,-9.750508308410645
1745664013.7768235,0.0002124153106706217,-0.02662733569741249,-0.3478846549987793,0.45723357796669006,-0.6029162406921387,-9.673645973205566
1745664013.7786472,-0.0054818191565573215,-0.02225583791732788,-0.34608131647109985,0.48821648955345154,-0.8955009579658508,-9.667986869812012
1745664013.7827413,-0.002261966234073043,-0.02752666547894478,-0.34217125177383423,0.41401392221450806,-0.612433910369873,-9.644067764282227
1745664013.815547,-0.0168337132781744,-0.02808675542473793,-0.3407050371170044,0.2655055522918701,-0.951786994934082,-9.9299955368042
1745664013.818359,-0.004682089667767286,-0.026049768552184105,-0.33690404891967773,0.2783079743385315,-0.6650474667549133,-9.788002014160156
1745664013.824688,-0.03342723101377487,-0.033273082226514816,-0.3138994574546814,0.5085697174072266,-1.2088682651519775,-9.756223678588867
1745664013.8271372,-0.023407982662320137,-0.044081881642341614,-0.3087178170681,0.4336783289909363,-0.5304580926895142,-9.546683311462402
1745664013.8589265,-0.037734758108854294,-0.038945022970438004,-0.3054298758506775,0.42848101258277893,-0.779688835144043,-9.795610427856445
1745664013.861954,-0.02509140409529209,-0.03901534527540207,-0.3054670989513397,0.48421579599380493,-0.44457149505615234,-9.87315559387207
1745664013.8716562,-0.022977808490395546,-0.03582122176885605,-0.3071914315223694,0.1700344830751419,-0.4828270375728607,-9.732513427734375
1745664013.871722,-0.014111706987023354,-0.038844842463731766,-0.30433592200279236,0.427729994058609,-0.5999013781547546,-9.548604011535645
1745664013.9037745,-0.015234303660690784,-0.043641477823257446,-0.30688369274139404,0.2322441041469574,-0.5041660666465759,-9.760797500610352
1745664013.9038355,-0.012220405042171478,-0.03477635234594345,-0.30207890272140503,0.37166476249694824,-0.856829047203064,-9.94365119934082
1745664013.906278,-0.025164704769849777,-0.03994273021817207,-0.29862481355667114,0.3826437294483185,-0.5417974591255188,-9.671991348266602
1745664013.9085393,-0.01836230419576168,-0.03589380159974098,-0.2983688414096832,0.44256392121315,-0.9048128128051758,-9.680559158325195
1745664013.911686,-0.029448261484503746,-0.04298723489046097,-0.2964155077934265,0.5518393516540527,-0.5826642513275146,-9.745274543762207
1745664013.944321,-0.025516461580991745,-0.041064150631427765,-0.2933906316757202,0.3957144618034363,-0.7373115420341492,-9.970602035522461
1745664013.9454463,-0.03155329078435898,-0.04048600420355797,-0.293022096157074,0.4735119342803955,-0.6681792140007019,-9.775182723999023
1745664013.9475586,-0.03255515545606613,-0.04399792104959488,-0.28953832387924194,0.2134588211774826,-0.6701089143753052,-9.731160163879395
1745664013.9520528,-0.024853819981217384,-0.0423801951110363,-0.2909664511680603,0.3649139404296875,-0.6864615678787231,-9.64794921875
1745664013.9882522,-0.03899390250444412,-0.043669719249010086,-0.28886184096336365,0.3070825934410095,-0.5473934412002563,-9.775014877319336
1745664013.992829,-0.022718314081430435,-0.019214704632759094,-0.26902681589126587,0.20521536469459534,-0.5634156465530396,-9.845746040344238
1745664013.9941537,-0.04261723905801773,-0.024807417765259743,-0.2684216797351837,0.49783653020858765,-0.5047253370285034,-9.60484790802002
1745664013.997511,-0.03586425259709358,-0.018832946196198463,-0.27033382654190063,0.34222257137298584,-0.42476415634155273,-9.78381633758545
1745664014.0305212,-0.033756323158741,-0.018107371404767036,-0.27098411321640015,0.445977121591568,-0.5310977101325989,-9.855822563171387
1745664014.0310154,-0.031413860619068146,-0.023072056472301483,-0.26904231309890747,0.4200836718082428,-0.4319829046726227,-9.815556526184082
1745664014.034677,-0.022093361243605614,-0.014191770926117897,-0.2709198594093323,0.41394391655921936,-0.6318866610527039,-9.772489547729492
1745664014.0362654,-0.032895125448703766,-0.02299850806593895,-0.2651579976081848,0.4368179440498352,-0.6114069819450378,-9.793161392211914
1745664014.038806,-0.02388903871178627,-0.01617928221821785,-0.2655417323112488,0.2286236584186554,-0.5150080919265747,-9.876373291015625
1745664014.072703,-0.0348660983145237,-0.01750192418694496,-0.2604469358921051,0.4279715418815613,-0.7099663615226746,-9.701395034790039
1745664014.076121,-0.023838307708501816,-0.01883847825229168,-0.2626449167728424,0.2071513831615448,-0.40209513902664185,-9.6651611328125
1745664014.0810018,-0.039991430938243866,-0.016980083659291267,-0.2632729709148407,0.4816616177558899,-0.6548475027084351,-9.834808349609375
1745664014.085632,-0.026948031038045883,-0.020784640684723854,-0.26324477791786194,0.3165934085845947,-0.4066014885902405,-9.855573654174805
1745664014.1193452,-0.045530397444963455,-0.009946051053702831,-0.26339033246040344,0.36255353689193726,-0.6967340707778931,-9.817644119262695
1745664014.1207001,-0.03785325959324837,-0.019202079623937607,-0.2599538266658783,0.3599376678466797,-0.6001337766647339,-9.675297737121582
1745664014.1229138,-0.04193725064396858,-0.015326092019677162,-0.2594241201877594,0.27535372972488403,-0.5718833804130554,-9.737366676330566
1745664014.1254056,-0.04576004296541214,-0.011550958268344402,-0.25654590129852295,0.51895672082901,-0.6061665415763855,-9.836177825927734
1745664014.1597848,-0.041868679225444794,-0.01521996408700943,-0.25627538561820984,0.21050360798835754,-0.3131767511367798,-9.820839881896973
1745664014.163909,-0.0348048210144043,-0.010798713192343712,-0.2553017735481262,0.4507347643375397,-0.5162448883056641,-9.693340301513672
1745664014.1689746,-0.03506949916481972,-0.016544122248888016,-0.2571622431278229,0.25583431124687195,-0.25455817580223083,-9.723347663879395
1745664014.1715314,-0.020785288885235786,-0.011250343173742294,-0.25684884190559387,0.3087281286716461,-0.6562676429748535,-9.891073226928711
1745664014.2036412,-0.035692181438207626,-0.006131748668849468,-0.24267292022705078,0.028697330504655838,-0.35769733786582947,-9.847270011901855
1745664014.2070606,-0.03786572813987732,-0.011848324909806252,-0.24378538131713867,0.3313978314399719,-0.5249913930892944,-9.598706245422363
1745664014.208238,-0.042680226266384125,-0.013653169386088848,-0.2420140504837036,0.25389519333839417,-0.3904065489768982,-9.68428897857666
1745664014.2108862,-0.04828120023012161,-0.012942577712237835,-0.2417181432247162,0.3876696228981018,-0.6062410473823547,-9.965188026428223
1745664014.2124412,-0.03914671391248703,-0.015402933582663536,-0.23873572051525116,0.3637482225894928,-0.42973819375038147,-9.800102233886719
1745664014.245908,-0.04598555713891983,-0.006869944743812084,-0.23498621582984924,0.2228666990995407,-0.5117394924163818,-9.652982711791992
1745664014.2477095,-0.04782576113939285,-0.020579025149345398,-0.23464509844779968,0.3793502449989319,-0.6119223237037659,-9.66063404083252
1745664014.2493775,-0.03694721311330795,-0.012248823419213295,-0.2297460287809372,0.16141316294670105,-0.23434659838676453,-9.854753494262695
1745664014.2520843,-0.050440412014722824,-0.009854378178715706,-0.23080670833587646,0.30501264333724976,-0.5311453342437744,-9.933552742004395
1745664014.2916768,-0.027186114341020584,-0.013823429122567177,-0.23106451332569122,0.15432344377040863,-0.12605184316635132,-9.637744903564453
1745664014.2934978,-0.036751918494701385,-0.012651006691157818,-0.2336326390504837,0.321384996175766,-0.5609320402145386,-9.595383644104004
1745664014.2960896,-0.03196071460843086,-0.019950509071350098,-0.22955481708049774,0.26197999715805054,-0.39221662282943726,-9.794225692749023
1745664014.2974334,-0.038861215114593506,-0.005535727366805077,-0.23034274578094482,0.29748234152793884,-0.5815873146057129,-9.860188484191895
1745664014.3004832,-0.04876718670129776,-0.016737062484025955,-0.22602050006389618,0.3730546236038208,-0.5933954119682312,-9.685484886169434
1745664014.332645,-0.043466340750455856,-0.012344827875494957,-0.22273492813110352,0.3181592524051666,-0.4371894896030426,-9.73016357421875
1745664014.3341796,-0.05025787279009819,-0.017823372036218643,-0.2242799550294876,0.3971032500267029,-0.47973403334617615,-9.900568962097168
1745664014.3362648,-0.042398493736982346,-0.0075635225512087345,-0.19856353104114532,0.30974677205085754,-0.13703788816928864,-9.57164478302002
1745664014.3375087,-0.02564728632569313,-0.015180888585746288,-0.19672036170959473,0.4011216163635254,-0.26454514265060425,-9.679672241210938
1745664014.3751447,-0.017743084579706192,-0.005416368134319782,-0.19608089327812195,0.2428431212902069,0.18434281647205353,-9.854540824890137
1745664014.3778849,-0.00909202080219984,-0.006033550947904587,-0.20031309127807617,0.37282004952430725,-0.26047414541244507,-9.897465705871582
1745664014.3821044,0.004557321313768625,-0.015023522078990936,-0.20297479629516602,0.19133958220481873,0.034428589046001434,-9.679423332214355
1745664014.3835657,-0.0019484866643324494,-0.004109663888812065,-0.2069254219532013,0.45709723234176636,-0.5108950734138489,-9.687747955322266
1745664014.4167204,-0.006628293544054031,-0.010798392817378044,-0.20309846103191376,0.3837554454803467,-0.4049881398677826,-9.880411148071289
1745664014.418775,-0.020976176485419273,-0.008448142558336258,-0.20295004546642303,0.41708627343177795,-0.6160460710525513,-9.887060165405273
1745664014.420979,-0.03230803459882736,-0.007940294221043587,-0.20078632235527039,0.4575534760951996,-0.5784887075424194,-9.698949813842773
1745664014.4227114,-0.02959270402789116,-0.003077335888519883,-0.19890978932380676,0.22283992171287537,-0.388378769159317,-9.715829849243164
1745664014.4258335,-0.03618171066045761,-0.015514184720814228,-0.19772286713123322,0.47094735503196716,-0.39186325669288635,-9.797205924987793
1745664014.4654684,-0.03352891653776169,-0.009210445918142796,-0.19846409559249878,0.2030075341463089,-0.15637221932411194,-10.027397155761719
1745664014.4665596,-0.014498203992843628,0.0017218698048964143,-0.19883207976818085,0.22798164188861847,-0.15884466469287872,-9.827824592590332
1745664014.4691365,-0.027934376150369644,-0.013997027650475502,-0.20376808941364288,0.17361792922019958,-0.18670862913131714,-9.477200508117676
1745664014.470696,0.0009674308821558952,-0.0033974647521972656,-0.19962213933467865,0.3513638377189636,-0.2682012915611267,-9.577150344848633
1745664014.5040016,-0.022320939227938652,-0.0031586638651788235,-0.19980373978614807,0.44271382689476013,-0.33317598700523376,-10.082457542419434
1745664014.50904,-0.004875518381595612,-0.006158860865980387,-0.20178866386413574,0.25982046127319336,-0.26406988501548767,-10.004091262817383
1745664014.5123653,-0.016726117581129074,-0.0009234763565473258,-0.19738510251045227,0.5716058611869812,-0.4439140856266022,-9.4883394241333
1745664014.5174322,-0.0117388516664505,-0.005804677493870258,-0.1991145759820938,0.23287682235240936,-0.23986563086509705,-9.76630687713623
1745664014.5211182,-0.010444474406540394,-0.011571194976568222,-0.19743871688842773,0.3663175702095032,-0.27206602692604065,-9.969343185424805
1745664014.5482523,-0.015965377911925316,-0.0030059251002967358,-0.20079536736011505,0.32227692008018494,-0.27077698707580566,-9.819639205932617
1745664014.550978,-0.015502127818763256,0.0004328331851866096,-0.19591504335403442,0.21074433624744415,-0.17919668555259705,-9.646062850952148
1745664014.5521128,-0.021004443988204002,-0.011546284891664982,-0.19793853163719177,0.43134862184524536,-0.36217278242111206,-10.012847900390625
1745664014.5537145,-0.005538555793464184,-0.0014114764053374529,-0.2000626027584076,0.21599707007408142,-0.130909264087677,-9.887116432189941
1745664014.5915372,-0.011682603508234024,0.0020544673316180706,-0.19706054031848907,0.38514795899391174,-0.2687268555164337,-9.541433334350586
1745664014.5949078,-0.0027536668349057436,-0.007059321738779545,-0.19390980899333954,0.25253137946128845,-0.26282721757888794,-9.545812606811523
1745664014.5992687,0.00872789602726698,-0.00027608993696048856,-0.19310130178928375,0.2300250232219696,-0.23523589968681335,-9.911395072937012
1745664014.6020656,1.7748772734194063e-05,0.006629823707044125,-0.18707168102264404,0.2894352078437805,-0.46449655294418335,-9.990886688232422
1745664014.6368504,0.01575370505452156,-0.00640473235398531,-0.1826426386833191,0.06276538223028183,-0.2171698361635208,-9.656987190246582
1745664014.6379075,-0.0013279851991683245,-0.0045439135283231735,-0.18016356229782104,0.3145289421081543,-0.4512532353401184,-9.612427711486816
1745664014.6379876,0.00208838889375329,0.00945807434618473,-0.18111124634742737,-0.022246062755584717,-0.031324602663517,-9.823631286621094
1745664014.6392367,-0.017070619389414787,-0.009322923608124256,-0.18113580346107483,0.4364570677280426,-0.6191026568412781,-9.763602256774902
1745664014.639813,-0.0032724495977163315,-0.009258490987122059,-0.18093226850032806,0.4157859683036804,-0.004356747958809137,-9.759273529052734
1745664014.6825874,-0.037183977663517,0.001347241923213005,-0.17613905668258667,0.24877047538757324,-0.7526175379753113,-10.181364059448242
1745664014.6857948,-0.0031384900212287903,-0.014198867604136467,-0.17182527482509613,0.33087658882141113,-0.18842145800590515,-9.60312557220459
1745664014.6897051,-0.04384367913007736,-0.005984767340123653,-0.16658784449100494,0.3134087920188904,-0.40166813135147095,-9.550374984741211
1745664014.6945388,-0.03186456114053726,-0.0026932661421597004,-0.107805036008358,0.20213451981544495,-0.31139034032821655,-9.470818519592285
1745664014.7198231,-0.0193045474588871,-0.0009461937588639557,-0.10444705188274384,0.26038816571235657,-0.40112584829330444,-9.48176383972168
1745664014.7297275,-0.04321058839559555,-0.008766643702983856,-0.10556019842624664,0.3556542992591858,-0.17551657557487488,-9.92464828491211
1745664014.7298295,-0.028374221175909042,0.003120705019682646,-0.10840121656656265,0.19235540926456451,-0.2525355815887451,-10.137434959411621
1745664014.7307758,-0.034784454852342606,-0.0004882003995589912,-0.10582640022039413,0.408953994512558,-0.17782343924045563,-9.541444778442383
1745664014.7621663,-0.0452621728181839,0.000486226927023381,-0.10588469356298447,0.18228299915790558,-0.26011496782302856,-9.546415328979492
1745664014.7639744,-0.039020031690597534,-0.007962440140545368,-0.10121683776378632,0.4395611882209778,-0.405305951833725,-9.927492141723633
1745664014.7668483,-0.04009817913174629,-0.0027477387338876724,-0.09658694267272949,0.3096955716609955,-0.19187285006046295,-10.090017318725586
1745664014.7701566,-0.03110629878938198,0.005934182554483414,-0.09314016252756119,0.346451073884964,-0.2154860943555832,-9.684549331665039
1745664014.7742631,-0.032037120312452316,-0.00963716022670269,-0.08948998153209686,0.41150861978530884,-0.1924881637096405,-9.480276107788086
1745664014.8061626,-0.01980772614479065,-0.003883545519784093,-0.08770731836557388,0.2774198353290558,0.04972691088914871,-9.879633903503418
1745664014.8068545,-0.038272373378276825,-0.003966142889112234,-0.08793547004461288,0.3143065571784973,-0.3843832314014435,-10.184202194213867
1745664014.8097703,-0.0066363015212118626,0.0012052429374307394,-0.08630619198083878,0.10748080909252167,0.018607627600431442,-9.600006103515625
1745664014.81356,-0.03981078416109085,-0.005237010307610035,-0.08484604954719543,0.4054308831691742,-0.39611580967903137,-9.455659866333008
1745664014.8495595,-0.019266542047262192,-0.00791564304381609,-0.08228380978107452,0.22278323769569397,-0.08247081190347672,-9.923041343688965
1745664014.8510735,-0.03663221746683121,-0.00023687518842052668,-0.08134999126195908,0.37464049458503723,-0.4345608651638031,-10.063199043273926
1745664014.8539524,-0.0323910191655159,-0.00174701027572155,-0.076667919754982,0.34901753067970276,-0.14332202076911926,-9.592948913574219
1745664014.8545072,-0.03883142024278641,0.002212942810729146,-0.07402396947145462,0.20190644264221191,-0.33995890617370605,-9.615671157836914
1745664014.8951623,-0.03716005012392998,-0.010441969148814678,-0.07336295396089554,0.4115702211856842,-0.3147536516189575,-9.78841781616211
1745664014.8952491,-0.04239095002412796,0.006196572445333004,-0.06798161566257477,0.1084514856338501,-0.10506682097911835,-10.025350570678711
1745664014.8952978,-0.03810632973909378,0.0022538863122463226,-0.06775043159723282,0.21509289741516113,-0.38224130868911743,-9.73784351348877
1745664014.897045,-0.04415950924158096,-0.0071682920679450035,-0.049461398273706436,0.26583409309387207,0.08340167999267578,-9.695417404174805
1745664014.8993015,-0.037433922290802,0.003310053376480937,-0.04693988710641861,0.28050488233566284,-0.22004835307598114,-10.0324125289917
1745664014.9350379,-0.044493578374385834,-0.0033509042114019394,-0.04322313517332077,0.3146865963935852,-0.012306958436965942,-9.736907958984375
1745664014.936898,-0.03660361096262932,0.0013456306187435985,-0.04001101478934288,0.23219457268714905,-0.2892809808254242,-9.699015617370605
1745664014.9394732,-0.04177339747548103,-0.002604957902804017,-0.03778255358338356,0.45519423484802246,-0.09640337526798248,-9.680255889892578
1745664014.9425306,-0.04106861725449562,-0.0004170294851064682,-0.03537636250257492,0.23493726551532745,-0.16745628416538239,-9.960411071777344
1745664014.977377,-0.03896290808916092,0.002669460838660598,-0.033445339649915695,0.3856757581233978,-0.24759230017662048,-9.776243209838867
1745664014.9992726,-0.04872764274477959,-0.000579522515181452,-0.030314069241285324,0.2128656655550003,-0.15091285109519958,-9.6242036819458
1745664014.9993517,-0.04175221174955368,0.003888540668413043,-0.02841953933238983,0.2933045029640198,-0.26175856590270996,-9.732316017150879
1745664014.9994004,-0.05718749016523361,-0.0011450370075181127,-0.026145070791244507,0.2608911991119385,-0.20475375652313232,-9.88853645324707
1745664014.9994562,-0.04711003601551056,0.007210280746221542,-0.026921695098280907,0.20217354595661163,-0.06855979561805725,-9.747448921203613
1745664015.0225432,-0.06381586939096451,0.003625032724812627,-0.02587413229048252,0.36681443452835083,-0.1873096376657486,-9.646061897277832
1745664015.0259798,-0.05056454613804817,0.0018397275125607848,-0.02242521569132805,0.20228824019432068,-0.08366511762142181,-9.844949722290039
1745664015.029839,-0.05724028870463371,0.004807027988135815,-0.021658262237906456,0.4384126663208008,-0.23943038284778595,-9.84638786315918
1745664015.0342643,-0.062429279088974,0.004628111608326435,-0.016577932983636856,0.26709580421447754,-0.15897078812122345,-9.832791328430176
1745664015.0652833,-0.06487623602151871,-0.001792403869330883,-0.0006908014183863997,0.43932533264160156,-0.12902380526065826,-9.56365966796875
1745664015.0693457,-0.052211910486221313,0.001697035157121718,-0.0012559720780700445,0.1662743091583252,0.03425207734107971,-9.939374923706055
1745664015.0754323,-0.04441368579864502,-0.0011435869382694364,0.0008356379112228751,0.34705808758735657,0.16285669803619385,-9.860021591186523
1745664015.0755305,-0.050889622420072556,-0.0034831638913601637,-0.002000142354518175,0.15685957670211792,0.09048083424568176,-9.72273063659668
1745664015.108393,-0.023254692554473877,0.005442480556666851,0.0007032864959910512,0.3076992332935333,0.15415556728839874,-9.601024627685547
1745664015.112296,-0.04166625440120697,-0.004963313695043325,-0.0006509735248982906,0.2862929403781891,0.0607512891292572,-9.82385540008545
1745664015.115334,-0.020369771867990494,0.005080315284430981,-0.00012513808906078339,0.281777560710907,0.019200121983885765,-9.8661470413208
1745664015.1185985,-0.037414759397506714,-0.0033941406290978193,0.0007406083750538528,0.3542766571044922,-0.13058511912822723,-9.799015045166016
1745664015.1515722,-0.02766537293791771,0.0033943902235478163,0.004860734101384878,0.3070487380027771,0.01723713055253029,-9.701559066772461
1745664015.1525235,-0.03726227208971977,-0.00090140535030514,0.005475780926644802,0.3923207223415375,-0.16320550441741943,-9.802170753479004
1745664015.1548243,-0.04310264810919762,-0.0031300752889364958,0.003818924305960536,0.22693786025047302,0.03394458442926407,-9.909319877624512
1745664015.1597536,-0.03288959711790085,-0.0005102731520310044,0.004845452960580587,0.3913092017173767,0.012608526274561882,-9.749554634094238
1745664015.1624298,-0.04696125537157059,-0.002760759089142084,0.005350596271455288,0.18155550956726074,-0.025096720084547997,-9.751120567321777
1745664015.1996121,-0.03137364238500595,0.00011891163740074262,0.006775715854018927,0.23693767189979553,0.04216416925191879,-9.74015998840332
1745664015.20117,-0.04737255722284317,-0.004749811254441738,0.004546125419437885,0.33441874384880066,-0.13900499045848846,-9.797941207885742
1745664015.2021868,-0.03495626524090767,0.003366417484357953,0.010670739226043224,0.28175967931747437,0.03403787687420845,-9.794482231140137
1745664015.2040448,-0.03601909428834915,-0.0023500353563576937,0.013487530872225761,0.4673282504081726,-0.02877936325967312,-9.800861358642578
1745664015.2354205,-0.040392231196165085,-0.0012489607324823737,0.015081143006682396,0.2782778739929199,0.05688121169805527,-9.811697006225586
1745664015.2380636,-0.03382101655006409,0.0031793625093996525,0.01680590584874153,0.5099102854728699,-0.0605340376496315,-9.724883079528809
1745664015.2420971,-0.042942117899656296,-0.004560413770377636,0.018121397122740746,0.31542330980300903,0.13110078871250153,-9.797350883483887
1745664015.2449193,-0.046094860881567,-0.0038665123283863068,0.03750386834144592,0.5172266364097595,-0.030496329069137573,-9.538595199584961
1745664015.2791417,-0.04447860270738602,-0.004627687390893698,0.0364689975976944,0.25146323442459106,0.006468850187957287,-10.173124313354492
1745664015.2829146,-0.04853345826268196,0.0030993204563856125,0.038815729320049286,0.372452974319458,-0.04851629212498665,-9.937322616577148
1745664015.288183,-0.06064289063215256,0.003609362291172147,0.0409405417740345,0.2587977647781372,0.004175940062850714,-9.420048713684082
1745664015.290637,-0.047468505799770355,-0.002198186470195651,0.04329553246498108,0.4678114056587219,0.0479743592441082,-9.569905281066895
1745664015.2961087,-0.05699919909238815,-0.007996258325874805,0.0455348864197731,0.3509834408760071,0.11679418385028839,-10.211894035339355
1745664015.3238568,-0.023297347128391266,0.012692672200500965,0.04800271987915039,0.2278355062007904,0.3333330750465393,-9.968233108520508
1745664015.3255095,-0.03148879483342171,-0.002952120965346694,0.05156512185931206,0.3336430788040161,0.16164979338645935,-9.32331371307373
1745664015.3293078,-0.014143422245979309,-0.002114904811605811,0.05055223032832146,0.28072530031204224,0.23046469688415527,-9.55041790008545
1745664015.3308063,-0.014808964915573597,-0.0025012255646288395,0.05231932923197746,0.433173805475235,0.07961924374103546,-10.245558738708496
1745664015.374696,-0.013948626816272736,0.0028122328221797943,0.05274347588419914,0.09141240268945694,0.09000927209854126,-10.102151870727539
1745664015.378158,-0.009967168793082237,0.007037000264972448,0.05443713068962097,0.45443543791770935,-0.09259037673473358,-9.216850280761719
1745664015.3782103,-0.044162653386592865,-0.00700435321778059,0.05381975695490837,0.38147005438804626,-0.07914784550666809,-9.516716957092285
1745664015.3793614,-0.03574291244149208,-0.003956879023462534,0.05614880844950676,0.3625548779964447,-0.2061924934387207,-10.306879997253418
1745664015.4079924,-0.053289901465177536,0.0017361158970743418,0.058500152081251144,0.48178234696388245,-0.03482118993997574,-9.989405632019043
1745664015.4126866,-0.04261571541428566,0.0025464920327067375,0.10522614419460297,0.24754288792610168,0.46093884110450745,-9.596240997314453
1745664015.4187136,-0.03573157265782356,-0.0031751852948218584,0.10511161386966705,0.4026665687561035,0.09833469986915588,-10.027148246765137
1745664015.4201076,-0.02556721493601799,0.0008133499068208039,0.10525007545948029,0.38910573720932007,0.24884703755378723,-9.917173385620117
1745664015.4496772,-0.035542599856853485,0.01185857318341732,0.107369065284729,0.2966710329055786,0.07369295507669449,-9.659477233886719
1745664015.4519355,-0.037631697952747345,-0.009601947851479053,0.1104765385389328,0.39930054545402527,-0.049649689346551895,-9.594877243041992
1745664015.4534338,-0.040542688220739365,0.001116370433010161,0.11337865889072418,0.368729829788208,0.15830816328525543,-9.858304023742676
1745664015.4562418,-0.05635281652212143,0.0047111501917243,0.11236239969730377,0.444599449634552,-0.11837935447692871,-10.059043884277344
1745664015.4579964,-0.05099105089902878,-0.0017006626585498452,0.11388804018497467,0.25639277696609497,0.2795943021774292,-9.688894271850586
1745664015.497298,-0.05910274386405945,0.0015828892355784774,0.11553961038589478,0.4363342225551605,0.07070636004209518,-9.595149993896484
1745664015.500944,-0.06019873544573784,-0.0017147362232208252,0.11524701118469238,0.2627386748790741,0.16411468386650085,-9.846263885498047
1745664015.5011375,-0.05528531223535538,0.004625667352229357,0.11891156435012817,0.38099998235702515,0.18486011028289795,-9.864400863647461
1745664015.5017517,-0.06123299524188042,-0.001882617943920195,0.11903402954339981,0.39762622117996216,0.13414649665355682,-9.755409240722656
1745664015.5386565,-0.040012139827013016,0.005820215679705143,0.12211799621582031,0.2052842080593109,0.36314094066619873,-9.69286823272705
1745664015.5421007,-0.05447342246770859,-0.001876411261036992,0.1251244693994522,0.41877278685569763,0.158659890294075,-9.749488830566406
1745664015.5458817,-0.04088597372174263,4.4273805542616174e-05,0.12474478781223297,0.3481762111186981,0.27928057312965393,-9.79977035522461
1745664015.5508368,-0.036160822957754135,0.002607918344438076,0.1250283569097519,0.5320355296134949,0.24147501587867737,-9.803534507751465
1745664015.5564017,-0.048331983387470245,-0.002385654952377081,0.1261976957321167,0.20365607738494873,0.2880086302757263,-9.91702651977539
1745664015.5841103,-0.02910742536187172,0.0013513764133676887,0.12781549990177155,0.3764125406742096,0.08107883483171463,-9.634176254272461
1745664015.5862577,-0.05373099446296692,0.0009030699729919434,0.12853488326072693,0.4469786584377289,0.23915179073810577,-9.57887077331543
1745664015.5895367,-0.049231935292482376,0.0015363723505288363,0.12989842891693115,0.2728002965450287,0.050073254853487015,-10.023417472839355
1745664015.6234813,-0.03666854649782181,-0.0032149343751370907,0.15244828164577484,0.2546539902687073,0.40289562940597534,-9.934123039245605
1745664015.627514,-0.016737891361117363,0.0015199939953163266,0.15551909804344177,0.45649832487106323,0.2055269479751587,-9.811841011047363
1745664015.6280928,-0.04138409346342087,0.006705393549054861,0.1584566831588745,0.40171927213668823,0.20383116602897644,-9.584970474243164
1745664015.637336,-0.016484122723340988,0.005254359450191259,0.16160301864147186,0.3609744906425476,0.08285971730947495,-9.738499641418457
1745664015.6375234,-0.04865492880344391,-0.0026046843267977238,0.1636294275522232,0.4130973219871521,0.14014971256256104,-9.87977409362793
1745664015.6652071,-0.04047619178891182,0.008684213273227215,0.16396838426589966,0.2714588940143585,0.12314267456531525,-9.880002975463867
1745664015.6681385,-0.05376492813229561,0.005224516149610281,0.16379177570343018,0.48204144835472107,0.11271685361862183,-9.58165168762207
1745664015.6730592,-0.07685134559869766,-0.001245699473656714,0.16518549621105194,0.29534441232681274,0.12055035680532455,-9.806983947753906
1745664015.6743886,-0.06333936750888824,0.0016531066503375769,0.16559049487113953,0.6098851561546326,0.09973430633544922,-9.920660018920898
1745664015.7081337,-0.08663509786128998,0.007502852939069271,0.16635064780712128,0.39565855264663696,0.2508215606212616,-9.850424766540527
1745664015.7116036,-0.07369761168956757,0.000965635001193732,0.16997495293617249,0.4298641085624695,0.2023419588804245,-9.595098495483398
1745664015.7156613,-0.07238748669624329,0.004776166286319494,0.1743147075176239,0.5949315428733826,0.2845821976661682,-9.622320175170898
1745664015.7194579,-0.05243049934506416,0.005366642959415913,0.1772436648607254,0.5448199510574341,0.6092108488082886,-9.954980850219727
1745664015.7228463,-0.05095599219202995,0.002725252415984869,0.18001814186573029,0.42999395728111267,0.39747732877731323,-10.082113265991211
1745664015.7535164,-0.023061061277985573,0.004342515952885151,0.18038363754749298,0.23775716125965118,0.6977598667144775,-9.507062911987305
1745664015.7559404,-0.0315646268427372,0.012425214052200317,0.17923830449581146,0.49500590562820435,0.31805476546287537,-9.377771377563477
1745664015.7592916,-0.07227884978055954,0.010448546148836613,0.21382546424865723,0.3924776017665863,0.403153657913208,-10.170750617980957
1745664015.7624757,-0.08117484301328659,0.006697093136608601,0.21546101570129395,0.5824670791625977,0.045261796563863754,-9.556680679321289
1745664015.7974215,-0.07501926273107529,0.0030030659399926662,0.22291620075702667,0.572525143623352,0.4847041964530945,-9.299379348754883
1745664015.8006887,-0.08706166595220566,0.0056417593732476234,0.22682292759418488,0.867851734161377,0.23552975058555603,-10.047286033630371
1745664015.8127048,-0.07363580167293549,0.0014836841728538275,0.2290051281452179,0.7207968831062317,0.6216721534729004,-10.244250297546387
1745664015.8129134,-0.06477493792772293,0.008356230333447456,0.23139247298240662,0.6992810964584351,0.5358266234397888,-9.542633056640625
1745664015.8375373,-0.0734911784529686,0.0008312744903378189,0.23586022853851318,0.6451415419578552,0.5207157731056213,-9.40894603729248
1745664015.8402252,-0.04523087292909622,0.0019290640484541655,0.23783311247825623,0.521336019039154,0.7404883503913879,-9.888225555419922
1745664015.8436162,-0.06353868544101715,-0.0010893864091485739,0.23587028682231903,0.6330318450927734,0.4972306191921234,-10.094757080078125
1745664015.8487852,-0.018929708749055862,0.011031861416995525,0.23818902671337128,0.3935317397117615,0.7683357000350952,-9.64684009552002
1745664015.8515177,-0.04317665100097656,0.01109907403588295,0.24124839901924133,0.6052502989768982,0.483930766582489,-9.396953582763672
1745664015.8873363,-0.018353741616010666,-0.0055757141672074795,0.24236027896404266,0.628544807434082,0.46185389161109924,-9.773130416870117
1745664015.8884735,-0.02850206568837166,0.009661895222961903,0.24658498167991638,0.7170647382736206,0.2915438413619995,-10.105860710144043
1745664015.8921392,-0.03540210798382759,0.00777608435600996,0.2515840232372284,0.5880264639854431,0.11773236840963364,-9.884702682495117
1745664015.899373,-0.03970266506075859,0.008932789787650108,0.2549288868904114,0.4338880479335785,0.15242162346839905,-9.373991012573242
1745664015.9246113,-0.06064721196889877,0.0082963015884161,0.2612411081790924,0.6487086415290833,0.04502134770154953,-9.529840469360352
1745664015.92788,-0.06506891548633575,0.006059990264475346,0.26314082741737366,0.519537091255188,0.3047463595867157,-10.071375846862793
1745664015.9335964,-0.08301043510437012,0.013375768437981606,0.26123279333114624,0.6170885562896729,0.3116336464881897,-9.874695777893066
1745664015.9337187,-0.07689876854419708,0.006081050261855125,0.26272326707839966,0.4710931181907654,0.5094859004020691,-9.525259017944336
1745664015.9671285,-0.08448544144630432,0.010227544233202934,0.26069849729537964,0.5635033845901489,0.488788366317749,-9.656256675720215
1745664015.977227,-0.08863899111747742,0.00016043173673097044,0.26655644178390503,0.6942415237426758,0.2776019871234894,-9.965304374694824
1745664015.977339,-0.03137923777103424,0.00022418359003495425,0.2767904996871948,0.26699167490005493,0.510375440120697,-9.739148139953613
1745664015.9774094,-0.06023990362882614,0.0016175893833860755,0.27406972646713257,0.48358193039894104,0.44367098808288574,-9.378721237182617
1745664015.9774563,-0.05158735439181328,-0.006047758739441633,0.2734545171260834,0.2656922936439514,0.2931646406650543,-9.824729919433594
1745664016.0123632,-0.0463268980383873,0.0024606864899396896,0.27686795592308044,0.3372783660888672,0.237384632229805,-9.998250961303711
1745664016.0153368,-0.07717275619506836,-0.004503317642956972,0.2750508189201355,0.3604234457015991,0.21646082401275635,-9.681741714477539
1745664016.0199854,-0.04960067197680473,0.0038960897363722324,0.2824656069278717,0.4468848705291748,0.2323017567396164,-9.455089569091797
1745664016.0233624,-0.09201903641223907,-0.008194809779524803,0.2791585922241211,0.4701780676841736,0.24440574645996094,-9.85235595703125
1745664016.0529704,-0.08517329394817352,-0.005947794299572706,0.27731966972351074,0.38567033410072327,0.39082321524620056,-10.05545425415039
1745664016.0553,-0.09852288663387299,0.0005191061645746231,0.2806376814842224,0.5896346569061279,0.3030993342399597,-9.637795448303223
1745664016.0574863,-0.10510518401861191,-0.00882391631603241,0.27460208535194397,0.48248428106307983,0.6296551823616028,-9.479981422424316
1745664016.0584347,-0.10470988601446152,-0.012186693027615547,0.2764114737510681,0.5504859089851379,0.5714185833930969,-9.942842483520508
1745664016.0623531,-0.10288532823324203,-0.015013648197054863,0.27655038237571716,0.46204447746276855,0.6091073751449585,-10.09920883178711
1745664016.0976412,-0.0796177014708519,-0.002369154244661331,0.2745354473590851,0.4756792485713959,0.9875242114067078,-9.452569007873535
1745664016.1003077,-0.08711519092321396,-0.02297029085457325,0.2743787467479706,0.4954688549041748,0.6091059446334839,-9.525449752807617
1745664016.1013837,-0.03801756352186203,-0.020703528076410294,0.2764202654361725,0.44580116868019104,1.0357558727264404,-9.881953239440918
1745664016.1044517,-0.06048334762454033,-0.032568853348493576,0.28835615515708923,0.42452844977378845,0.7369231581687927,-9.847577095031738
1745664016.144092,-0.0532115176320076,-0.017322834581136703,0.29280397295951843,0.32960373163223267,0.586110532283783,-10.112943649291992
1745664016.1441946,-0.05845869332551956,-0.02830902300775051,0.29184165596961975,0.730280339717865,0.5159262418746948,-9.45096206665039
1745664016.148287,-0.05695159360766411,-0.021342290565371513,0.2969120442867279,0.6130455732345581,0.6633513569831848,-9.557662963867188
1745664016.1561913,-0.06932283937931061,-0.024253815412521362,0.29829859733581543,0.7066124081611633,0.48131313920021057,-10.143799781799316
1745664016.183007,-0.0710475891828537,-0.025774672627449036,0.29871296882629395,0.5840805768966675,0.7052677273750305,-9.987390518188477
1745664016.1859777,-0.06027858704328537,-0.019273439422249794,0.3011314272880554,0.8126837015151978,0.8195701837539673,-9.420376777648926
1745664016.1864645,-0.0834207534790039,-0.03150360658764839,0.2990693747997284,0.4753273129463196,0.782930850982666,-9.801694869995117
1745664016.1896493,-0.037119802087545395,-0.02666507102549076,0.29953640699386597,0.4846806526184082,0.8389570116996765,-10.029268264770508
1745664016.2263186,-0.06193546578288078,-0.02044803835451603,0.30216091871261597,0.5324946045875549,0.9406663179397583,-9.653139114379883
1745664016.229485,-0.025673314929008484,-0.024058006703853607,0.30269792675971985,0.32767751812934875,0.7113977074623108,-9.613166809082031
1745664016.233021,-0.020355118438601494,-0.023498937487602234,0.30558061599731445,0.6239908933639526,0.813308835029602,-9.647046089172363
1745664016.2377908,-0.023450400680303574,-0.016514688730239868,0.3086945116519928,0.3251837193965912,0.5845572352409363,-10.045394897460938
1745664016.2411456,-0.01922420784831047,-0.016650203615427017,0.30900901556015015,0.6201680302619934,0.5287262201309204,-9.667951583862305
1745664016.270522,-0.027495289221405983,-0.025737155228853226,0.3102397918701172,0.544281005859375,0.4171068072319031,-9.63295841217041
1745664016.2728443,-0.03591780737042427,-0.015521692112088203,0.313149631023407,0.498203843832016,0.499943345785141,-9.966005325317383
1745664016.2761283,-0.0696210265159607,-0.01912710815668106,0.3111475706100464,0.5203107595443726,0.19833235442638397,-9.866320610046387
1745664016.2790208,-0.06495921313762665,-0.015865182504057884,0.3111013174057007,0.5023018717765808,0.5518954396247864,-9.432104110717773
1745664016.3116677,-0.10159746557474136,-0.01970910280942917,0.3116782307624817,0.6237525343894958,0.45317864418029785,-9.734678268432617
1745664016.3160877,-0.09127147495746613,-0.020536178722977638,0.31149980425834656,0.4409785866737366,0.759605348110199,-10.08699893951416
1745664016.3210604,-0.07331937551498413,-0.017942283302545547,0.32306748628616333,0.5458253026008606,0.36954861879348755,-9.865771293640137
1745664016.3235524,-0.06588075309991837,-0.012081068009138107,0.32210683822631836,0.37182489037513733,0.49502164125442505,-10.047440528869629
1745664016.3562639,-0.07192006707191467,-0.017418617382645607,0.3259180188179016,0.5838454961776733,0.6354837417602539,-9.557512283325195
1745664016.3579328,-0.07314083725214005,-0.01020103320479393,0.32866108417510986,0.36294013261795044,0.7588623762130737,-9.636981964111328
1745664016.360898,-0.0625242292881012,-0.014847601763904095,0.3282230496406555,0.5720880627632141,0.754111647605896,-9.804808616638184
1745664016.3626497,-0.06473540514707565,-0.018252721056342125,0.3269908130168915,0.2976354956626892,0.8868778347969055,-9.961491584777832
1745664016.3642552,-0.03783925250172615,-0.009542547166347504,0.329154372215271,0.5281872749328613,0.7515277862548828,-9.638322830200195
1745664016.3989341,-0.06031890586018562,-0.01459028571844101,0.32829493284225464,0.45031458139419556,0.902289867401123,-9.504359245300293
1745664016.399957,-0.040778081864118576,-0.015738779678940773,0.32936280965805054,0.5078681707382202,0.665015697479248,-9.883379936218262
1745664016.4027817,-0.04385056346654892,-0.016156254336237907,0.32906174659729004,0.6519376635551453,0.8508440256118774,-9.895808219909668
1745664016.404503,-0.0555013045668602,-0.009023182094097137,0.32801833748817444,0.41053295135498047,0.8200080990791321,-9.788029670715332
1745664016.4434826,-0.03631391376256943,-0.026316862553358078,0.3260260224342346,0.6369652152061462,0.7820959091186523,-9.577410697937012
1745664016.4467537,-0.04660382121801376,-0.018731625750660896,0.32390910387039185,0.20288042724132538,1.009011149406433,-9.851097106933594
1745664016.4509988,-0.027608925476670265,-0.014517349191009998,0.3230143189430237,0.2844385504722595,0.6849902868270874,-9.856637001037598
1745664016.4536054,-0.0283303614705801,-0.026823943480849266,0.31836041808128357,0.26664629578590393,1.0373871326446533,-9.53510856628418
1745664016.4867718,-0.007810920476913452,-0.026654371991753578,0.30783501267433167,0.21855130791664124,1.1388909816741943,-9.881084442138672
1745664016.4881063,2.2506341338157654e-05,-0.029148489236831665,0.3060682713985443,0.49771302938461304,1.1495057344436646,-8.993157386779785
1745664016.4907281,-0.003087049350142479,-0.04020059108734131,0.3037582039833069,0.2974912226200104,0.8179925084114075,-9.699073791503906
1745664016.493953,0.026022057980298996,-0.0362350232899189,0.30578264594078064,0.5693628191947937,0.8190949559211731,-10.267026901245117
1745664016.5263238,-0.004649578593671322,-0.023143062368035316,0.3035595417022705,0.36441877484321594,0.6969044804573059,-9.954870223999023
1745664016.5302482,0.018161103129386902,-0.031670358031988144,0.3054055869579315,0.458292156457901,0.6009218096733093,-9.247509956359863
1745664016.5318913,-0.021536221727728844,-0.044261813163757324,0.30547577142715454,0.49307766556739807,0.5069697499275208,-9.604837417602539
1745664016.5332265,-0.0038574221543967724,-0.028938252478837967,0.30756545066833496,0.3530038893222809,0.6320565938949585,-10.236959457397461
1745664016.5347662,-0.025511741638183594,-0.02488524280488491,0.3050103783607483,0.35720327496528625,0.6002328395843506,-9.826295852661133
1745664016.5716138,-0.030151385813951492,-0.033828940242528915,0.30363401770591736,0.251685231924057,0.687920331954956,-9.291239738464355
1745664016.5755863,-0.016702424734830856,-0.036869779229164124,0.30711907148361206,0.5517415404319763,0.6466741561889648,-9.62557315826416
1745664016.5785403,-0.042267389595508575,-0.023197617381811142,0.3061962127685547,0.23502802848815918,0.7698161602020264,-10.315122604370117
1745664016.5811512,-0.021832967177033424,-0.022955376654863358,0.31072744727134705,0.4988768696784973,0.47664275765419006,-9.786613464355469
1745664016.6124408,-0.030566638335585594,-0.028512626886367798,0.3145694136619568,0.6517875790596008,0.8178509473800659,-9.17713737487793
1745664016.6161485,-0.0384710319340229,-0.023788508027791977,0.3190460205078125,0.5139129161834717,0.7110036611557007,-9.882705688476562
1745664016.619137,-0.031981706619262695,-0.031161490827798843,0.3185901641845703,0.7031102776527405,0.7982398271560669,-10.215252876281738
1745664016.6212125,-0.026896143332123756,-0.02076862007379532,0.3182019889354706,0.5820592641830444,1.1424157619476318,-9.739535331726074
1745664016.6278598,-0.025474172085523605,-0.028688903898000717,0.3175387978553772,0.5748113393783569,0.9567608833312988,-9.443877220153809
1745664016.6601548,-0.011125748977065086,-0.03183344006538391,0.3172309100627899,0.35468676686286926,1.1724064350128174,-9.75285816192627
1745664016.6624718,0.006649720016866922,-0.020665619522333145,0.31635501980781555,0.4810115396976471,0.9785193204879761,-9.962779998779297
1745664016.667923,-0.0382249541580677,-0.01498093456029892,0.33097124099731445,0.6097930669784546,0.8504685163497925,-9.830154418945312
1745664016.697638,-0.028487836942076683,-0.01408002246171236,0.333484411239624,0.30832594633102417,1.1438076496124268,-9.872611999511719
1745664016.700153,-0.00029138923855498433,-0.01360041368752718,0.33567604422569275,0.5375138521194458,0.8969346880912781,-9.715219497680664
1745664016.702708,0.0007476120954379439,-0.00973441917449236,0.33644190430641174,0.321463406085968,1.2692228555679321,-9.60663890838623
1745664016.704218,0.020334821194410324,-0.014673988334834576,0.3350749909877777,0.437491238117218,0.7922549247741699,-9.824346542358398
1745664016.7054732,0.025867238640785217,-0.017583604902029037,0.3337801992893219,0.5020871758460999,0.9759812355041504,-9.791881561279297
1745664016.7427626,0.0158794317394495,-0.005709150806069374,0.33108407258987427,0.365307092666626,0.7675245404243469,-9.826451301574707
1745664016.744496,0.016283169388771057,-0.016037363559007645,0.33224496245384216,0.5232121348381042,0.4515821039676666,-9.66065502166748
1745664016.746053,0.0009693818283267319,-0.011048664338886738,0.33451029658317566,0.48087388277053833,0.6395681500434875,-9.618295669555664
1745664016.7492201,-0.013627533800899982,-0.008718222379684448,0.3375675082206726,0.556991696357727,0.25996893644332886,-9.946595191955566
1745664016.7839367,-0.021465709432959557,-0.010783213190734386,0.3382554352283478,0.3711312711238861,0.7383798956871033,-9.82266616821289
1745664016.7864997,-0.026734571903944016,-0.009283920750021935,0.3411337733268738,0.4789845049381256,0.4902172088623047,-9.623499870300293
1745664016.7882965,-0.02593555673956871,-0.011549021117389202,0.3398943245410919,0.40195465087890625,0.8191807866096497,-9.631784439086914
1745664016.790711,-0.03661210462450981,-0.0055769579485058784,0.3397890329360962,0.3412543833255768,0.7893778681755066,-9.937155723571777
1745664016.8266585,-0.0209750235080719,-0.01339664775878191,0.3392072319984436,0.4757595658302307,0.7464323043823242,-9.756789207458496
1745664016.8285153,-0.000845012255012989,-0.01251248735934496,0.3447100520133972,0.23649783432483673,0.6851840019226074,-9.821303367614746
1745664016.8465576,6.928881339263171e-05,-0.016828503459692,0.34265753626823425,0.601216197013855,0.7034841179847717,-9.678461074829102
1745664016.8466232,-0.017572056502103806,-0.017972121015191078,0.34289461374282837,0.45430564880371094,0.5997844338417053,-9.833783149719238
1745664016.8711727,-0.008269431069493294,-0.009088033810257912,0.34150782227516174,0.5266302824020386,0.6828996539115906,-9.788726806640625
1745664016.8750706,-0.04968022182583809,-0.02308068983256817,0.342942476272583,0.4610061049461365,0.46163755655288696,-9.73746395111084
1745664016.8802207,-0.017085880041122437,-0.01727179065346718,0.34279710054397583,0.5335389375686646,0.7359802722930908,-9.552762985229492
1745664016.8832262,-0.05930038541555405,-0.016648415476083755,0.3446280360221863,0.4854615330696106,0.6957594156265259,-9.824620246887207
1745664016.9159732,-0.03690137714147568,-0.01880967803299427,0.3462202250957489,0.3729706406593323,0.7150405645370483,-9.953428268432617
1745664016.9192178,-0.02647324837744236,-0.014823868870735168,0.34917813539505005,0.6406499743461609,0.9898533821105957,-9.46342658996582
1745664016.9379463,-0.03945174068212509,-0.018330167979002,0.3478536009788513,0.26333528757095337,0.9542112350463867,-9.715864181518555
1745664016.9380603,0.004472516477108002,-0.021408449858427048,0.3468439280986786,0.5397019982337952,0.9779893755912781,-9.8245267868042
1745664016.9381285,-0.018640199676156044,-0.01930280588567257,0.3489747941493988,0.44229817390441895,0.9519213438034058,-9.839330673217773
1745664016.9617038,0.016283292323350906,-0.014404824003577232,0.34636765718460083,0.40063971281051636,0.9208995699882507,-9.66563606262207
1745664016.963812,-0.009008082561194897,-0.0253938976675272,0.3488205075263977,0.45976942777633667,0.7634507417678833,-9.654016494750977
1745664016.965118,0.008103047497570515,-0.018855910748243332,0.34793317317962646,0.43324071168899536,0.594136655330658,-9.809938430786133
1745664016.9670012,-0.010948398150503635,-0.01792328432202339,0.3493167757987976,0.6257288455963135,0.731748104095459,-9.693375587463379
1745664017.0003674,-0.026691297069191933,-0.026187259703874588,0.3476240634918213,0.3484085202217102,0.5414413809776306,-9.860929489135742
1745664017.0033393,-0.005189337767660618,-0.02053787373006344,0.34949082136154175,0.5761452913284302,0.7054405212402344,-9.691015243530273
1745664017.0080564,-0.04487521946430206,-0.0212655421346426,0.35124197602272034,0.3527057468891144,0.6925849318504333,-9.75112247467041
1745664017.0110755,-0.020081210881471634,-0.02160407416522503,0.3521062433719635,0.4135841429233551,0.6799696683883667,-9.750407218933105
1745664017.0144522,-0.04004047065973282,-0.03828737884759903,0.32901543378829956,0.4118843078613281,0.7016860842704773,-9.863136291503906
1745664017.045164,-0.05534013360738754,-0.034172192215919495,0.32663649320602417,0.11810602247714996,0.9400493502616882,-10.034358024597168
1745664017.0466595,-0.03266904875636101,-0.034316740930080414,0.32647448778152466,0.3602702021598816,0.9491564035415649,-9.493270874023438
1745664017.0490131,-0.027313992381095886,-0.04494641348719597,0.3255082964897156,0.42592936754226685,1.0904392004013062,-9.494483947753906
1745664017.0516105,0.00020183026208542287,-0.036541275680065155,0.3238353133201599,0.2855303883552551,1.1552379131317139,-10.11413288116455
1745664017.0925524,0.004227559082210064,-0.03820287063717842,0.32309526205062866,0.33675041794776917,0.8826534152030945,-10.008146286010742
1745664017.0951788,0.028955429792404175,-0.037377238273620605,0.32329946756362915,0.31327372789382935,1.0671216249465942,-9.298839569091797
1745664017.0957446,0.019442114979028702,-0.043153662234544754,0.32371410727500916,0.41057920455932617,0.669890284538269,-9.573606491088867
1745664017.0997674,0.026504889130592346,-0.04592035338282585,0.32163530588150024,0.1829538494348526,0.8183820843696594,-10.160667419433594
1745664017.1292684,0.021856404840946198,-0.03127140551805496,0.3186247944831848,0.34624165296554565,0.65571528673172,-9.90197467803955
1745664017.1335723,-0.00025203422410413623,-0.04139866307377815,0.318268358707428,0.32977360486984253,0.6667707562446594,-9.365816116333008
1745664017.1360126,0.0026806346140801907,-0.04521095007658005,0.3143870234489441,0.41014963388442993,0.5658886432647705,-9.62437629699707
1745664017.1382165,-0.01500285230576992,-0.044735122472047806,0.31246742606163025,0.3519136309623718,0.5321170091629028,-10.151961326599121
1745664017.139607,-0.01602969691157341,-0.03265722468495369,0.31785300374031067,0.15772771835327148,0.6156805753707886,-9.930977821350098
1745664017.1741893,-0.0281683262437582,-0.04284481331706047,0.31665873527526855,0.4749523997306824,0.5076321363449097,-9.25979995727539
1745664017.1762602,-0.01458344329148531,-0.04675182327628136,0.3192768096923828,0.3605876564979553,0.9200547933578491,-9.677690505981445
1745664017.1823065,0.05377720668911934,-0.02768050692975521,0.32766294479370117,0.4843217432498932,0.983067512512207,-9.969056129455566
1745664017.1837118,0.051816750317811966,-0.020433327183127403,0.3271353244781494,0.28859519958496094,0.7580108642578125,-10.319243431091309
1745664017.2179568,0.06253819167613983,-0.010285702534019947,0.32905539870262146,0.44394296407699585,0.549264132976532,-9.52067756652832
1745664017.220049,0.04050504043698311,-0.02586575783789158,0.33201882243156433,0.48509305715560913,0.3560921847820282,-9.256570816040039
1745664017.2228527,0.027098771184682846,-0.018896549940109253,0.33498185873031616,0.2627331614494324,0.4240722060203552,-10.023601531982422
1745664017.2229526,-0.004966232925653458,-0.009944500401616096,0.3353748023509979,0.47587791085243225,0.15350863337516785,-10.13025188446045
1745664017.2583225,-0.012421635910868645,-0.008629227988421917,0.3335740566253662,0.38146281242370605,0.619350790977478,-9.424360275268555
1745664017.260698,-0.046645261347293854,-0.015164460055530071,0.3316926956176758,0.4308459758758545,0.38320112228393555,-9.553677558898926
1745664017.2639103,-0.044308990240097046,-0.018880661576986313,0.3349032402038574,0.35973459482192993,0.6619833707809448,-9.998018264770508
1745664017.2667563,-0.04886121302843094,0.0018344603013247252,0.3325979709625244,0.5013303756713867,0.7434089183807373,-9.892840385437012
1745664017.2707708,-0.046739332377910614,-0.011618470773100853,0.3380225896835327,0.4522519111633301,0.842694878578186,-9.516627311706543
1745664017.3040707,-0.023253880441188812,-0.013375446200370789,0.33898472785949707,0.3306344747543335,1.082479476928711,-9.70206069946289
1745664017.3077793,-0.013221219182014465,-0.008038208819925785,0.3413551151752472,0.465731143951416,0.9025932550430298,-9.998092651367188
1745664017.312406,0.013699824921786785,0.0004563024267554283,0.34130796790122986,0.27917665243148804,1.299595594406128,-9.77369213104248
1745664017.3148396,0.01730979233980179,-0.00950995646417141,0.33836427330970764,0.45737212896347046,0.8408942222595215,-9.57214641571045
1745664017.3440728,0.037826523184776306,-0.011663353070616722,0.3362458646297455,0.39775675535202026,1.0837719440460205,-9.730496406555176
1745664017.3463354,0.021684791892766953,0.0007555315969511867,0.3375207781791687,0.3908923864364624,0.708217203617096,-9.992064476013184
1745664017.3475993,0.01892089657485485,-0.009593071416020393,0.33678722381591797,0.4128791391849518,0.5188033580780029,-9.746763229370117
1745664017.3502345,0.01174028217792511,-0.002419696655124426,0.3402167856693268,0.524348795413971,0.5205503702163696,-9.462363243103027
1745664017.389417,-0.0010761938756331801,0.008422189392149448,0.3483521044254303,0.3656542897224426,0.8786318898200989,-9.823468208312988
1745664017.3926551,-0.0225481316447258,-0.005371407605707645,0.34805774688720703,0.35838717222213745,0.6450103521347046,-9.608871459960938
1745664017.3963714,0.006753987167030573,-0.005514197982847691,0.34503161907196045,0.4263830780982971,0.8980239629745483,-9.566576957702637
1745664017.3996894,-0.022617468610405922,-0.0027893080841749907,0.34791484475135803,0.4662539064884186,0.6299942135810852,-9.985238075256348
1745664017.4293609,-0.006561316549777985,-0.00024303756072185934,0.34851568937301636,0.29113516211509705,0.6436362862586975,-9.934722900390625
1745664017.4326656,-0.01512985210865736,-0.0017390890279784799,0.35001954436302185,0.5610162019729614,0.5214768052101135,-9.403905868530273
1745664017.4339151,-0.028020132333040237,-0.0015782596310600638,0.35110771656036377,0.37663534283638,0.6559379696846008,-9.655569076538086
1745664017.4356241,-0.021777663379907608,-0.0007498416816815734,0.35451656579971313,0.45596426725387573,0.615704357624054,-10.00782299041748
1745664017.4377098,-0.03592810407280922,-0.004065726418048143,0.3517254889011383,0.47926682233810425,0.7327085733413696,-9.76225757598877
1745664017.479953,-0.01878128945827484,0.0024899416603147984,0.3506888747215271,0.4155808091163635,0.8820433616638184,-9.4952392578125
1745664017.4813447,-0.042656440287828445,-0.007751937955617905,0.35018569231033325,0.4585605263710022,0.8188149333000183,-9.738102912902832
1745664017.482898,-0.02702193893492222,-0.007688299752771854,0.34936943650245667,0.3533627390861511,0.8137103319168091,-9.942209243774414
1745664017.4841788,-0.02125951275229454,-0.0011787016410380602,0.34984272718429565,0.5612289309501648,0.7889218330383301,-9.641450881958008
1745664017.5183604,-0.03706729784607887,-0.0036460005212575197,0.3512983024120331,0.2682719826698303,0.8012822866439819,-9.664299964904785
1745664017.5210953,-0.009230637922883034,-0.00970547180622816,0.353414922952652,0.5961213111877441,0.7859933972358704,-9.693220138549805
1745664017.5248919,-0.021114762872457504,-0.006432694382965565,0.35434451699256897,0.49408116936683655,0.9383640289306641,-9.869288444519043
1745664017.5284595,-0.007003503851592541,-0.0004567534779198468,0.3521486222743988,0.3579556941986084,0.7938345670700073,-9.829615592956543
1745664017.5316308,-0.04128522798418999,-0.02433059550821781,0.36018136143684387,0.505134642124176,0.6392098665237427,-9.745689392089844
1745664017.5629756,-0.026662271469831467,-0.013932185247540474,0.3619309067726135,0.3862082064151764,0.9437516331672668,-9.687446594238281
1745664017.5652387,-0.048146504908800125,-0.02450014278292656,0.359730064868927,0.5156388878822327,0.6703477501869202,-9.758039474487305
1745664017.5660746,-0.027585258707404137,-0.024104291573166847,0.35873907804489136,0.4198480248451233,0.9595643877983093,-9.729000091552734
1745664017.5675101,-0.037636347115039825,-0.01902616024017334,0.35877466201782227,0.5273727178573608,0.8495727777481079,-9.770685195922852
1745664017.6054432,-0.037647247314453125,-0.027296194806694984,0.3583005368709564,0.2969578206539154,0.7681425213813782,-9.810888290405273
1745664017.6084795,-0.02243213914334774,-0.02298920229077339,0.3578079640865326,0.4593520164489746,0.8483961820602417,-9.556424140930176
1745664017.6119795,-0.04143654182553291,-0.021824270486831665,0.36074137687683105,0.4450345039367676,0.7275345921516418,-9.6634521484375
1745664017.612799,-0.02269919216632843,-0.02004164829850197,0.36167341470718384,0.340671569108963,0.7983205914497375,-9.856270790100098
1745664017.6460588,-0.03473334759473801,-0.027471721172332764,0.3604748845100403,0.5709354281425476,0.716245710849762,-9.741552352905273
1745664017.6480627,-0.02265440672636032,-0.02181992307305336,0.36205559968948364,0.3467370569705963,0.907093346118927,-9.75074577331543
1745664017.6481144,-0.028775343671441078,-0.020416010171175003,0.36312204599380493,0.5009921193122864,0.7050040364265442,-9.756231307983398
1745664017.6554763,-0.043961361050605774,-0.02820904180407524,0.36128243803977966,0.3554461598396301,0.6777212023735046,-9.730220794677734
1745664017.6610649,-0.026998817920684814,-0.025022074580192566,0.3621452748775482,0.5219051241874695,0.7412450313568115,-9.642732620239258
1745664017.6895745,-0.058846037834882736,-0.02427547052502632,0.3614971935749054,0.3603852391242981,0.7385388612747192,-9.828027725219727
1745664017.6920865,-0.04114612564444542,-0.026280049234628677,0.3616063892841339,0.4314131736755371,0.7589007616043091,-9.803431510925293
1745664017.6930683,-0.0505450963973999,-0.029027730226516724,0.36052197217941284,0.6134709119796753,0.8248822093009949,-9.621789932250977
1745664017.6955662,-0.048962272703647614,-0.022897986695170403,0.36186355352401733,0.32950741052627563,0.9172165989875793,-9.825920104980469
1745664017.730715,-0.03782675415277481,-0.02953977882862091,0.3626707196235657,0.5064638257026672,0.7540431022644043,-9.783504486083984
1745664017.7338617,-0.04299290105700493,-0.02822464145720005,0.36519670486450195,0.3960699439048767,0.9436944127082825,-9.60972785949707
1745664017.7362628,-0.03799327462911606,-0.030892908573150635,0.3620559573173523,0.3142930865287781,0.9769492149353027,-9.655271530151367
1745664017.7389655,-0.029957497492432594,-0.03681550920009613,0.3634273409843445,0.5404728651046753,0.820658802986145,-9.724435806274414
1745664017.7749004,-0.033820074051618576,-0.02681575156748295,0.3606042265892029,0.317440927028656,1.0672848224639893,-9.899221420288086
1745664017.7775042,-0.031161582097411156,-0.03387489169836044,0.3627707362174988,0.4703271985054016,0.6074062585830688,-9.798460006713867
1745664017.781354,-0.025132786482572556,-0.03510018438100815,0.3620608448982239,0.42762869596481323,0.9860746264457703,-9.517110824584961
1745664017.7873902,-0.036305733025074005,-0.028133556246757507,0.36216670274734497,0.48503249883651733,0.7746530771255493,-9.79465103149414
1745664017.7894185,-0.03298569098114967,-0.038955144584178925,0.3624289929866791,0.3893433213233948,0.8180054426193237,-9.97219181060791
1745664017.8191063,-0.02283725142478943,-0.030526738613843918,0.3637835383415222,0.43247318267822266,0.9320331811904907,-9.726247787475586
1745664017.8213658,-0.03875673934817314,-0.030093654990196228,0.3638033866882324,0.43394559621810913,0.7019656300544739,-9.65044116973877
1745664017.8236578,-0.025206658989191055,-0.033104006201028824,0.36542609333992004,0.31735414266586304,1.0056231021881104,-9.686769485473633
1745664017.8250527,-0.035445451736450195,-0.036322902888059616,0.3640538156032562,0.5057998895645142,0.6896313428878784,-9.872872352600098
1745664017.865641,-0.025414103642106056,-0.030913641676306725,0.36330533027648926,0.32527318596839905,0.9944174885749817,-9.8522367477417
1745664017.86762,-0.03391189128160477,-0.027114057913422585,0.36353829503059387,0.44590216875076294,0.8198848962783813,-9.679695129394531
1745664017.871028,-0.03181144595146179,-0.04229200631380081,0.3625958561897278,0.39859792590141296,0.8307908177375793,-9.65284538269043
1745664017.8755388,-0.020990025252103806,-0.02898978255689144,0.3624018430709839,0.47864094376564026,0.9167748689651489,-9.805157661437988
1745664017.8785427,-0.04091043025255203,-0.03387953341007233,0.3628632724285126,0.3312634229660034,0.7632200121879578,-9.920567512512207
1745664017.9056604,-0.017189105972647667,-0.03058781661093235,0.3616865575313568,0.49359050393104553,0.7405227422714233,-9.767705917358398
1745664017.9085345,-0.022892961278557777,-0.02737557329237461,0.36015743017196655,0.35840192437171936,1.0236408710479736,-9.558388710021973
1745664017.9103007,-0.02506854571402073,-0.028531154617667198,0.3610580265522003,0.38759180903434753,0.7041221261024475,-9.811712265014648
1745664017.9190848,-0.023362908512353897,-0.03530678153038025,0.36083823442459106,0.43426576256752014,0.909153163433075,-9.879753112792969
1745664017.948094,-0.023435423150658607,-0.021234070882201195,0.3617246747016907,0.42878103256225586,0.8807092905044556,-9.756422996520996
1745664017.9517734,-0.03318226337432861,-0.0293942391872406,0.36199697852134705,0.40294209122657776,0.7136210203170776,-9.643635749816895
1745664017.9541595,-0.02431614324450493,-0.03304409608244896,0.36087143421173096,0.31587356328964233,0.9196830987930298,-9.706734657287598
1745664017.957643,-0.033586978912353516,-0.026403173804283142,0.36394625902175903,0.5037108659744263,0.6860213279724121,-9.834787368774414
1745664017.9898112,-0.030082058161497116,-0.02426973171532154,0.36073511838912964,0.256994366645813,1.0234887599945068,-9.768448829650879
1745664017.9920843,-0.03651777654886246,-0.028671812266111374,0.3611310124397278,0.4094780385494232,0.7488311529159546,-9.698668479919434
1745664017.9929826,-0.03199334815144539,-0.032662004232406616,0.3622775673866272,0.40340083837509155,0.9187124967575073,-9.713847160339355
1745664017.994625,-0.03691219538450241,-0.020381636917591095,0.3604954779148102,0.4370484948158264,0.9704228639602661,-9.793201446533203
1745664017.9963892,-0.04352070763707161,-0.03523066267371178,0.3588375449180603,0.3551545739173889,0.7412776350975037,-9.818577766418457
1745664018.0360267,-0.025000382214784622,-0.02310195565223694,0.36080148816108704,0.4014303684234619,1.008400559425354,-9.574978828430176
1745664018.0384672,-0.048733700066804886,-0.023501556366682053,0.36127007007598877,0.4510728716850281,0.7719619274139404,-9.703275680541992
1745664018.042153,-0.03134329989552498,-0.02587498351931572,0.3615574836730957,0.28481143712997437,0.9453624486923218,-9.853429794311523
1745664018.046304,-0.030199924483895302,-0.027186071500182152,0.36309871077537537,0.5237666964530945,0.8780225515365601,-9.675910949707031
1745664018.0771518,-0.03534923121333122,-0.022248905152082443,0.36342576146125793,0.3089679777622223,0.977811336517334,-9.701118469238281
1745664018.081317,-0.02348915860056877,-0.022650141268968582,0.3611101806163788,0.43221408128738403,0.9629238843917847,-9.724824905395508
1745664018.0830405,-0.035465341061353683,-0.0307642612606287,0.36204883456230164,0.3719364106655121,0.8532576560974121,-9.836981773376465
1745664018.0831401,-0.018561894074082375,-0.017961446195840836,0.3596324920654297,0.34992364048957825,0.8780550956726074,-9.714911460876465
1745664018.1187725,-0.031630489975214005,-0.02297934517264366,0.3611006438732147,0.36977648735046387,1.002444863319397,-9.622363090515137
1745664018.121616,-0.03354806825518608,-0.02222215011715889,0.3627684414386749,0.4750000536441803,0.9353607892990112,-9.741427421569824
1745664018.122668,-0.03996714949607849,-0.024680282920598984,0.3587779998779297,0.266764372587204,1.0094711780548096,-9.90570068359375
1745664018.125091,-0.02033834345638752,-0.02527707815170288,0.3606342673301697,0.5778108239173889,0.82881098985672,-9.620732307434082
1745664018.1265795,-0.04274068400263786,-0.02413840778172016,0.35920023918151855,0.36115774512290955,1.0237548351287842,-9.656195640563965
1745664018.1643074,-0.02935510315001011,-0.02558540180325508,0.3592291474342346,0.4151792526245117,0.7762110233306885,-9.861592292785645
1745664018.1658578,-0.03391297906637192,-0.028800522908568382,0.3612101674079895,0.44006261229515076,0.9680328369140625,-9.751538276672363
1745664018.168379,-0.032197535037994385,-0.015001872554421425,0.3601718544960022,0.3652707040309906,0.9358199834823608,-9.656519889831543
1745664018.1700804,-0.031854815781116486,-0.026137307286262512,0.3620021343231201,0.42974933981895447,0.8295205235481262,-9.668729782104492
1745664018.2052467,-0.02980213239789009,-0.025311177596449852,0.36073964834213257,0.3203811049461365,1.0947808027267456,-9.723733901977539
1745664018.2088416,-0.0231919065117836,-0.02588542364537716,0.36037495732307434,0.5028607249259949,0.8193103075027466,-9.853751182556152
1745664018.213024,-0.02725924178957939,-0.021058375015854836,0.35998067259788513,0.28597161173820496,1.0883039236068726,-9.791834831237793
1745664018.2147753,-0.026533568277955055,-0.02619529701769352,0.35827958583831787,0.4336802065372467,0.7330487370491028,-9.6774320602417
1745664018.2182372,-0.025647688657045364,-0.03178881108760834,0.36050039529800415,0.3842190206050873,0.9773468971252441,-9.621122360229492
1745664018.250571,-0.033868011087179184,-0.019591279327869415,0.3587847054004669,0.3680104911327362,0.8992036581039429,-9.88235092163086
1745664018.2525866,-0.005887031089514494,-0.030955780297517776,0.3550623953342438,0.40535202622413635,0.7490796446800232,-9.767829895019531
1745664018.2548056,-0.013604141771793365,-0.03181091696023941,0.3536045551300049,0.46876946091651917,0.9585711359977722,-9.60033130645752
1745664018.25876,-0.01213973481208086,-0.023060370236635208,0.3550551235675812,0.3182987570762634,0.9535138010978699,-9.795062065124512
1745664018.2914433,-0.013528415933251381,-0.035134680569171906,0.35425302386283875,0.41366878151893616,0.8286329507827759,-9.837986946105957
1745664018.294226,-0.004688814748078585,-0.02806510403752327,0.3567449450492859,0.34168535470962524,1.0542018413543701,-9.620458602905273
1745664018.2980647,-0.01430751383304596,-0.02204226516187191,0.3547333776950836,0.4639762043952942,0.8352481126785278,-9.65652847290039
1745664018.301916,-0.010335512459278107,-0.03083551488816738,0.3546680808067322,0.29225337505340576,1.0934183597564697,-9.810007095336914
1745664018.3355932,-0.005250690970569849,-0.030177563428878784,0.3548643887042999,0.4599159359931946,0.8781954050064087,-9.85020637512207
1745664018.3371036,-0.00984443910419941,-0.024708589538931847,0.3554803729057312,0.3268614411354065,0.9895824193954468,-9.725595474243164
1745664018.3395958,-0.011859416030347347,-0.022692181169986725,0.35106712579727173,0.3738197684288025,0.9309083223342896,-9.608724594116211
1745664018.3409905,-0.014813415706157684,-0.03843018412590027,0.35365766286849976,0.47728782892227173,0.8129268884658813,-9.723230361938477
1745664018.3425424,-0.005820092745125294,-0.02169376239180565,0.351977676153183,0.37123456597328186,1.080394983291626,-9.876165390014648
1745664018.381211,-0.01909179799258709,-0.026105258613824844,0.3547796308994293,0.3768567144870758,0.7565081119537354,-9.805136680603027
1745664018.382473,-0.00211221887730062,-0.02932831645011902,0.3542643189430237,0.2914506793022156,1.056209683418274,-9.533161163330078
1745664018.385723,-0.006474173162132502,-0.02830204926431179,0.35590749979019165,0.5746040344238281,0.8583717346191406,-9.648157119750977
1745664018.3875191,-0.00884974468499422,-0.02546576038002968,0.35688135027885437,0.28255367279052734,0.9798848032951355,-10.048566818237305
1745664018.421278,0.0053646015003323555,-0.024992112070322037,0.3537841737270355,0.34881582856178284,1.0821361541748047,-9.801969528198242
1745664018.424574,-0.003203029278665781,-0.0351642444729805,0.35361748933792114,0.37159812450408936,0.8733347654342651,-9.55622673034668
1745664018.426009,0.013116481713950634,-0.02501700446009636,0.35260090231895447,0.33911335468292236,0.996625542640686,-9.675790786743164
1745664018.429398,-0.01497917901724577,-0.029643982648849487,0.3511272072792053,0.40837758779525757,0.7315959334373474,-9.93272590637207
1745664018.4642174,0.003441242966800928,-0.028411630541086197,0.35320818424224854,0.3092753291130066,0.8715327382087708,-9.697795867919922
1745664018.4695685,-0.014101216569542885,-0.024184398353099823,0.3527984023094177,0.5629415512084961,0.7913837432861328,-9.57393741607666
1745664018.472356,0.0026289557572454214,-0.01960492506623268,0.3553948998451233,0.46829351782798767,1.0007323026657104,-9.68930721282959
1745664018.473837,-0.0006137800519354641,-0.029413824900984764,0.35118556022644043,0.2368946075439453,0.993233323097229,-9.628064155578613
1745664018.4765859,0.017135897651314735,-0.028421830385923386,0.35384291410446167,0.5626718997955322,0.8862320184707642,-9.652721405029297
1745664018.511052,-0.006113796960562468,-0.02582244575023651,0.3538896441459656,0.37658214569091797,0.9600569605827332,-9.96687126159668
1745664018.5128493,0.011068353429436684,-0.023585164919495583,0.3537161946296692,0.3589816391468048,0.8046364784240723,-9.890698432922363
1745664018.5161054,0.0007876879535615444,-0.03221261128783226,0.35320788621902466,0.4583671987056732,0.8648834228515625,-9.51618480682373
1745664018.519015,-0.001172742573544383,-0.022246193140745163,0.3543362021446228,0.3349001407623291,0.9252558946609497,-9.649803161621094
1745664018.5496886,-0.0035019689239561558,-0.028487924486398697,0.35554033517837524,0.4075729250907898,0.7479895353317261,-9.941183090209961
1745664018.554674,-0.005903636571019888,-0.026283908635377884,0.355170875787735,0.27602285146713257,1.0343836545944214,-9.765230178833008
1745664018.5571325,0.0010324182221665978,-0.026282424107193947,0.3560938835144043,0.4600498080253601,0.8075648546218872,-9.600871086120605
1745664018.5609136,-0.007761877030134201,-0.026018884032964706,0.3537454605102539,0.2928319573402405,1.0175952911376953,-9.77947998046875
1745664018.562884,-0.0015987154329195619,-0.025197094306349754,0.35432085394859314,0.4122328758239746,0.7430338859558105,-9.862974166870117
1745664018.5948465,-0.0033699683845043182,-0.028038423508405685,0.3556974530220032,0.42744261026382446,0.9433957934379578,-9.619649887084961
1745664018.5974698,-0.003885286394506693,-0.019622262567281723,0.35472458600997925,0.3174998462200165,0.9954217672348022,-9.670709609985352
1745664018.6003957,-0.00893819984048605,-0.026487434282898903,0.3549148142337799,0.3424479067325592,0.9370386004447937,-9.621977806091309
1745664018.6361015,0.0054052239283919334,-0.030875593423843384,0.35405752062797546,0.35710757970809937,0.7987940907478333,-9.884635925292969
1745664018.637366,-0.003855143440887332,-0.02941683866083622,0.3540087342262268,0.48074793815612793,0.833299994468689,-9.831311225891113
1745664018.6375403,-0.005683614406734705,-0.016793377697467804,0.3553626835346222,0.2425379455089569,0.9624330401420593,-9.700366020202637
1745664018.639211,0.0008405622211284935,-0.031160006299614906,0.35647308826446533,0.4686512351036072,0.7915331721305847,-9.599584579467773
1745664018.6392508,-0.001676600775681436,-0.029477063566446304,0.35583725571632385,0.33509355783462524,1.0391420125961304,-9.760601043701172
1745664018.6808352,0.0034699358511716127,-0.020693330094218254,0.35723158717155457,0.4626029133796692,0.8198418617248535,-9.874176025390625
1745664018.6856139,-0.0015414692461490631,-0.02674645557999611,0.3542141318321228,0.31531304121017456,1.0583363771438599,-9.688514709472656
1745664018.690538,0.004394198767840862,-0.026229266077280045,0.3536975085735321,0.3665310740470886,0.8388242721557617,-9.664083480834961
1745664018.6940897,0.002846749732270837,-0.02793366089463234,0.3565466105937958,0.4371640682220459,0.8560429811477661,-9.751352310180664
1745664018.723176,-0.004545080009847879,-0.01935410685837269,0.35433250665664673,0.29875993728637695,0.9983782768249512,-9.817291259765625
1745664018.7250583,-0.0032945063430815935,-0.030910760164260864,0.3542453646659851,0.4605714678764343,0.682746946811676,-9.688802719116211
1745664018.7283168,0.0028219129890203476,-0.024864349514245987,0.35425442457199097,0.3927553594112396,1.0651041269302368,-9.58386516571045
1745664018.731753,-0.00709108542650938,-0.02331881783902645,0.35439637303352356,0.4291159212589264,0.7784361243247986,-9.895482063293457
1745664018.7675812,-0.0016968895215541124,-0.029160428792238235,0.35166457295417786,0.24622027575969696,0.9565881490707397,-9.859819412231445
1745664018.7686152,0.006210514344274998,-0.024284077808260918,0.3564327359199524,0.47488123178482056,0.8377636075019836,-9.534791946411133
1745664018.7739892,-0.007669161073863506,-0.02492949552834034,0.35661640763282776,0.34664100408554077,0.8297541737556458,-9.671184539794922
1745664018.7770383,0.003082278650254011,-0.024263009428977966,0.3564390540122986,0.30205237865448,0.985602080821991,-9.891233444213867
1745664018.7803793,-0.004186538048088551,-0.031608741730451584,0.35225820541381836,0.4848563075065613,0.7720949053764343,-9.834975242614746
1745664018.8126898,0.0050765168853104115,-0.01756688579916954,0.35594040155410767,0.2990534007549286,1.049293875694275,-9.643167495727539
1745664018.8128023,-0.01320046465843916,-0.027492642402648926,0.3529781699180603,0.4481656551361084,0.7737325429916382,-9.665651321411133
1745664018.812895,0.005628824699670076,-0.022460242733359337,0.355206161737442,0.4603579640388489,0.8442635536193848,-9.74705982208252
1745664018.8179932,-0.01619451865553856,-0.029051562771201134,0.3521341383457184,0.24792678654193878,0.842326283454895,-9.810368537902832
1745664018.8525505,0.008729273453354836,-0.025473952293395996,0.35403740406036377,0.4460113048553467,0.862055778503418,-9.536288261413574
1745664018.857298,-0.017343968152999878,-0.028964996337890625,0.35513097047805786,0.453690767288208,0.9243324398994446,-9.717209815979004
1745664018.8573682,-0.00424325792118907,-0.026520544663071632,0.3509807884693146,0.28410616517066956,0.8970297574996948,-10.035417556762695
1745664018.860076,0.0014899792149662971,-0.032572872936725616,0.3528004288673401,0.5206091403961182,0.8725172281265259,-9.706721305847168
1745664018.892093,-0.005649847909808159,-0.02145405486226082,0.3533608317375183,0.2828553020954132,0.9876236915588379,-9.566497802734375
1745664018.8941953,0.0038518316578119993,-0.029424551874399185,0.35466083884239197,0.4117857813835144,0.7802989482879639,-9.740508079528809
1745664018.8965375,-0.002316243713721633,-0.03475053980946541,0.35303282737731934,0.30333927273750305,0.9721397161483765,-9.797942161560059
1745664018.8981142,0.016410911455750465,-0.02237202599644661,0.35408642888069153,0.40414875745773315,0.9013329744338989,-9.772960662841797
1745664018.9006016,8.858367800712585e-05,-0.02772323228418827,0.35391268134117126,0.31784242391586304,0.9331537485122681,-9.71557903289795
1745664018.937026,0.010190446861088276,-0.029192328453063965,0.3517981469631195,0.3112388551235199,0.8285315632820129,-9.68397045135498
1745664018.9391754,0.006634102202951908,-0.03237844631075859,0.35212409496307373,0.524043083190918,0.8189884424209595,-9.711180686950684
1745664018.9403853,-0.0035157054662704468,-0.024543723091483116,0.3513035178184509,0.2608831822872162,0.9182135462760925,-9.918136596679688
1745664018.945222,0.002639999147504568,-0.03296039253473282,0.3526187539100647,0.4802928566932678,0.6151322722434998,-9.7344388961792
1745664018.9826908,-0.015376265160739422,-0.023514937609434128,0.35293909907341003,0.349823921918869,0.8550000190734863,-9.564311027526855
1745664018.9850862,0.004216525238007307,-0.02572423219680786,0.3535051941871643,0.26512113213539124,0.796018123626709,-9.73062801361084
1745664018.987911,0.0005544567247852683,-0.02615872398018837,0.3551010489463806,0.5423287153244019,0.837933361530304,-9.822149276733398
1745664018.9910908,-0.011192435398697853,-0.017837028950452805,0.35476499795913696,0.19393320381641388,0.9031208753585815,-9.922624588012695
1745664018.9944758,0.0038971074391156435,-0.024583106860518456,0.3548795282840729,0.4815656542778015,0.7856930494308472,-9.588632583618164
1745664019.0253189,-0.011098094284534454,-0.028203710913658142,0.35462626814842224,0.40033674240112305,0.9675649404525757,-9.607552528381348
1745664019.0274074,0.0005437067593447864,-0.017148539423942566,0.35562658309936523,0.34073030948638916,0.7919260263442993,-9.953529357910156
1745664019.0282693,-0.011196323670446873,-0.025718096643686295,0.3553444743156433,0.3130623698234558,0.8899564743041992,-9.801705360412598
1745664019.0422597,0.002389684086665511,-0.022844506427645683,0.3538811504840851,0.297747939825058,0.8865893483161926,-9.584805488586426
1745664019.0669858,-0.0025379296857863665,-0.023886561393737793,0.35563504695892334,0.4474623203277588,0.8052307367324829,-9.64713191986084
1745664019.071137,-0.011219444684684277,-0.020885033532977104,0.35454145073890686,0.22713175415992737,0.8962259292602539,-9.946958541870117
1745664019.0786092,0.0034919411409646273,-0.025314202532172203,0.35652193427085876,0.513106644153595,0.7316438555717468,-9.752290725708008
1745664019.07922,-0.012026218697428703,-0.02080264315009117,0.3544403910636902,0.3259050250053406,0.9893976449966431,-9.656649589538574
1745664019.0829659,-0.004890540149062872,-0.022274095565080643,0.3565461039543152,0.3566097021102905,0.6620186567306519,-9.802889823913574
1745664019.1118085,-0.011804210022091866,-0.0285965409129858,0.3560424745082855,0.36089107394218445,0.8513011932373047,-9.744752883911133
1745664019.113999,-0.007804377935826778,-0.014777734875679016,0.3553900122642517,0.33584412932395935,0.8723782300949097,-9.70426082611084
1745664019.1182044,-0.012495750561356544,-0.0231519415974617,0.35851460695266724,0.3448546826839447,0.7893555164337158,-9.740509986877441
1745664019.1222498,-0.007734834216535091,-0.021756678819656372,0.35422906279563904,0.3041408658027649,1.0003745555877686,-9.720710754394531
1745664019.1538982,-0.006284697446972132,-0.023538071662187576,0.3568134903907776,0.5263733863830566,0.7864960432052612,-9.785344123840332
1745664019.1555123,-0.011844431981444359,-0.020102035254240036,0.3547050356864929,0.25045400857925415,1.003009557723999,-9.886167526245117
1745664019.1568344,-0.009910766035318375,-0.021493442356586456,0.35647088289260864,0.3967873454093933,0.6405013799667358,-9.749947547912598
1745664019.1593356,-0.007896574214100838,-0.016987260431051254,0.356725811958313,0.35314348340034485,0.8629976511001587,-9.685583114624023
1745664019.2032478,-0.017721718177199364,-0.026985492557287216,0.3567255139350891,0.4235613942146301,0.7220374941825867,-9.68299388885498
1745664019.203302,-0.005535237491130829,-0.018881000578403473,0.3565064072608948,0.40273499488830566,0.9581347703933716,-9.769136428833008
1745664019.203344,-0.028133809566497803,-0.023666862398386,0.35529232025146484,0.3757796883583069,0.6921135187149048,-9.903996467590332
1745664019.2052355,-0.01024638582020998,-0.023339994251728058,0.3537845015525818,0.28419262170791626,0.9367104768753052,-9.686577796936035
1745664019.2392862,-0.01981610432267189,-0.02053760550916195,0.3577207028865814,0.5342572927474976,0.7674919366836548,-9.544336318969727
1745664019.242265,-0.023714246228337288,-0.024431763216853142,0.3563624322414398,0.2249113768339157,0.9138815999031067,-9.865144729614258
1745664019.2425826,-0.007281424943357706,-0.024599667638540268,0.3571799695491791,0.42774978280067444,0.8802304267883301,-9.86744499206543
1745664019.2451127,-0.021231617778539658,-0.021217888221144676,0.35802364349365234,0.3609042763710022,0.9068277478218079,-9.696466445922852
1745664019.2459428,0.002319058170542121,-0.01777571067214012,0.3579404950141907,0.39073625206947327,0.9403656721115112,-9.548521995544434
1745664019.2917717,-0.01791173778474331,-0.029431158676743507,0.3570742607116699,0.3760746121406555,0.8115243911743164,-9.827108383178711
1745664019.2921176,0.0003384282754268497,-0.020358270034193993,0.35734808444976807,0.3387271463871002,0.8964326977729797,-9.91552734375
1745664019.2935421,-0.01208421029150486,-0.018721530213952065,0.35827112197875977,0.48555201292037964,0.8265082240104675,-9.666196823120117
1745664019.294651,-0.013872364535927773,-0.024754755198955536,0.35605186223983765,0.26164692640304565,0.8375380635261536,-9.652531623840332
1745664019.3237827,-0.00438581733033061,-0.02721353992819786,0.3566203713417053,0.5642111897468567,0.8115557432174683,-9.738245964050293
1745664019.328209,-0.028710907325148582,-0.03461042046546936,0.3544107973575592,0.3899148106575012,0.6847249269485474,-9.79463005065918
1745664019.3316336,-0.0035970862954854965,-0.027382558211684227,0.35511183738708496,0.32854968309402466,0.9889439344406128,-9.808331489562988
1745664019.334011,-0.027918780222535133,-0.021209795027971268,0.35530751943588257,0.46336182951927185,0.8026469945907593,-9.789726257324219
1745664019.336129,-0.014639223925769329,-0.031545888632535934,0.35428017377853394,0.30334702134132385,0.906171441078186,-9.735486030578613
1745664019.3716047,-0.005830168724060059,-0.030711933970451355,0.3538331389427185,0.4934580326080322,0.8600049018859863,-9.640810012817383
1745664019.3716772,-0.019239485263824463,-0.024952126666903496,0.3565959632396698,0.29067105054855347,0.889168381690979,-9.805282592773438
1745664019.373296,-0.002767323050647974,-0.024189405143260956,0.35529881715774536,0.33337587118148804,0.8306082487106323,-9.791876792907715
1745664019.3758745,-0.01634467951953411,-0.03435060381889343,0.35707277059555054,0.4618147313594818,0.8102797269821167,-9.590545654296875
1745664019.410423,0.00035196790122427046,-0.02549230493605137,0.3566819727420807,0.3004222512245178,0.9711480140686035,-9.789754867553711
1745664019.4124823,-0.019318269565701485,-0.02501862123608589,0.35524970293045044,0.3633459508419037,0.8116680383682251,-9.901422500610352
1745664019.414595,-0.0077823749743402,-0.028148498386144638,0.35433414578437805,0.2788029611110687,0.8341839909553528,-9.637959480285645
1745664019.4158902,-0.010875814594328403,-0.02652989886701107,0.3559021055698395,0.5431281328201294,0.7995213270187378,-9.470908164978027
1745664019.4172993,-0.032655246555805206,-0.030664842575788498,0.3555697202682495,0.220603346824646,0.7902344465255737,-9.956128120422363
1745664019.4559946,-0.008244950324296951,-0.02745668962597847,0.35549530386924744,0.4590524137020111,0.798271656036377,-9.90380573272705
1745664019.4590046,-0.02595740556716919,-0.027209794148802757,0.3574214577674866,0.4170528054237366,0.9000968933105469,-9.546158790588379
1745664019.4639797,-0.015565144829452038,-0.022593725472688675,0.35622793436050415,0.26240602135658264,0.89532071352005,-9.662412643432617
1745664019.47072,-0.016772901639342308,-0.035938914865255356,0.3566579818725586,0.4191390573978424,0.8438081741333008,-9.799888610839844
1745664019.4988217,-0.012003847397863865,-0.021756093949079514,0.3582051694393158,0.30075448751449585,0.9892619848251343,-9.795854568481445
1745664019.500743,-0.008681010454893112,-0.023742560297250748,0.35648590326309204,0.4665352404117584,0.8301216959953308,-9.656973838806152
1745664019.5031176,-0.013968413695693016,-0.030119841918349266,0.3568717837333679,0.22878769040107727,0.996817409992218,-9.732561111450195
1745664019.507961,-0.004257905296981335,-0.02703014388680458,0.35690003633499146,0.47084474563598633,0.7275115251541138,-9.834074974060059
1745664019.5423806,-0.017820019274950027,-0.026408221572637558,0.35774970054626465,0.34628668427467346,0.8136957287788391,-9.792699813842773
1745664019.5456963,-0.01957114040851593,-0.029649728909134865,0.35721999406814575,0.4111591875553131,0.8879286646842957,-9.680473327636719
1745664019.5491955,-0.02333587035536766,-0.018966415897011757,0.3573145568370819,0.32895582914352417,0.9707170724868774,-9.733774185180664
1745664019.5526721,-0.027178529649972916,-0.034058865159749985,0.3550317883491516,0.4639880657196045,0.7038236856460571,-9.795259475708008
1745664019.5541337,-0.015148784033954144,-0.02436748705804348,0.3550958037376404,0.3484918475151062,1.0742794275283813,-9.741028785705566
1745664019.5859005,-0.029588738456368446,-0.023250984027981758,0.3549574017524719,0.39940181374549866,0.701828122138977,-9.748071670532227
1745664019.586945,-0.019949451088905334,-0.02983645722270012,0.35708457231521606,0.2711864113807678,0.933272659778595,-9.641794204711914
1745664019.591442,-0.018482565879821777,-0.022075604647397995,0.35733750462532043,0.4933473467826843,0.8736635446548462,-9.660833358764648
1745664019.5917404,-0.024939151480793953,-0.027144018560647964,0.35798007249832153,0.3370122015476227,0.8741361498832703,-9.901865005493164
1745664019.6295218,-0.009243225678801537,-0.023119201883673668,0.35790085792541504,0.34325218200683594,1.0573523044586182,-9.783808708190918
1745664019.6391733,-0.02100495621562004,-0.031177911907434464,0.35431188344955444,0.42423516511917114,0.813398540019989,-9.67982292175293
1745664019.6405883,-0.0030242162756621838,-0.021969184279441833,0.3554156720638275,0.3013138175010681,1.0286109447479248,-9.73387336730957
1745664019.6406856,-0.024850789457559586,-0.022323425859212875,0.35328999161720276,0.38464251160621643,0.7307988405227661,-9.842365264892578
1745664019.6705399,-0.013202205300331116,-0.02936164103448391,0.3557550311088562,0.2759298086166382,0.8641002774238586,-9.668374061584473
1745664019.6740394,-0.018216032534837723,-0.022285088896751404,0.3548431992530823,0.5068787336349487,0.8294259309768677,-9.606485366821289
1745664019.6761427,-0.008617313578724861,-0.02183210849761963,0.35538914799690247,0.22998031973838806,0.9470970034599304,-9.74223518371582
1745664019.6806304,-0.0035155490040779114,-0.031092938035726547,0.3557409644126892,0.5194315910339355,0.6837854385375977,-9.644861221313477
1745664019.7128193,-0.008385077118873596,-0.02202586829662323,0.35572493076324463,0.34293538331985474,1.0560483932495117,-9.759714126586914
