timestamp,angular_vel_x,angular_vel_y,angular_vel_z,linear_acc_x,linear_acc_y,linear_acc_z
1745729272.535783,0.000190261474926956,-0.0005604643374681473,0.16264863312244415,0.8790237307548523,0.15749095380306244,-10.512331008911133
1745729272.5358157,-0.00028354403912089765,-0.005178806371986866,0.1662808656692505,1.0276470184326172,0.08432754129171371,-9.53019905090332
1745729272.5372043,-0.05141500383615494,-0.03696507215499878,0.21306796371936798,0.8258976936340332,-0.23127207159996033,-9.104578971862793
1745729272.5372612,-0.0536128506064415,-0.04688679799437523,0.21901139616966248,0.8088658452033997,-0.07387834042310715,-9.88856029510498
1745729272.5687935,-0.05080930516123772,-0.0317697636783123,0.2226911038160324,0.9117088317871094,-0.14693380892276764,-10.368534088134766
1745729272.56939,-0.04532106593251228,-0.035283997654914856,0.22738158702850342,0.9398689270019531,0.09534983336925507,-9.630656242370605
1745729272.5711892,-0.05144108459353447,-0.042005039751529694,0.2294328659772873,0.8446720242500305,-0.028115052729845047,-9.34080982208252
1745729272.5791318,-0.05631811171770096,-0.04962935671210289,0.2324742078781128,1.0367916822433472,-0.131892129778862,-9.891560554504395
1745729272.6141531,-0.054750025272369385,-0.0404646098613739,0.23755745589733124,0.9093369245529175,-0.10690031200647354,-10.218171119689941
1745729272.6234467,-0.06803371757268906,-0.04221289977431297,0.24275264143943787,0.9588079452514648,-0.3260963559150696,-9.753130912780762
1745729272.6267698,-0.07346551865339279,-0.05349716544151306,0.2493019849061966,0.8957532048225403,-0.0858529806137085,-9.389861106872559
1745729272.6293042,-0.07619897276163101,-0.048995405435562134,0.2539528012275696,0.8997166752815247,-0.19928283989429474,-9.823439598083496
1745729272.6534855,-0.07857310026884079,-0.04864965379238129,0.25847500562667847,0.9053241014480591,0.045563358813524246,-10.05378532409668
1745729272.656006,-0.076616071164608,-0.05024145171046257,0.2609162926673889,0.878890335559845,-0.07638316601514816,-9.888768196105957
1745729272.6575072,-0.08276070654392242,-0.06335945427417755,0.263773649930954,0.9074290990829468,0.036925338208675385,-9.58897876739502
1745729272.6586118,-0.0715102031826973,-0.05906492471694946,0.27032870054244995,0.7535606622695923,-0.11460940539836884,-9.811543464660645
1745729272.6981246,-0.17581942677497864,-0.05418090894818306,0.3664420545101166,0.71760094165802,0.27198678255081177,-9.633691787719727
1745729272.7006233,-0.17947976291179657,-0.05345786735415459,0.3678925037384033,0.5721346139907837,0.25310200452804565,-9.620306015014648
1745729272.70175,-0.18071505427360535,-0.05787163972854614,0.3699823021888733,0.7673737406730652,0.1791379749774933,-9.762001037597656
1745729272.7028,-0.18304960429668427,-0.05513148382306099,0.3692933917045593,0.689206063747406,0.3979164958000183,-9.916272163391113
1745729272.7051253,-0.17900316417217255,-0.04882090911269188,0.37202733755111694,0.6446112394332886,0.1691078394651413,-9.784440040588379
1745729272.7466025,-0.18639543652534485,-0.05268071964383125,0.37335968017578125,0.5404631495475769,0.33868327736854553,-9.500920295715332
1745729272.746716,-0.17947269976139069,-0.049626339226961136,0.37935367226600647,0.6865683197975159,0.2018284797668457,-9.618022918701172
1745729272.7467837,-0.1869426965713501,-0.04921302944421768,0.38068220019340515,0.7785298228263855,0.34265822172164917,-9.893638610839844
1745729272.7484214,-0.17068126797676086,-0.046803105622529984,0.3843940794467926,0.5839574933052063,0.4415931701660156,-9.896148681640625
1745729272.7836075,-0.18134616315364838,-0.04892563074827194,0.3843103051185608,0.7151186466217041,0.30100637674331665,-9.66486930847168
1745729272.7864223,-0.1721213161945343,-0.045701898634433746,0.3867550492286682,0.5246715545654297,0.49064651131629944,-9.62289047241211
1745729272.7876575,-0.18300527334213257,-0.04088866338133812,0.38601821660995483,0.6584750413894653,0.22899477183818817,-9.705358505249023
1745729272.789398,-0.1812293529510498,-0.044854313135147095,0.3898144066333771,0.5827847719192505,0.39304858446121216,-9.775753021240234
1745729272.792578,-0.18568359315395355,-0.03869280964136124,0.388171911239624,0.6597328782081604,0.27438682317733765,-9.766456604003906
1745729272.8265958,-0.18753869831562042,-0.04005192592740059,0.39158475399017334,0.6260706782341003,0.42879804968833923,-9.645842552185059
1745729272.828831,-0.18454985320568085,-0.03215256705880165,0.3926071226596832,0.5069382786750793,0.37722739577293396,-9.67749309539795
1745729272.8315156,-0.18897876143455505,-0.03726179525256157,0.3952510952949524,0.7076069116592407,0.3014022409915924,-9.759471893310547
1745729272.8371437,-0.18141353130340576,-0.029402360320091248,0.39748090505599976,0.5586824417114258,0.5504063963890076,-9.744056701660156
1745729272.8702593,-0.1806241273880005,-0.026187177747488022,0.4009229242801666,0.6704813838005066,0.3571070730686188,-9.6777982711792
1745729272.8731132,-0.18115684390068054,-0.03339885547757149,0.4006790220737457,0.502872109413147,0.6274386048316956,-9.74207592010498
1745729272.8735673,-0.1722593754529953,-0.02547862008213997,0.40106549859046936,0.5969945192337036,0.3274271488189697,-9.824528694152832
1745729272.876867,-0.17658263444900513,-0.024518052116036415,0.4018332064151764,0.5922422409057617,0.5737043619155884,-9.590856552124023
1745729272.9145236,-0.17373782396316528,-0.01804838329553604,0.41491827368736267,0.6118799448013306,0.6895931363105774,-9.916003227233887
1745729272.9172235,-0.16625523567199707,-0.01233782060444355,0.41408127546310425,0.4905574917793274,0.6118787527084351,-9.824045181274414
1745729272.9190757,-0.16862161457538605,-0.016757015138864517,0.41496968269348145,0.5603545308113098,0.5815470218658447,-9.507699966430664
1745729272.9204378,-0.15479294955730438,-0.01108647882938385,0.4151987135410309,0.5120130777359009,0.6233109831809998,-9.578910827636719
1745729272.922262,-0.17193503677845,-0.010626710951328278,0.41762644052505493,0.6972538232803345,0.44806092977523804,-9.943303108215332
1745729272.958462,-0.15750037133693695,-0.01013541966676712,0.4185873568058014,0.510404109954834,0.6379365921020508,-9.84797191619873
1745729272.9587069,-0.16440139710903168,-0.003348992671817541,0.421684205532074,0.6213524341583252,0.4053840637207031,-9.55308723449707
1745729272.9610443,-0.16232268512248993,-0.006112479139119387,0.4238881468772888,0.5827257037162781,0.6493386030197144,-9.50313663482666
1745729272.9658868,-0.16124573349952698,-0.0008634215337224305,0.4248489439487457,0.6186708211898804,0.4995115399360657,-9.970943450927734
1745729273.0000825,-0.16050603985786438,-0.005864999257028103,0.4231683611869812,0.5864565968513489,0.7331830263137817,-9.911274909973145
1745729273.000819,-0.15047676861286163,0.00140662572812289,0.42446622252464294,0.5658352971076965,0.5949264168739319,-9.583069801330566
1745729273.0041137,-0.16156506538391113,-1.9700917619047686e-05,0.42403706908226013,0.5961116552352905,0.7088185548782349,-9.55200481414795
1745729273.0041337,-0.151748389005661,-0.0013825299683958292,0.42606744170188904,0.4816603660583496,0.676724374294281,-9.90818977355957
1745729273.0067353,-0.1512182056903839,0.0008602822199463844,0.42594248056411743,0.7517067193984985,0.6005539894104004,-9.889208793640137
1745729273.0429113,-0.060532402247190475,0.0014198643621057272,0.4372946619987488,0.5626294016838074,0.9464038014411926,-9.645415306091309
1745729273.0453565,-0.08633573353290558,-0.0008541062707081437,0.43962565064430237,0.7066641449928284,0.6551054120063782,-9.672882080078125
1745729273.047526,-0.0707302838563919,-0.005064849741756916,0.43994706869125366,0.501453697681427,0.9004054069519043,-9.797226905822754
1745729273.083911,-0.07649851590394974,0.0006262816023081541,0.4409317374229431,0.6390669941902161,0.5935936570167542,-9.797051429748535
1745729273.0849228,-0.07403477281332016,0.0009257911588065326,0.4441162049770355,0.6166146993637085,0.9066222310066223,-9.572087287902832
1745729273.0859141,-0.07015539705753326,9.285206760978326e-05,0.44362789392471313,0.6426113247871399,0.7123063206672668,-9.777032852172852
1745729273.0870454,-0.07108871638774872,-0.007567106746137142,0.443058580160141,0.6626005172729492,0.9901940226554871,-9.866581916809082
1745729273.089394,-0.05786149576306343,-0.0018350293394178152,0.44192925095558167,0.6038596034049988,0.867842972278595,-9.792747497558594
1745729273.1278586,-0.07012983411550522,-0.0030511722434312105,0.44286513328552246,0.6657565236091614,0.842461109161377,-9.650365829467773
1745729273.1302507,-0.05977378040552139,-0.0070606619119644165,0.44001421332359314,0.48946866393089294,0.8656653165817261,-9.710756301879883
1745729273.131494,-0.06358365714550018,-0.00833066739141941,0.44213777780532837,0.7161654829978943,0.6585190892219543,-9.788135528564453
1745729273.132791,-0.0648178830742836,-0.0076891579665243626,0.4410077929496765,0.6112152338027954,0.9524690508842468,-9.811882972717285
1745729273.1715102,-0.05415922403335571,-0.006715357303619385,0.4433542788028717,0.5818146467208862,0.7119415998458862,-9.752424240112305
1745729273.172876,-0.06194877624511719,-0.012510314583778381,0.44314202666282654,0.5838302373886108,0.927773654460907,-9.63284683227539
1745729273.1749153,-0.04743571951985359,-0.0100963544100523,0.44194722175598145,0.6405057907104492,0.8175978660583496,-9.769686698913574
1745729273.1774514,-0.06165040656924248,-0.012535152956843376,0.44453519582748413,0.7258589863777161,0.7973542213439941,-9.817278861999512
1745729273.1805515,-0.04118731617927551,-0.011948354542255402,0.4419522285461426,0.4938904345035553,0.9788234829902649,-9.729135513305664
1745729273.2153137,-0.05992788076400757,-0.01626252755522728,0.4445120692253113,0.6674637794494629,0.6360678672790527,-9.72105598449707
1745729273.2167463,-0.04225747659802437,-0.01197891402989626,0.4412759244441986,0.5203050971031189,1.0369285345077515,-9.704313278198242
1745729273.2182298,-0.06114349886775017,-0.009665769524872303,0.4421485364437103,0.6608004570007324,0.7108463048934937,-9.74604606628418
1745729273.2220716,-0.05193687230348587,-0.021859606727957726,0.43950146436691284,0.6201720237731934,0.8698482513427734,-9.7333402633667
1745729273.258313,-0.04979376494884491,-0.025698864832520485,0.4382835924625397,0.6401098966598511,0.9270135164260864,-9.673614501953125
1745729273.266708,-0.041064586490392685,-0.02347770519554615,0.4403781294822693,0.5450835227966309,0.7376624345779419,-9.822859764099121
1745729273.2685716,-0.05559135600924492,-0.028710797429084778,0.4391835331916809,0.7334186434745789,0.7817496657371521,-9.750852584838867
1745729273.2688787,-0.041907548904418945,-0.024079155176877975,0.441504567861557,0.5262932777404785,0.9223006963729858,-9.69653606414795
1745729273.3009007,-0.05068861320614815,-0.02494116500020027,0.44260406494140625,0.6869443655014038,0.7617870569229126,-9.692794799804688
1745729273.3039155,-0.039675068110227585,-0.03107556700706482,0.440429151058197,0.5562847852706909,1.0231258869171143,-9.805675506591797
1745729273.306497,-0.03940146788954735,-0.027918998152017593,0.44030290842056274,0.6072088479995728,0.7845050692558289,-9.788350105285645
1745729273.309962,-0.03354554995894432,-0.031474798917770386,0.4412135183811188,0.5972684621810913,0.9968204498291016,-9.619346618652344
1745729273.3431995,-0.03987782448530197,-0.024825498461723328,0.4385615885257721,0.4978775978088379,0.8792214393615723,-9.768560409545898
1745729273.3440213,-0.043170664459466934,-0.03413813188672066,0.4387761950492859,0.6040969491004944,0.733848512172699,-9.749271392822266
1745729273.3450856,-0.028895055875182152,-0.03020617924630642,0.43736034631729126,0.5765119791030884,0.9691301584243774,-9.621264457702637
1745729273.3474212,-0.055970966815948486,-0.030297020450234413,0.43712592124938965,0.7018110752105713,0.6841126680374146,-9.807035446166992
1745729273.3485458,-0.03694422170519829,-0.03688523918390274,0.4362374246120453,0.5367155075073242,0.977824330329895,-9.799795150756836
1745729273.3868983,-0.04565080255270004,-0.028037836775183678,0.43799835443496704,0.647375226020813,0.710784912109375,-9.73193359375
1745729273.3894758,-0.04964108765125275,-0.03300041705369949,0.43766850233078003,0.5943011045455933,0.9268643260002136,-9.576349258422852
1745729273.39142,-0.026049602776765823,-0.03873775154352188,0.4277854561805725,0.5037401914596558,0.9433836936950684,-9.757242202758789
1745729273.3930376,-0.03430856019258499,-0.03733602538704872,0.43023842573165894,0.6038914918899536,0.7615025639533997,-9.719178199768066
1745729273.4283926,-0.02262551710009575,-0.047028958797454834,0.4295624792575836,0.5226770639419556,1.0290886163711548,-9.710391998291016
1745729273.4305253,-0.02815207839012146,-0.04043631628155708,0.4287896752357483,0.5477052927017212,0.8531553149223328,-9.782730102539062
1745729273.4336534,-0.025827452540397644,-0.04108220338821411,0.4268712103366852,0.5710047483444214,0.9717098474502563,-9.721516609191895
1745729273.4349597,-0.02255733497440815,-0.041335467249155045,0.425314724445343,0.465489000082016,0.9766033291816711,-9.734861373901367
1745729273.4360557,-0.03551558777689934,-0.0439954474568367,0.4243740141391754,0.5325455069541931,0.7679248452186584,-9.74809455871582
1745729273.4711194,-0.01745012030005455,-0.04055260494351387,0.423847496509552,0.47243890166282654,1.0093305110931396,-9.626486778259277
1745729273.472174,-0.042475394904613495,-0.03738831356167793,0.4230925142765045,0.6332322359085083,0.7246538996696472,-9.765196800231934
1745729273.4731836,-0.02646329440176487,-0.044749666005373,0.4220244288444519,0.4697469174861908,1.0075172185897827,-9.747795104980469
1745729273.4732218,-0.030956745147705078,-0.03800656273961067,0.4256386160850525,0.5752832889556885,0.7206446528434753,-9.791894912719727
1745729273.5155768,-0.03390045836567879,-0.03832128643989563,0.4260284900665283,0.5474878549575806,1.0424590110778809,-9.655743598937988
1745729273.519155,-0.025139635428786278,-0.03587988764047623,0.4229910969734192,0.458888441324234,0.795177161693573,-9.748939514160156
1745729273.519223,-0.03003816306591034,-0.04371434822678566,0.4248788356781006,0.5635824799537659,1.0620076656341553,-9.683245658874512
1745729273.5217853,-0.014808133244514465,-0.03717096149921417,0.42444586753845215,0.4701769948005676,0.9656041264533997,-9.815657615661621
1745729273.5233567,-0.03234408423304558,-0.038677141070365906,0.42197713255882263,0.5388942956924438,0.9101197123527527,-9.82848834991455
1745729273.5580883,-0.02096201851963997,-0.04062996059656143,0.4194953441619873,0.3961776793003082,1.0071885585784912,-9.693881034851074
1745729273.5609922,-0.025191161781549454,-0.03822501748800278,0.41952210664749146,0.6300445795059204,0.7464693188667297,-9.619049072265625
1745729273.562073,-0.03396175056695938,-0.041127078235149384,0.4192419648170471,0.5744139552116394,0.9444135427474976,-9.806177139282227
1745729273.565496,-0.022530922666192055,-0.03830954432487488,0.42128291726112366,0.5394147634506226,0.7680267095565796,-9.926514625549316
1745729273.6036556,-0.03635869920253754,-0.04048393666744232,0.421220600605011,0.5052672624588013,0.991413950920105,-9.618743896484375
1745729273.6069283,-0.03812456130981445,-0.03510574251413345,0.4164094924926758,0.582818865776062,0.7963916063308716,-9.606576919555664
1745729273.6086142,-0.019742725417017937,-0.03140633553266525,0.4197775423526764,0.3775166869163513,0.9751409292221069,-9.728316307067871
1745729273.610059,-0.03225710615515709,-0.03568516671657562,0.4176390767097473,0.6171358823776245,0.7899974584579468,-9.869598388671875
1745729273.6470292,-0.025894558057188988,-0.03372529149055481,0.41862431168556213,0.447567880153656,1.1041420698165894,-9.716647148132324
1745729273.651453,-0.017022768035531044,-0.029738713055849075,0.4174850881099701,0.5210960507392883,0.8906322717666626,-9.668722152709961
1745729273.6634974,-0.028604676946997643,-0.03848741203546524,0.41670387983322144,0.4684823155403137,1.1482820510864258,-9.765179634094238
1745729273.6637251,-0.007974185049533844,-0.03519221395254135,0.41273483633995056,0.49419522285461426,0.8642494082450867,-9.893011093139648
1745729273.6637483,-0.01880880817770958,-0.03153910115361214,0.41184282302856445,0.5764861106872559,1.0320489406585693,-9.621408462524414
1745729273.693819,-0.012552589178085327,-0.03265869989991188,0.4129650592803955,0.40847402811050415,0.880131721496582,-9.704591751098633
1745729273.6950011,-0.020715966820716858,-0.03777916729450226,0.41389670968055725,0.6160143613815308,0.8494089841842651,-9.73266887664795
1745729273.6950731,-0.011804042384028435,-0.03300401195883751,0.41443005204200745,0.44884324073791504,1.004461646080017,-9.792180061340332
1745729273.6964645,-0.01498712319880724,-0.028086479753255844,0.41512227058410645,0.5861617922782898,0.7627928853034973,-9.701144218444824
1745729273.7355957,-0.012885397300124168,-0.03510453552007675,0.4163629412651062,0.44848307967185974,1.071217656135559,-9.673386573791504
1745729273.735699,-0.007436590734869242,-0.03387410193681717,0.41254234313964844,0.47885584831237793,0.9249116778373718,-9.72598934173584
1745729273.736788,-0.012000144459307194,-0.03334774449467659,0.41304636001586914,0.5514072179794312,0.9897295832633972,-9.771867752075195
1745729273.7393262,-0.010161271318793297,-0.027830442413687706,0.4045783579349518,0.593445897102356,0.7691148519515991,-9.972295761108398
1745729273.7744057,-0.0029455432668328285,-0.027380336076021194,0.4041953980922699,0.4096260964870453,1.1135261058807373,-9.719247817993164
1745729273.7768037,0.003673309925943613,-0.02548431232571602,0.40275606513023376,0.4897494912147522,0.8155498504638672,-9.57306957244873
1745729273.7778862,-0.010545935481786728,-0.03177100792527199,0.40234312415122986,0.43846815824508667,1.0935845375061035,-9.762578964233398
1745729273.7800684,0.006653109099715948,-0.027335721999406815,0.40129756927490234,0.4268079400062561,0.7749369144439697,-9.957919120788574
1745729273.7823155,-0.004585863556712866,-0.027264395728707314,0.40160903334617615,0.5503289103507996,0.9417885541915894,-9.58897590637207
1745729273.8183446,-0.0020671789534389973,-0.025761324912309647,0.3988955020904541,0.43248146772384644,0.913559079170227,-9.610466003417969
1745729273.8214593,-0.008805738762021065,-0.034570369869470596,0.40005555748939514,0.5616133809089661,0.8295985460281372,-9.8161039352417
1745729273.823358,-0.0012256235349923372,-0.028813540935516357,0.4002665877342224,0.3642658293247223,1.0171149969100952,-9.866656303405762
1745729273.827161,-0.0055671618320047855,-0.020729374140501022,0.3996182084083557,0.5285965800285339,0.758283793926239,-9.623666763305664
1745729273.8605473,-0.0032121320255100727,-0.02826923131942749,0.40034931898117065,0.409868061542511,1.039733648300171,-9.503517150878906
1745729273.8628135,0.003273396287113428,-0.02782549522817135,0.4000558853149414,0.419560045003891,0.9187580347061157,-9.792757987976074
1745729273.8660543,-0.0010490233544260263,-0.027305766940116882,0.39780792593955994,0.528119683265686,0.9419201016426086,-9.936277389526367
1745729273.868977,0.011954267509281635,-0.020194273442029953,0.39882785081863403,0.33641570806503296,0.9966827630996704,-9.742524147033691
1745729273.871802,-0.005751834716647863,-0.025276700034737587,0.39656028151512146,0.4752027094364166,0.7573761343955994,-9.499872207641602
1745729273.9035816,0.011444563046097755,-0.02951420284807682,0.3974340558052063,0.44677048921585083,0.9884542226791382,-9.644316673278809
1745729273.9058917,-0.006549130193889141,-0.023235255852341652,0.39705830812454224,0.6267525553703308,0.7214184999465942,-10.033197402954102
1745729273.9089606,0.0035881400108337402,-0.024470236152410507,0.3973960280418396,0.38893651962280273,0.9681196212768555,-9.846419334411621
1745729273.9130616,0.0009266237029805779,-0.023160800337791443,0.39752396941185,0.43726643919944763,0.7063421010971069,-9.494255065917969
1745729273.9447858,-0.007743172347545624,-0.03236182779073715,0.399699866771698,0.5508522987365723,0.9789408445358276,-9.522564888000488
1745729273.947573,-0.0003793191281147301,-0.024132978171110153,0.3990821838378906,0.44362673163414,0.8250104784965515,-10.048271179199219
1745729273.9493217,0.00749328825622797,-0.02553858794271946,0.39510801434516907,0.40769562125205994,0.8541141748428345,-9.954900741577148
1745729273.9529078,-0.005519313272088766,-0.023573951795697212,0.39497312903404236,0.5294966697692871,0.7838597893714905,-9.67278003692627
1745729273.9888535,0.010420650243759155,-0.026575401425361633,0.3969886004924774,0.34399110078811646,0.9994418025016785,-9.490545272827148
1745729273.9951818,-0.009573887102305889,-0.025343284010887146,0.39593425393104553,0.5242609977722168,0.7537034749984741,-9.827432632446289
1745729273.9952729,0.002759480383247137,-0.027304744347929955,0.39488115906715393,0.44376713037490845,0.9800325632095337,-9.956786155700684
1745729273.9953406,0.005594705231487751,-0.018864333629608154,0.3950830399990082,0.430431067943573,0.8256549835205078,-9.670413970947266
1745729273.9953797,-0.010339033789932728,-0.027579480782151222,0.392914742231369,0.46587949991226196,0.9230678677558899,-9.560868263244629
1745729274.0339437,0.004834376275539398,-0.02768092229962349,0.3941439986228943,0.39712458848953247,0.8908356428146362,-9.83762264251709
1745729274.034438,-0.00780328968539834,-0.025586873292922974,0.39540550112724304,0.5543922781944275,0.7886313199996948,-9.905962944030762
1745729274.0357583,0.002274648752063513,-0.02079998329281807,0.39343926310539246,0.40817326307296753,0.949499249458313,-9.646434783935547
1745729274.0378428,-0.007584790233522654,-0.027588143944740295,0.3950943946838379,0.5490355491638184,0.7157984375953674,-9.649378776550293
1745729274.0771768,0.00012842546857427806,-0.03341059759259224,0.39430323243141174,0.4351944327354431,1.0919135808944702,-9.801728248596191
1745729274.077284,0.004674434661865234,-0.023585308343172073,0.3969758450984955,0.5158017873764038,0.718493640422821,-9.959518432617188
1745729274.0780048,-0.006177215836942196,-0.02813473343849182,0.39368999004364014,0.4380784034729004,1.0638697147369385,-9.694562911987305
1745729274.0798266,0.0039040229748934507,-0.026160944253206253,0.39439186453819275,0.36619529128074646,0.7580038905143738,-9.635394096374512
1745729274.121994,0.006503175012767315,-0.025271091610193253,0.3977673649787903,0.4804760813713074,0.7489659190177917,-9.784024238586426
1745729274.12286,-0.015247371979057789,-0.027054578065872192,0.3967525064945221,0.5785836577415466,0.9130535125732422,-9.897926330566406
1745729274.1271586,0.0019780502188950777,-0.029902741312980652,0.39596158266067505,0.35381707549095154,0.8633149266242981,-9.815469741821289
1745729274.1301699,-0.009701557457447052,-0.030112039297819138,0.39662832021713257,0.4934951663017273,0.7151227593421936,-9.62193775177002
1745729274.1604757,-0.000921366736292839,-0.02796619012951851,0.3981054425239563,0.4339533746242523,0.9712365865707397,-9.660725593566895
1745729274.1622245,-0.0092111611738801,-0.026887336745858192,0.3986782431602478,0.5406763553619385,0.6826750040054321,-9.935211181640625
1745729274.1670127,0.0020994357764720917,-0.03344251587986946,0.3985153138637543,0.3914802074432373,1.0931596755981445,-9.834895133972168
1745729274.1674209,0.002561993198469281,-0.025835122913122177,0.39817872643470764,0.4507773816585541,0.7370704412460327,-9.645528793334961
1745729274.1688063,-0.002501385286450386,-0.02993236854672432,0.3962891399860382,0.4326933026313782,1.0229356288909912,-9.626787185668945
1745729274.2050307,0.0014216609997674823,-0.027877528220415115,0.39583367109298706,0.39447981119155884,0.8438310623168945,-9.872575759887695
1745729274.2079613,-0.0021253167651593685,-0.03412846103310585,0.3951098322868347,0.5543336272239685,0.732978343963623,-9.823640823364258
1745729274.211665,-0.002009861171245575,-0.029264498502016068,0.39256420731544495,0.38831382989883423,0.9198122024536133,-9.686159133911133
1745729274.2155805,-0.014746828004717827,-0.028427351266145706,0.39498940110206604,0.46287402510643005,0.6296521425247192,-9.704154968261719
1745729274.2457836,-0.0020701356697827578,-0.0333423838019371,0.3953191339969635,0.3434733748435974,0.9310639500617981,-9.683818817138672
1745729274.24672,-0.011918705888092518,-0.027577195316553116,0.39541032910346985,0.5040472149848938,0.6856812238693237,-9.82317066192627
1745729274.2484176,-0.015260741114616394,-0.029749387875199318,0.3979906439781189,0.445552259683609,0.927505373954773,-9.756396293640137
1745729274.2503424,0.001672827871516347,-0.025511955842375755,0.39601707458496094,0.37995725870132446,0.8685594797134399,-9.658248901367188
1745729274.2596679,-0.018072260543704033,-0.03538893163204193,0.3947361409664154,0.4923408627510071,0.8722721934318542,-9.777510643005371
1745729274.2899287,0.007344725541770458,-0.028102833777666092,0.3933209776878357,0.3699186146259308,0.9529005885124207,-9.900830268859863
1745729274.2915618,-0.012834344990551472,-0.027285125106573105,0.39394479990005493,0.5105210542678833,0.7747297286987305,-9.651284217834473
1745729274.2938137,-0.007170677185058594,-0.03068682551383972,0.39304977655410767,0.32441624999046326,0.872401237487793,-9.612993240356445
1745729274.2973945,-0.01523906271904707,-0.03264915198087692,0.39345043897628784,0.5907748341560364,0.6405373811721802,-9.801907539367676
1745729274.333599,-0.0060318829491734505,-0.02991766855120659,0.3914336562156677,0.4589032232761383,0.7207185626029968,-9.626704216003418
1745729274.3367956,-0.008159225806593895,-0.0316685326397419,0.3925240933895111,0.4101639688014984,1.0633370876312256,-9.643584251403809
1745729274.3377872,-0.012511861510574818,-0.026970138773322105,0.38908442854881287,0.43642234802246094,0.6623215675354004,-9.997017860412598
1745729274.3414853,-0.00997732114046812,-0.03432489186525345,0.3923119604587555,0.4704010486602783,0.9037643671035767,-9.739679336547852
1745729274.3517704,0.01032239943742752,-0.027715329080820084,0.3954962193965912,0.4462089538574219,0.757506787776947,-9.537965774536133
1745729274.3770916,-0.019034385681152344,-0.03653674200177193,0.39032599329948425,0.5439107418060303,1.1941907405853271,-9.728086471557617
1745729274.380518,0.023044267669320107,-0.05995473265647888,0.3782363533973694,-0.08462944626808167,1.4201056957244873,-10.393583297729492
1745729274.3815446,0.02909678779542446,-0.03197595849633217,0.3574983477592468,-0.2572079002857208,1.424822211265564,-9.721125602722168
1745729274.3827648,0.05586964637041092,-0.055236220359802246,0.34313780069351196,-0.4858608841896057,1.7067670822143555,-9.105697631835938
1745729274.4248168,0.04504705220460892,-0.06506510078907013,0.32942479848861694,-0.6405148506164551,0.6511659622192383,-9.954307556152344
1745729274.4249635,0.12140776962041855,-0.04403861612081528,0.3293255567550659,-0.5017154812812805,0.593787670135498,-10.009947776794434
1745729274.4287622,0.0389820821583271,-0.02469371072947979,0.3324424624443054,-0.4433843195438385,0.11737258732318878,-9.244943618774414
1745729274.4318209,0.05004138872027397,-0.06884710490703583,0.33486780524253845,0.3673922121524811,-0.5066755414009094,-9.191851615905762
1745729274.465585,0.0441448912024498,-0.055575646460056305,0.3365541398525238,0.4686622619628906,0.2677134871482849,-10.17130184173584
1745729274.4675453,0.09860819578170776,-0.06263570487499237,0.1787397563457489,-0.13403567671775818,0.6230270266532898,-9.407903671264648
1745729274.4694104,0.09797753393650055,-0.06808057427406311,0.1755700409412384,-0.1958017796278,0.6841505169868469,-9.640978813171387
1745729274.46954,0.1229233518242836,-0.05150901526212692,0.1677573025226593,-0.3099571466445923,1.1912065744400024,-10.021833419799805
1745729274.5061836,0.12118158489465714,-0.04955274984240532,0.15992693603038788,0.0006515703280456364,0.5250550508499146,-9.873847961425781
1745729274.5116777,0.13101127743721008,-0.056185878813266754,0.15588155388832092,0.07149338722229004,0.6895659565925598,-9.465110778808594
1745729274.5128725,0.09891736507415771,-0.04063010215759277,0.15125660598278046,0.3400246202945709,0.22251680493354797,-9.96046257019043
1745729274.5129163,0.09505049139261246,-0.04947703331708908,0.1466747224330902,0.5348407030105591,0.34643781185150146,-10.054505348205566
1745729274.5513847,0.08471383899450302,-0.036903586238622665,0.14730384945869446,0.36923351883888245,0.5213730931282043,-9.858536720275879
1745729274.5515563,0.0753045305609703,-0.039145778864622116,0.13505607843399048,0.8013007044792175,0.7189212441444397,-9.531769752502441
1745729274.5516872,0.08960871398448944,-0.03889123350381851,0.12930062413215637,0.4368053376674652,1.088315486907959,-9.947453498840332
1745729274.55235,0.10883237421512604,-0.038228437304496765,0.11650869995355606,0.3491015136241913,1.0262819528579712,-10.054750442504883
1745729274.5550082,0.13218450546264648,-0.022841528058052063,0.10571469366550446,0.062452077865600586,1.3808906078338623,-9.595576286315918
1745729274.5924854,0.1642013043165207,-0.020567340776324272,0.09917641431093216,0.11973265558481216,0.8832294344902039,-9.54936695098877
1745729274.5950246,0.19171135127544403,-0.022009704262018204,0.09526868164539337,0.26560014486312866,1.0562942028045654,-9.718256950378418
1745729274.5964787,0.1993730217218399,-0.0075654760003089905,0.08814743906259537,0.1779768019914627,0.7034819722175598,-10.122871398925781
1745729274.5984588,0.22559931874275208,-0.0008254150743596256,0.08297036588191986,0.3298814296722412,0.527341365814209,-9.726978302001953
1745729274.6359189,0.20767441391944885,0.0005673457053489983,0.07927056401968002,0.3512488007545471,0.4143194258213043,-9.391045570373535
1745729274.6408727,0.17728731036186218,0.002662991639226675,0.07290040701627731,0.634124755859375,-0.04130201041698456,-9.931228637695312
1745729274.643163,0.17258445918560028,0.004449550062417984,0.06465724855661392,0.3261411488056183,0.30411094427108765,-10.15013599395752
1745729274.6443002,0.12836432456970215,0.015800293534994125,0.05711279436945915,0.2677055299282074,0.02010286971926689,-9.798112869262695
1745729274.6765819,0.12513044476509094,0.013927479274570942,0.051320452243089676,0.2190166413784027,0.47212299704551697,-9.370500564575195
1745729274.6770544,0.2524688243865967,0.04973305016756058,0.004197900183498859,0.3378535807132721,0.43568509817123413,-9.243866920471191
1745729274.678689,0.23824205994606018,0.04257667437195778,-0.0037509012036025524,0.5594171285629272,0.39523935317993164,-9.716461181640625
1745729274.6809907,0.23431570827960968,0.0511833056807518,-0.016074303537607193,0.3947441577911377,0.3660569190979004,-10.38273811340332
1745729274.6872797,0.21346528828144073,0.05511029437184334,-0.024620400741696358,0.4898899495601654,0.0581665113568306,-9.934645652770996
1745729274.7214699,0.19647563993930817,0.05956662446260452,-0.03023410402238369,0.3741440176963806,-0.02679542265832424,-9.306475639343262
1745729274.7230208,0.1704428493976593,0.05082016438245773,-0.030595993623137474,0.5592764616012573,-0.16533437371253967,-9.610394477844238
1745729274.7266824,0.18300361931324005,0.060225170105695724,-0.028535867109894753,0.3297635614871979,0.2803904116153717,-10.102957725524902
1745729274.7274442,0.17577186226844788,0.07410182803869247,-0.0323464460670948,0.35910362005233765,0.23797059059143066,-9.974603652954102
1745729274.7651758,0.20426861941814423,0.06533879786729813,-0.03662959486246109,0.3722483515739441,0.6572176218032837,-9.409282684326172
1745729274.7691667,0.21960434317588806,0.06642166525125504,-0.04274076968431473,0.2627224028110504,0.7042635679244995,-9.618321418762207
1745729274.7709873,0.21877649426460266,0.06452430784702301,-0.05096388980746269,0.3805823028087616,0.4617134928703308,-10.137102127075195
1745729274.780412,0.2621646821498871,0.08274666965007782,-0.059422533959150314,0.2585449814796448,0.5656154751777649,-9.830945014953613
1745729274.780483,0.22163930535316467,0.06902845948934555,-0.06270289421081543,0.6368911862373352,0.006616830825805664,-9.30936336517334
1745729274.8094864,0.2301371991634369,0.06755684316158295,-0.06673268973827362,0.5612954497337341,0.2150755673646927,-9.603785514831543
1745729274.812316,0.21454349160194397,0.072152279317379,-0.06925354152917862,0.6719141006469727,-0.047368694096803665,-10.258417129516602
1745729274.818362,0.19097831845283508,0.045427773147821426,-0.17002813518047333,0.5833865404129028,-0.04486069828271866,-9.680412292480469
1745729274.821028,0.20683765411376953,0.04151386767625809,-0.17219075560569763,0.46443504095077515,0.014529049396514893,-9.775405883789062
1745729274.849054,0.20616503059864044,0.03911500424146652,-0.17429396510124207,0.6135980486869812,-0.12138426303863525,-9.70145320892334
1745729274.85136,0.21561653912067413,0.036409892141819,-0.17855988442897797,0.41684040427207947,-0.06863689422607422,-9.65916633605957
1745729274.8520024,0.2062348574399948,0.03848208859562874,-0.18169888854026794,0.5205455422401428,-0.30566731095314026,-9.637245178222656
1745729274.8565023,0.1987750381231308,0.029894491657614708,-0.18658840656280518,0.5748722553253174,-0.1316296011209488,-9.640793800354004
1745729274.8592732,0.1902700662612915,0.03101510740816593,-0.18908339738845825,0.5916303396224976,-0.36568546295166016,-9.882126808166504
1745729274.8928652,0.18467287719249725,0.02723507024347782,-0.1924676150083542,0.6407407522201538,-0.3030215799808502,-9.831141471862793
1745729274.8950589,0.18528522551059723,0.026215815916657448,-0.19590765237808228,0.4799748361110687,-0.2634338438510895,-9.63491153717041
1745729274.8988872,0.17164912819862366,0.02155459113419056,-0.19699987769126892,0.661381721496582,-0.43343037366867065,-9.54616928100586
1745729274.899554,0.19062285125255585,0.021962527185678482,-0.19879233837127686,0.42943263053894043,-0.022117530927062035,-9.71898365020752
1745729274.9380984,0.18133065104484558,0.02143583633005619,-0.20147410035133362,0.5310748815536499,-0.3937949538230896,-9.81151008605957
1745729274.9445486,0.1952555626630783,0.01741449162364006,-0.20020756125450134,0.46412068605422974,-0.10665788501501083,-9.635908126831055
1745729274.9454706,0.19730518758296967,0.01550632156431675,-0.20555385947227478,0.47347649931907654,-0.4097881317138672,-9.723143577575684
1745729274.9473844,0.18706190586090088,0.010058884508907795,-0.2085248976945877,0.5159178972244263,-0.3270891010761261,-9.832094192504883
1745729274.9801114,0.19120490550994873,0.015068033710122108,-0.20970289409160614,0.41988009214401245,-0.2931146025657654,-9.726079940795898
1745729274.982473,0.16828155517578125,0.010323851369321346,-0.21491721272468567,0.70110684633255,-0.5845314264297485,-9.543258666992188
1745729274.9855561,0.1737213134765625,0.0022313629742711782,-0.21566331386566162,0.5841630101203918,-0.3287609815597534,-9.693217277526855
1745729274.9891186,0.15324728190898895,0.002540643559768796,-0.21878556907176971,0.6669407486915588,-0.6044837832450867,-9.969816207885742
1745729274.992751,0.15457528829574585,0.0034579900093376637,-0.21956010162830353,0.46585288643836975,-0.37697502970695496,-9.749410629272461
1745729275.0258725,0.15321765840053558,0.005900559015572071,-0.22133803367614746,0.4682275354862213,-0.3442794978618622,-9.498259544372559
1745729275.028192,0.1547064334154129,-0.014012989588081837,-0.235115647315979,0.5182704329490662,-0.6743952035903931,-9.591371536254883
1745729275.0293562,0.13117727637290955,-0.02169789932668209,-0.2387530356645584,0.5040273666381836,-0.44838985800743103,-9.913763046264648
1745729275.0304658,0.14782077074050903,-0.014240900985896587,-0.2402254343032837,0.47404366731643677,-0.5234010815620422,-10.024163246154785
1745729275.0649626,0.13761477172374725,-0.017840232700109482,-0.24031898379325867,0.5438237190246582,-0.43241387605667114,-9.608648300170898
1745729275.068472,0.14715296030044556,-0.026068400591611862,-0.24202342331409454,0.40534061193466187,-0.3240787386894226,-9.551724433898926
1745729275.0705395,0.1445019543170929,-0.023100268095731735,-0.24255342781543732,0.5468775033950806,-0.5806084275245667,-9.903802871704102
1745729275.0741236,0.14957287907600403,-0.02195022627711296,-0.24440093338489532,0.43014270067214966,-0.3506166338920593,-9.897745132446289
1745729275.1099133,0.16403847932815552,-0.0173477865755558,-0.246511772274971,0.4655156135559082,-0.5496365427970886,-9.605512619018555
1745729275.1161766,0.14496967196464539,-0.02835189923644066,-0.24788236618041992,0.5479974150657654,-0.38418909907341003,-9.565889358520508
1745729275.121645,0.15536415576934814,-0.02432737872004509,-0.24965135753154755,0.5497415661811829,-0.6097104549407959,-9.992849349975586
1745729275.1273663,0.15042629837989807,-0.02568642422556877,-0.2503384053707123,0.5832622647285461,-0.5025014281272888,-9.98475456237793
1745729275.13016,0.14520177245140076,-0.026659686118364334,-0.25360503792762756,0.4002148509025574,-0.5079795122146606,-9.7040433883667
1745729275.152894,0.14233045279979706,-0.02729472890496254,-0.25698772072792053,0.5801436305046082,-0.7274366617202759,-9.56658935546875
1745729275.1552353,0.1288212686777115,-0.03498218581080437,-0.25630396604537964,0.49182718992233276,-0.5666836500167847,-9.883631706237793
1745729275.1576664,0.13231655955314636,-0.028307896107435226,-0.2559148371219635,0.49318042397499084,-0.7270017266273499,-10.024746894836426
1745729275.1594236,0.119603231549263,-0.024884510785341263,-0.2764759063720703,0.4818110466003418,-0.7465699911117554,-9.921809196472168
1745729275.193922,0.1312399059534073,-0.021711476147174835,-0.27612003684043884,0.48037824034690857,-0.7532093524932861,-9.968396186828613
1745729275.1954536,0.12436606734991074,-0.02268502674996853,-0.2752513289451599,0.5132557153701782,-0.8569240570068359,-9.698667526245117
1745729275.19711,0.1190095990896225,-0.029228439554572105,-0.27585098147392273,0.500097393989563,-0.7870643734931946,-9.706002235412598
1745729275.198257,0.11419764906167984,-0.0249906275421381,-0.27589401602745056,0.4685651659965515,-0.8990042805671692,-9.993024826049805
1745729275.2000847,0.09976974874734879,-0.024931976571679115,-0.2761390209197998,0.42728251218795776,-0.8230643272399902,-9.86126708984375
1745729275.2369509,0.11404460668563843,-0.02017274871468544,-0.2813602089881897,0.37420693039894104,-0.8307241201400757,-9.47307014465332
1745729275.238062,0.08933309465646744,-0.025677761062979698,-0.2809355854988098,0.5413501262664795,-0.748488187789917,-9.55883502960205
1745729275.2397606,0.10039496421813965,-0.024245448410511017,-0.28270113468170166,0.4492526650428772,-0.7576708793640137,-10.054464340209961
1745729275.2469316,0.10383808612823486,-0.019558358937501907,-0.2795775532722473,0.5174728631973267,-0.8788872957229614,-10.035039901733398
1745729275.2799602,0.09887071698904037,-0.025288334116339684,-0.2802964150905609,0.35875070095062256,-0.6853345036506653,-9.601283073425293
1745729275.2820723,0.11398337036371231,-0.01803971454501152,-0.2786693871021271,0.4659060537815094,-0.8811962008476257,-9.586250305175781
1745729275.284568,0.10192856937646866,-0.024817466735839844,-0.2778526842594147,0.46912869811058044,-0.6778117418289185,-9.893095016479492
1745729275.2856612,0.12272866815328598,-0.01763942837715149,-0.2795559763908386,0.4064860939979553,-0.6910184025764465,-9.924211502075195
1745729275.324057,0.1033598929643631,-0.018005480989813805,-0.28249967098236084,0.5215885043144226,-0.8589164018630981,-9.598294258117676
1745729275.32505,0.10844936221837997,-0.024556094780564308,-0.28395193815231323,0.37150973081588745,-0.8503208160400391,-9.57315731048584
1745729275.3273795,0.09685825556516647,-0.01702258363366127,-0.28345099091529846,0.5799535512924194,-0.9484065771102905,-9.857726097106934
1745729275.3309586,0.08526210486888885,-0.01991124264895916,-0.2844248414039612,0.40129223465919495,-0.8633815050125122,-9.935155868530273
1745729275.3310103,0.08678512275218964,-0.013749885372817516,-0.2861999571323395,0.5792579054832458,-1.049446940422058,-9.747294425964355
1745729275.366282,0.08285451680421829,-0.020514681935310364,-0.28378060460090637,0.455900102853775,-0.7858079671859741,-9.624898910522461
1745729275.3673847,0.08562498539686203,-0.019334975630044937,-0.2840885519981384,0.4065592288970947,-0.9073618650436401,-9.851061820983887
1745729275.37091,0.07702163606882095,-0.015585820190608501,-0.28739550709724426,0.40197309851646423,-0.9117480516433716,-9.956899642944336
1745729275.3718774,0.06276847422122955,-0.015064209699630737,-0.2858615219593048,0.5138475298881531,-0.8726731538772583,-9.628717422485352
1745729275.4125948,0.08312243968248367,-0.013445911929011345,-0.28660932183265686,0.3290870785713196,-0.6193451881408691,-9.489237785339355
1745729275.415989,0.07102318108081818,-0.017927926033735275,-0.28564170002937317,0.48932188749313354,-1.0271480083465576,-9.773486137390137
1745729275.4161005,0.08629760146141052,-0.014656993560492992,-0.28482091426849365,0.38029488921165466,-0.7419345378875732,-9.89664077758789
1745729275.4199045,0.07984587550163269,-0.009109057486057281,-0.2842404544353485,0.42099952697753906,-1.0631775856018066,-9.773507118225098
1745729275.4525099,0.07751652598381042,-0.017170002683997154,-0.28376972675323486,0.43615731596946716,-0.8357599377632141,-9.531946182250977
1745729275.4528463,0.0771283283829689,-0.012454773299396038,-0.2848927974700928,0.4114643633365631,-0.8986034393310547,-9.686777114868164
1745729275.4539926,0.06279636919498444,-0.014395643956959248,-0.2860702574253082,0.6370418667793274,-1.0608108043670654,-9.951630592346191
1745729275.4540248,0.07583369314670563,-0.012432040646672249,-0.28576770424842834,0.45581236481666565,-0.8287032246589661,-9.791897773742676
1745729275.4563618,0.05536337569355965,-0.015184765681624413,-0.28636470437049866,0.5346155762672424,-1.0815571546554565,-9.604459762573242
1745729275.4974236,0.05788007378578186,-0.01759876310825348,-0.2848217487335205,0.4016388952732086,-0.9806931614875793,-9.586645126342773
1745729275.4986544,0.05514318495988846,-0.008476970717310905,-0.28501248359680176,0.4650513529777527,-0.9377378225326538,-9.789146423339844
1745729275.5032008,0.05092497915029526,-0.016297459602355957,-0.2864978313446045,0.527898907661438,-0.8947475552558899,-9.790743827819824
1745729275.5118158,0.057697445154190063,-0.010034257546067238,-0.28481966257095337,0.3605521619319916,-0.8547420501708984,-9.715384483337402
1745729275.5389137,0.020487796515226364,-0.021819014102220535,-0.29063352942466736,0.548129677772522,-1.0661563873291016,-9.730327606201172
1745729275.5410454,0.027571428567171097,-0.023484889417886734,-0.2910483479499817,0.5216218829154968,-0.842529296875,-9.698293685913086
1745729275.5440557,0.022054534405469894,-0.024714332073926926,-0.29086580872535706,0.4777134358882904,-1.130111575126648,-9.84062385559082
1745729275.5460413,0.016785021871328354,-0.02500441111624241,-0.2891545295715332,0.48669490218162537,-0.8616142272949219,-9.635418891906738
1745729275.581684,0.017468448728322983,-0.0194045789539814,-0.2891499102115631,0.42656439542770386,-1.0408254861831665,-9.617887496948242
1745729275.5828464,0.008581654168665409,-0.02649134397506714,-0.28996095061302185,0.5626543760299683,-0.9747458696365356,-9.690154075622559
1745729275.584512,0.018348168581724167,-0.02371426299214363,-0.29212650656700134,0.38371410965919495,-0.8043867349624634,-9.861200332641602
1745729275.5868442,0.003602000419050455,-0.02248663268983364,-0.29222917556762695,0.5357294082641602,-1.0809580087661743,-9.86180305480957
1745729275.5889668,0.02139449119567871,-0.02401217259466648,-0.29236549139022827,0.40840214490890503,-0.7940698862075806,-9.562355995178223
1745729275.634259,0.01106307003647089,-0.02624247409403324,-0.29182711243629456,0.5261532664299011,-1.0830233097076416,-9.711381912231445
1745729275.6343663,0.015145656652748585,-0.027393048629164696,-0.2899691164493561,0.5241193771362305,-0.9296792149543762,-9.85196304321289
1745729275.6344438,0.0256805419921875,-0.019994137808680534,-0.290693461894989,0.4371621012687683,-0.8961588740348816,-9.747591972351074
1745729275.6345115,0.011296069249510765,-0.027612412348389626,-0.28855305910110474,0.5491986870765686,-1.0481407642364502,-9.517352104187012
1745729275.6665437,0.019541600719094276,-0.02494059130549431,-0.2899816036224365,0.3890604078769684,-0.8831664323806763,-9.645076751708984
1745729275.668552,0.0024099235888570547,-0.0273728109896183,-0.2924913763999939,0.588258683681488,-1.1095067262649536,-9.976853370666504
1745729275.670963,0.014645984396338463,-0.02448742464184761,-0.29082393646240234,0.37922900915145874,-0.8568419218063354,-9.85607624053955
1745729275.674061,-0.0038514744956046343,-0.021660856902599335,-0.2920641303062439,0.4770891070365906,-1.0524524450302124,-9.565078735351562
1745729275.6751816,-0.003366073127835989,-0.03205223008990288,-0.2901797294616699,0.49526482820510864,-0.9894439578056335,-9.616480827331543
1745729275.7115872,0.004748856648802757,-0.024755047634243965,-0.2922787070274353,0.4771738052368164,-0.93487149477005,-9.896306991577148
1745729275.7133439,-0.002148005412891507,-0.027856284752488136,-0.29142671823501587,0.5666676759719849,-0.8472152948379517,-9.826250076293945
1745729275.7154028,0.014418813399970531,-0.022636881098151207,-0.2921055853366852,0.38159120082855225,-0.9355546236038208,-9.536907196044922
1745729275.7169533,-0.00771224033087492,-0.02958238683640957,-0.29385876655578613,0.4282017648220062,-0.8890994787216187,-9.576647758483887
1745729275.760919,-0.01475701667368412,-0.026693087071180344,-0.29101401567459106,0.5309289693832397,-1.027114748954773,-9.782388687133789
1745729275.7610414,-0.0036342039238661528,-0.025655517354607582,-0.2931491732597351,0.3320382237434387,-0.7084546089172363,-9.837148666381836
1745729275.7612302,-0.002743110992014408,-0.025658931583166122,-0.2910865247249603,0.5268086194992065,-1.048523187637329,-9.766016006469727
1745729275.7710679,-0.0017217571148648858,-0.027823757380247116,-0.2912992238998413,0.4094584882259369,-0.7140811681747437,-9.68443489074707
1745729275.7962637,0.006386382970958948,-0.026798134669661522,-0.29034027457237244,0.4151150584220886,-1.0177503824234009,-9.884649276733398
1745729275.7984922,-0.003457624465227127,-0.029185842722654343,-0.2911570370197296,0.5189561247825623,-0.8707946538925171,-9.797391891479492
1745729275.8007777,0.0025774098467081785,-0.02508789673447609,-0.2921175956726074,0.40150636434555054,-0.8878815770149231,-9.627762794494629
1745729275.801803,0.00046040452434681356,-0.028216850012540817,-0.29203328490257263,0.6047417521476746,-1.0123077630996704,-9.572105407714844
1745729275.8031325,-0.0024293672759085894,-0.031630296260118484,-0.29187923669815063,0.4310753345489502,-0.8405545353889465,-9.789409637451172
1745729275.8401215,-0.011975894682109356,-0.02247394435107708,-0.29314807057380676,0.530916154384613,-1.0652849674224854,-9.910018920898438
1745729275.8434117,0.00021196148009039462,-0.02473207749426365,-0.29225248098373413,0.3982205390930176,-0.7738779783248901,-9.620926856994629
1745729275.8462653,-0.008190427906811237,-0.025025714188814163,-0.2924191951751709,0.38924774527549744,-0.938681960105896,-9.607815742492676
1745729275.848016,0.000525179784744978,-0.028274089097976685,-0.294189989566803,0.5309519171714783,-0.8144102096557617,-9.836713790893555
1745729275.8812137,0.004671616014093161,-0.025180157274007797,-0.2924834191799164,0.3680092394351959,-0.8889142274856567,-9.969171524047852
1745729275.8840353,0.008805924095213413,-0.023543311282992363,-0.2896536588668823,0.47445863485336304,-0.77571040391922,-9.800517082214355
1745729275.8864777,0.011333405040204525,-0.02425622195005417,-0.28704220056533813,0.47721344232559204,-1.0623630285263062,-9.690470695495605
1745729275.8899655,0.0017982196295633912,-0.0254076961427927,-0.2864411473274231,0.4758397936820984,-0.7978435754776001,-9.642125129699707
1745729275.9354742,0.015084432438015938,-0.021366778761148453,-0.2881813645362854,0.3621920943260193,-0.8653019666671753,-9.875360488891602
1745729275.9355683,0.0021404395811259747,-0.02463623881340027,-0.2890229821205139,0.4486798346042633,-0.9245921969413757,-9.86953353881836
1745729275.9356685,0.010767917148768902,-0.024087080731987953,-0.28967583179473877,0.3034043610095978,-0.7253226041793823,-9.659520149230957
1745729275.9357524,0.005352130625396967,-0.02306293323636055,-0.29135969281196594,0.4650677740573883,-1.1028016805648804,-9.579584121704102
1745729275.9358215,0.012669593095779419,-0.023420384153723717,-0.2887723445892334,0.3923362195491791,-0.7273916006088257,-9.673086166381836
1745729275.9690342,0.008836760185658932,-0.01900516077876091,-0.29019051790237427,0.5257188081741333,-0.9821085929870605,-9.87283706665039
1745729275.970607,0.007865033112466335,-0.020782094448804855,-0.28891268372535706,0.5414190888404846,-0.9273619651794434,-9.746129989624023
1745729275.9731736,0.014611584134399891,-0.01960952952504158,-0.2860274910926819,0.35377615690231323,-0.8940202593803406,-9.69078254699707
1745729275.9755552,0.0034793794620782137,-0.023225849494338036,-0.28747648000717163,0.5600338578224182,-0.9668744802474976,-9.813726425170898
1745729276.0184684,0.016008395701646805,-0.019320067018270493,-0.2867477536201477,0.3270951807498932,-0.7134257555007935,-9.811442375183105
1745729276.0225732,0.012483151629567146,-0.019852150231599808,-0.2898421287536621,0.5123631954193115,-0.9675344228744507,-9.699450492858887
1745729276.0239286,0.01105232909321785,-0.027654755860567093,-0.29011744260787964,0.43309539556503296,-0.7567717432975769,-9.679064750671387
1745729276.0268798,0.005705372430384159,-0.0230915155261755,-0.28916075825691223,0.4593287408351898,-1.0203825235366821,-9.85693645477295
1745729276.0539057,0.012264737859368324,-0.02258177660405636,-0.290607213973999,0.45410117506980896,-0.8715485334396362,-9.751038551330566
1745729276.0565324,0.00588882714509964,-0.01996881142258644,-0.28870946168899536,0.3490866422653198,-0.9938384294509888,-9.600382804870605
1745729276.05894,-0.0027104702312499285,-0.023557031527161598,-0.28954750299453735,0.6042554974555969,-0.9417437314987183,-9.62838363647461
1745729276.0612893,0.01651572622358799,-0.02031644620001316,-0.2868768274784088,0.3901742100715637,-0.790058434009552,-9.888893127441406
1745729276.0623991,0.0037868167273700237,-0.0195761788636446,-0.28755253553390503,0.5030227303504944,-0.8823351860046387,-9.893518447875977
1745729276.1000574,-0.00907938089221716,-0.01748339645564556,-0.2873518764972687,0.48256462812423706,-0.9650508165359497,-9.776585578918457
1745729276.1025388,-0.003763654036447406,-0.025064742192626,-0.28784313797950745,0.34876352548599243,-0.7190784215927124,-9.689407348632812
1745729276.1068172,0.008659838698804379,-0.01612393744289875,-0.28821268677711487,0.4235723614692688,-0.8637493252754211,-9.72907543182373
1745729276.1098998,0.0009866893524304032,-0.020736586302518845,-0.28823310136795044,0.4714903235435486,-0.8321071863174438,-9.731084823608398
1745729276.1431167,0.01583383046090603,-0.01983414590358734,-0.28840160369873047,0.43374791741371155,-0.802343487739563,-9.687956809997559
1745729276.1457322,0.0011535545345395803,-0.023182356730103493,-0.2883059084415436,0.559727132320404,-0.9662705659866333,-9.770496368408203
1745729276.1493075,0.011948731727898121,-0.019074834883213043,-0.2866063117980957,0.3591946065425873,-0.9334464073181152,-9.793278694152832
1745729276.1508915,-0.003157875034958124,-0.01680939644575119,-0.28748103976249695,0.5148909687995911,-0.9894982576370239,-9.682774543762207
1745729276.184756,-0.005526106804609299,-0.023342348635196686,-0.2865399420261383,0.37757647037506104,-0.8711552619934082,-9.640314102172852
1745729276.1853366,-0.0007722284644842148,-0.016906237229704857,-0.2868233323097229,0.44842466711997986,-0.9300100207328796,-9.737009048461914
1745729276.1875634,-0.0010186904110014439,-0.018130261451005936,-0.28736305236816406,0.4151005744934082,-0.7035391926765442,-9.824719429016113
1745729276.1951697,0.006848693825304508,-0.016897907480597496,-0.2902730107307434,0.39410561323165894,-0.830543041229248,-9.734607696533203
1745729276.2281876,0.008205789141356945,-0.017492270097136497,-0.28869861364364624,0.5255779027938843,-0.7094616889953613,-9.643678665161133
1745729276.2305393,0.014699866995215416,-0.019166739657521248,-0.285473108291626,0.3437260687351227,-0.9603689908981323,-9.803118705749512
1745729276.2309823,0.012011726386845112,-0.015554307028651237,-0.28681910037994385,0.4619132876396179,-0.8729149103164673,-9.645042419433594
1745729276.2321794,-0.005833770148456097,-0.02078288234770298,-0.28998804092407227,0.420170396566391,-0.7988595366477966,-9.61188793182373
1745729276.2334182,0.0022236285731196404,-0.018443483859300613,-0.2844930589199066,0.4261893630027771,-0.9320082664489746,-9.846654891967773
1745729276.2693179,-0.006703433580696583,-0.020113054662942886,-0.28666257858276367,0.45397424697875977,-0.7747679948806763,-9.863161087036133
1745729276.2724535,0.015762437134981155,-0.018361054360866547,-0.2872079014778137,0.3344385325908661,-0.7338921427726746,-9.696943283081055
1745729276.2749796,0.0015001764986664057,-0.02058761939406395,-0.28717896342277527,0.4595819115638733,-0.8203768730163574,-9.627755165100098
1745729276.277729,0.01325560174882412,-0.023830875754356384,-0.2894653379917145,0.36118584871292114,-0.696395218372345,-9.774269104003906
1745729276.317805,0.014948120340704918,-0.018162516877055168,-0.28892603516578674,0.4999091625213623,-0.9734795689582825,-9.811537742614746
1745729276.320474,0.009903499856591225,-0.021005351096391678,-0.28647512197494507,0.40190616250038147,-0.8051624298095703,-9.659957885742188
1745729276.3220527,0.01020294614136219,-0.017004001885652542,-0.28898531198501587,0.462456613779068,-0.9262415170669556,-9.653765678405762
1745729276.322485,0.004386394750326872,-0.019661303609609604,-0.2875764071941376,0.5253599882125854,-0.8815064430236816,-9.755766868591309
1745729276.3248982,0.013555189594626427,-0.017748836427927017,-0.28729963302612305,0.31974881887435913,-0.7969484329223633,-9.804628372192383
1745729276.3565755,0.00584989320486784,-0.017855744808912277,-0.2877175807952881,0.5693071484565735,-0.9427253007888794,-9.757824897766113
1745729276.3593206,0.01460215263068676,-0.020513365045189857,-0.28528350591659546,0.2930891215801239,-0.7323170304298401,-9.745450973510742
1745729276.3594267,0.014018635265529156,-0.018438691273331642,-0.2866972088813782,0.44124332070350647,-0.9745284914970398,-9.793167114257812
1745729276.363482,0.012337720021605492,-0.01990426518023014,-0.28385481238365173,0.3821339011192322,-0.835466742515564,-9.748879432678223
1745729276.4002402,0.01273704320192337,-0.01611890085041523,-0.28545957803726196,0.3773597478866577,-0.8963378071784973,-9.668815612792969
1745729276.4036977,0.016216294839978218,-0.019237946718931198,-0.2853572368621826,0.49424314498901367,-0.7572411298751831,-9.581466674804688
1745729276.4069169,0.014768357388675213,-0.018742624670267105,-0.28654059767723083,0.41743555665016174,-0.8865242004394531,-9.76279354095459
1745729276.4096816,0.005705646239221096,-0.020376810804009438,-0.2872427999973297,0.6164127588272095,-0.9441402554512024,-9.884943962097168
1745729276.4184868,0.015003932639956474,-0.01737602986395359,-0.2871667444705963,0.36063152551651,-0.9022366404533386,-9.814762115478516
1745729276.4443176,-0.0004020080086775124,-0.018707208335399628,-0.2850254774093628,0.4157521724700928,-0.9578471183776855,-9.685425758361816
1745729276.447164,0.0021104211919009686,-0.018075179308652878,-0.28407660126686096,0.48320692777633667,-0.9392397999763489,-9.766595840454102
1745729276.449347,0.004465778823941946,-0.02655009925365448,-0.28327110409736633,0.3841100037097931,-0.6345373392105103,-9.788965225219727
1745729276.4595635,0.012467199936509132,-0.016513638198375702,-0.2886727452278137,0.4417642652988434,-0.8477908372879028,-9.789291381835938
1745729276.4863126,0.001011423533782363,-0.0211428664624691,-0.28262168169021606,0.5160843133926392,-0.9149398803710938,-9.7136812210083
1745729276.4864345,0.00665654893964529,-0.022677209228277206,-0.28666961193084717,0.3951554298400879,-0.9213197827339172,-9.67988395690918
1745729276.4894166,-0.010529682971537113,-0.02213442325592041,-0.2829248905181885,0.5317097306251526,-1.0557780265808105,-9.789955139160156
1745729276.4895005,0.0028029971290379763,-0.019987814128398895,-0.27989715337753296,0.3305739760398865,-0.811011791229248,-9.77151107788086
1745729276.5320098,-0.004213216248899698,-0.015858735889196396,-0.2828696668148041,0.5248053669929504,-0.8392935991287231,-9.646855354309082
1745729276.532103,-0.004586459137499332,-0.025264959782361984,-0.28256601095199585,0.4430367350578308,-0.6960709095001221,-9.685258865356445
1745729276.5339708,0.0021924879401922226,-0.019546914845705032,-0.28389689326286316,0.46571603417396545,-0.885820209980011,-9.925162315368652
1745729276.5373542,0.004702913574874401,-0.021279137581586838,-0.284243643283844,0.4100201725959778,-0.7443601489067078,-9.89399528503418
1745729276.5398436,0.004252505488693714,-0.02032190002501011,-0.2852398753166199,0.3170478940010071,-0.9316088557243347,-9.638517379760742
1745729276.5730972,-0.0025879344902932644,-0.02111373096704483,-0.28322842717170715,0.5376718044281006,-0.8262805938720703,-9.513343811035156
1745729276.5762312,0.000650456640869379,-0.02617478370666504,-0.28334546089172363,0.45230603218078613,-0.9504154324531555,-9.875143051147461
1745729276.5777874,-0.006233240943402052,-0.022621169686317444,-0.2821595072746277,0.5405239462852478,-0.9162338376045227,-9.924491882324219
1745729276.580468,0.0034155133180320263,-0.020108651369810104,-0.2811913788318634,0.4491305947303772,-0.9062224626541138,-9.641410827636719
1745729276.6191003,-0.0003974158316850662,-0.022661609575152397,-0.28245872259140015,0.4115225374698639,-0.6853238940238953,-9.779638290405273
1745729276.6236203,0.014514441601932049,-0.016519201919436455,-0.28262877464294434,0.3732796907424927,-0.8450256586074829,-9.865325927734375
1745729276.6256776,0.004488885402679443,-0.020347457379102707,-0.2797611653804779,0.425931841135025,-0.7514026165008545,-9.720457077026367
1745729276.6281307,0.01832573302090168,-0.022245360538363457,-0.28164443373680115,0.3217783570289612,-0.7668298482894897,-9.71972370147705
1745729276.6578224,0.002831150544807315,-0.020546725019812584,-0.28235822916030884,0.467316210269928,-0.906596839427948,-9.828277587890625
1745729276.6617324,0.00675670150667429,-0.023358695209026337,-0.28292208909988403,0.3897411823272705,-0.6758859157562256,-9.793013572692871
1745729276.67163,0.009218409657478333,-0.01887270249426365,-0.2836502194404602,0.5080578327178955,-1.0244314670562744,-9.648249626159668
1745729276.6719246,0.0005336878821253777,-0.023724617436528206,-0.28198114037513733,0.4622567296028137,-0.7977455854415894,-9.674047470092773
1745729276.6719851,0.0005988139309920371,-0.021610653027892113,-0.283925861120224,0.4250437319278717,-0.9023138880729675,-9.890589714050293
1745729276.7026148,-0.0034281760454177856,-0.018522152677178383,-0.2800965905189514,0.4771926999092102,-0.812648594379425,-9.758321762084961
1745729276.7110033,0.008428724482655525,-0.019172899425029755,-0.2828664183616638,0.2689116895198822,-0.6764672994613647,-9.573144912719727
1745729276.7134292,0.006586543284356594,-0.023398838937282562,-0.2806873619556427,0.5902583599090576,-0.8518508076667786,-9.742855072021484
1745729276.7158473,0.011117544956505299,-0.02688443288207054,-0.28250983357429504,0.3566477298736572,-0.6489085555076599,-10.009160041809082
1745729276.743437,0.01702568307518959,-0.020663436502218246,-0.28136175870895386,0.38904446363449097,-0.9374899864196777,-9.886764526367188
1745729276.7446022,0.00901174359023571,-0.023003332316875458,-0.28261250257492065,0.35478004813194275,-0.7927169799804688,-9.449053764343262
1745729276.748097,0.005959996487945318,-0.02032877691090107,-0.28127357363700867,0.42224112153053284,-0.9579283595085144,-9.535319328308105
1745729276.748838,0.0026064899284392595,-0.026122484356164932,-0.28283292055130005,0.5680984258651733,-0.7836641669273376,-9.856801986694336
1745729276.7519977,0.0018429318442940712,-0.01806679554283619,-0.28464803099632263,0.3605426847934723,-0.8547601699829102,-9.958856582641602
1745729276.7875986,-0.007886694744229317,-0.019931942224502563,-0.2844906449317932,0.5334476232528687,-0.8783248662948608,-9.654828071594238
1745729276.7894015,0.002817718777805567,-0.01788642257452011,-0.28424331545829773,0.35096707940101624,-0.7258225679397583,-9.555530548095703
1745729276.7933867,0.008542553521692753,-0.014896643348038197,-0.283515602350235,0.41408616304397583,-0.9399007558822632,-9.939218521118164
1745729276.7953815,0.006439547054469585,-0.02197221666574478,-0.28397539258003235,0.3774477243423462,-0.6932410001754761,-9.635987281799316
1745729276.8291411,0.019283028319478035,-0.016602754592895508,-0.2830730378627777,0.38232773542404175,-0.782105565071106,-9.589841842651367
1745729276.830227,0.0037885471247136593,-0.022914227098226547,-0.2817406952381134,0.46739816665649414,-0.8036953806877136,-9.812917709350586
1745729276.8313713,0.02976599708199501,-0.01668514497578144,-0.2851591110229492,0.3468582034111023,-0.6805617213249207,-9.808989524841309
1745729276.8334699,0.006897273473441601,-0.01809343323111534,-0.28362637758255005,0.5137413144111633,-0.8908233642578125,-9.698526382446289
1745729276.8725507,0.0227215513586998,-0.02221941575407982,-0.284050852060318,0.31735125184059143,-0.7619232535362244,-9.662029266357422
1745729276.8728282,0.01630975306034088,-0.01486505288630724,-0.28325989842414856,0.4998919367790222,-0.8518117070198059,-9.782483100891113
1745729276.8740819,0.011620631441473961,-0.02039065957069397,-0.28407594561576843,0.42508864402770996,-0.8140771985054016,-9.796442985534668
1745729276.8751,0.01485010702162981,-0.015041281469166279,-0.28342097997665405,0.4219077229499817,-0.8914497494697571,-9.73194694519043
1745729276.8775718,0.010472150519490242,-0.019802475348114967,-0.2829344570636749,0.43962106108665466,-0.7581326961517334,-9.80552864074707
1745729276.9235759,0.017142275348305702,-0.02023489400744438,-0.28643599152565,0.3558419346809387,-0.7713478803634644,-9.759611129760742
1745729276.923745,0.009385847486555576,-0.01533144898712635,-0.2853313684463501,0.5374126434326172,-0.7367295026779175,-9.6954984664917
1745729276.92379,0.01699269562959671,-0.023874441161751747,-0.28698891401290894,0.38661879301071167,-0.8613441586494446,-9.769767761230469
1745729276.9273663,0.00728497514501214,-0.01973225735127926,-0.28521546721458435,0.5339097380638123,-0.9229701161384583,-9.777039527893066
1745729276.9629118,0.011343772523105145,-0.01711174286901951,-0.2874353528022766,0.3981858193874359,-0.9989315867424011,-9.540412902832031
1745729276.9629643,0.008168897591531277,-0.022928060963749886,-0.2853059768676758,0.4183555245399475,-0.7593063712120056,-9.660839080810547
1745729276.9630072,0.01612914726138115,-0.022146638482809067,-0.28350263833999634,0.46422356367111206,-0.8109939694404602,-9.961371421813965
1745729276.964302,0.00950188934803009,-0.020546477288007736,-0.28424763679504395,0.456428587436676,-0.7776566743850708,-9.904513359069824
1745729277.0014863,0.020961055532097816,-0.0222063846886158,-0.2854563593864441,0.3289898931980133,-0.7326496839523315,-9.638650894165039
1745729277.004716,0.010003885254263878,-0.024027951061725616,-0.2861900329589844,0.42399463057518005,-0.8996438980102539,-9.664542198181152
1745729277.0069697,0.010107120499014854,-0.02637292444705963,-0.2862272262573242,0.39487969875335693,-0.6918927431106567,-9.82829475402832
1745729277.0132291,0.016252178698778152,-0.01835668832063675,-0.28683584928512573,0.4392337203025818,-0.9733932614326477,-9.810887336730957
1745729277.0181992,0.006073882803320885,-0.025275666266679764,-0.28572118282318115,0.40784183144569397,-0.7395296096801758,-9.620329856872559
1745729277.0500672,0.010079084895551205,-0.021422522142529488,-0.28486210107803345,0.4484556317329407,-0.8583853840827942,-9.690260887145996
1745729277.0512989,0.0057291327975690365,-0.022480344399809837,-0.2843627333641052,0.5266935229301453,-0.8138008117675781,-9.81443977355957
1745729277.0559957,0.01406182162463665,-0.02152382954955101,-0.2846493124961853,0.3193797469139099,-0.6755026578903198,-9.822726249694824
1745729277.0565543,0.016099974513053894,-0.022159263491630554,-0.28323352336883545,0.5216377973556519,-0.8571547269821167,-9.742236137390137
1745729277.089017,0.01612376980483532,-0.022820575162768364,-0.2839738726615906,0.2859732508659363,-0.6520506143569946,-9.690893173217773
1745729277.0908005,0.02280021645128727,-0.022530002519488335,-0.2816382050514221,0.4152260422706604,-0.9158645868301392,-9.795555114746094
1745729277.094154,0.009067347273230553,-0.025821471586823463,-0.2847402095794678,0.38236626982688904,-0.738181471824646,-9.796823501586914
1745729277.0961323,0.020510049536824226,-0.019364088773727417,-0.28195300698280334,0.34457698464393616,-0.8709132075309753,-9.66965103149414
1745729277.0982912,0.010013509541749954,-0.022435057908296585,-0.2845872938632965,0.5086795091629028,-0.7544474005699158,-9.547982215881348
1745729277.1308093,0.011754659004509449,-0.022478414699435234,-0.28602170944213867,0.35026973485946655,-0.7930585741996765,-9.80066204071045
1745729277.1339672,0.00324273481965065,-0.021820973604917526,-0.2868070602416992,0.6101698875427246,-0.9442688822746277,-9.901571273803711
1745729277.1396303,0.01026591844856739,-0.01722775772213936,-0.28392356634140015,0.3452954888343811,-0.7858023047447205,-9.75990104675293
1745729277.1427486,0.012102032080292702,-0.020375099033117294,-0.2809727191925049,0.40564218163490295,-0.6909178495407104,-9.66566276550293
1745729277.174797,0.004546560347080231,-0.016886556521058083,-0.2820444107055664,0.395341694355011,-0.8648201823234558,-9.79754638671875
1745729277.176851,0.005774046294391155,-0.02517368458211422,-0.2826387584209442,0.42513251304626465,-0.6170018911361694,-9.811846733093262
1745729277.1782792,0.018403951078653336,-0.01781509444117546,-0.2863316237926483,0.36788123846054077,-0.7154104709625244,-9.794158935546875
1745729277.1790285,0.008530798368155956,-0.02167278528213501,-0.2855847179889679,0.4413584768772125,-0.8924595713615417,-9.684636116027832
1745729277.2197666,0.02079070173203945,-0.021358883008360863,-0.2850196659564972,0.3111158013343811,-0.7247798442840576,-9.64557933807373
1745729277.2231064,0.0020733154378831387,-0.019355352967977524,-0.28056642413139343,0.49223822355270386,-0.9952493906021118,-9.816656112670898
1745729277.2269332,0.0159173384308815,-0.018917720764875412,-0.28246167302131653,0.3499903082847595,-0.7024396061897278,-9.799299240112305
1745729277.231031,0.0060347639955580235,-0.01612042263150215,-0.28316760063171387,0.4347109794616699,-0.8649736642837524,-9.702435493469238
1745729277.2353668,0.0002789226418826729,-0.022456975653767586,-0.2820398509502411,0.4755708575248718,-0.7843605875968933,-9.733732223510742
1745729277.2629573,0.012675082311034203,-0.01736319623887539,-0.2825947403907776,0.3614616394042969,-0.7591855525970459,-9.807516098022461
1745729277.2634287,0.003913496620953083,-0.019707579165697098,-0.28459376096725464,0.427924245595932,-0.756958544254303,-9.808891296386719
1745729277.26387,0.011615024879574776,-0.019973788410425186,-0.28420737385749817,0.3069875240325928,-0.8256861567497253,-9.619196891784668
1745729277.2658536,0.0037094191648066044,-0.017906567081809044,-0.28426751494407654,0.5077246427536011,-0.7530709505081177,-9.651493072509766
1745729277.3056855,0.012331036850810051,-0.02363046444952488,-0.2837899327278137,0.37957078218460083,-0.7780095338821411,-9.851755142211914
1745729277.3073378,0.02267381176352501,-0.019454438239336014,-0.2883303761482239,0.4045409560203552,-0.7939022183418274,-9.846867561340332
1745729277.30912,0.012434551492333412,-0.01858494244515896,-0.28720200061798096,0.4234899580478668,-0.7910362482070923,-9.799941062927246
1745729277.3105478,0.024227511137723923,-0.01874012127518654,-0.28691861033439636,0.2898396849632263,-0.6670000553131104,-9.651041984558105
1745729277.3461814,0.010469765402376652,-0.015467135235667229,-0.2879905700683594,0.4186042249202728,-0.9091254472732544,-9.686456680297852
1745729277.3483841,0.014911621809005737,-0.022011738270521164,-0.2897266745567322,0.3929494321346283,-0.6391419172286987,-9.72772216796875
1745729277.3504899,0.023524146527051926,-0.01008527260273695,-0.291463702917099,0.4137381613254547,-0.8534930348396301,-9.755624771118164
1745729277.351576,0.00791871827095747,-0.02029789425432682,-0.2900331914424896,0.4369935095310211,-0.7580722570419312,-9.702240943908691
1745729277.3900628,0.019575679674744606,-0.012114149518311024,-0.2895483374595642,0.40216127038002014,-0.8753523826599121,-9.733599662780762
1745729277.3916607,0.007430764846503735,-0.01617901399731636,-0.28879639506340027,0.468350887298584,-0.8548991084098816,-9.810079574584961
1745729277.393366,0.015159199014306068,-0.016251131892204285,-0.28665995597839355,0.31603723764419556,-0.7409913539886475,-9.816411018371582
1745729277.3951335,0.01521972008049488,-0.013995672576129436,-0.2883065342903137,0.4668196737766266,-0.8650519251823425,-9.709135055541992
1745729277.3952737,0.009762120433151722,-0.01863003708422184,-0.288593590259552,0.3649604916572571,-0.726972222328186,-9.714921951293945
1745729277.4338653,0.016929082572460175,-0.016129840165376663,-0.28894805908203125,0.43532976508140564,-0.8071045875549316,-9.7647066116333
1745729277.4353142,-0.0007915539899840951,-0.02031908556818962,-0.29052600264549255,0.4695601463317871,-0.8290278315544128,-9.835761070251465
1745729277.4360003,0.007196326740086079,-0.015157428570091724,-0.28972917795181274,0.3744928240776062,-0.9680343866348267,-9.737622261047363
1745729277.4386225,-0.0033655413426458836,-0.01741604693233967,-0.28872889280319214,0.4924604892730713,-0.7842520475387573,-9.6151704788208
1745729277.4757814,-0.008625483140349388,-0.02066267468035221,-0.28759774565696716,0.36055630445480347,-0.8545225262641907,-9.761838912963867
1745729277.480816,-0.006129333283752203,-0.01675972156226635,-0.28856053948402405,0.5338866114616394,-0.8586332201957703,-9.874588966369629
1745729277.4859629,0.0031215001363307238,-0.019034475088119507,-0.28961366415023804,0.3328727185726166,-0.589137077331543,-9.80937385559082
1745729277.4860504,0.0017203157767653465,-0.01614733412861824,-0.28904685378074646,0.4048852324485779,-0.7934952974319458,-9.683710098266602
1745729277.4860995,0.012716220691800117,-0.019187983125448227,-0.28965282440185547,0.37675076723098755,-0.5005719065666199,-9.645454406738281
1745729277.5202372,0.01293555460870266,-0.017495064064860344,-0.2881709337234497,0.372437059879303,-0.9449893832206726,-9.85998249053955
1745729277.5238984,0.005586470011621714,-0.015032157301902771,-0.29219532012939453,0.346516489982605,-0.903643786907196,-9.802375793457031
1745729277.5278459,0.005066675134003162,-0.0185102429240942,-0.2909582257270813,0.4266771674156189,-0.6873763799667358,-9.657386779785156
1745729277.528091,0.01277497410774231,-0.01232652086764574,-0.29041051864624023,0.357513964176178,-0.7038319706916809,-9.694218635559082
1745729277.5619116,0.003523441730067134,-0.02105889841914177,-0.289204865694046,0.5417439937591553,-0.8362442255020142,-9.794690132141113
1745729277.5624268,0.01271236501634121,-0.01551252044737339,-0.2880987524986267,0.3332732319831848,-0.6517925262451172,-9.828641891479492
1745729277.5649629,0.005424878094345331,-0.017111947759985924,-0.28934213519096375,0.49894827604293823,-0.9682053327560425,-9.787009239196777
1745729277.5672405,0.00932225864380598,-0.01955695077776909,-0.28730908036231995,0.369818776845932,-0.6635740399360657,-9.665265083312988
1745729277.567347,0.0010104553075507283,-0.019260969012975693,-0.28886646032333374,0.4597857594490051,-0.8894278407096863,-9.812231063842773
1745729277.606771,-0.0005851220339536667,-0.02242736890912056,-0.287863165140152,0.43675318360328674,-0.795763373374939,-9.88046932220459
1745729277.60774,0.012300847098231316,-0.013888001441955566,-0.289297878742218,0.3289429545402527,-0.6961544752120972,-9.66981315612793
1745729277.620713,-0.0026326030492782593,-0.023249175399541855,-0.2904807925224304,0.476858526468277,-0.6973890066146851,-9.549410820007324
1745729277.6482434,0.011656787246465683,-0.02175075374543667,-0.2910657525062561,0.3793230950832367,-0.7356187105178833,-9.747179985046387
1745729277.64981,0.006546337157487869,-0.01674025133252144,-0.2918722331523895,0.4366625249385834,-0.7328596115112305,-9.908546447753906
1745729277.6538754,0.017763298004865646,-0.01814768649637699,-0.29015904664993286,0.3775120973587036,-0.7372743487358093,-9.73951244354248
1745729277.656246,0.028010044246912003,-0.016718894243240356,-0.29122045636177063,0.3637164533138275,-0.6540873646736145,-9.64682674407959
1745729277.6574016,0.015244553796947002,-0.01945911906659603,-0.2918858826160431,0.5334852933883667,-0.9490348696708679,-9.912436485290527
1745729277.6913936,0.029311528429389,-0.0200504120439291,-0.2921433746814728,0.40038833022117615,-0.6290810704231262,-9.835168838500977
1745729277.693252,0.015488279052078724,-0.01736641116440296,-0.29116570949554443,0.39195430278778076,-0.9905268549919128,-9.713319778442383
1745729277.6953769,0.02026357129216194,-0.021753031760454178,-0.2902853786945343,0.3772489130496979,-0.7736015319824219,-9.551118850708008
1745729277.6998303,0.02322942204773426,-0.01691444404423237,-0.28861865401268005,0.40112918615341187,-0.745127260684967,-9.764613151550293
1745729277.7382598,0.011302332393825054,-0.02173406071960926,-0.2920399606227875,0.4838603138923645,-0.7464466094970703,-9.917078018188477
1745729277.7383118,0.03460937738418579,-0.015344779007136822,-0.2927989363670349,0.33173829317092896,-0.6485005021095276,-9.749992370605469
1745729277.7403002,0.021405862644314766,-0.018620286136865616,-0.29377394914627075,0.4632253050804138,-0.8521450757980347,-9.65526294708252
1745729277.7442694,0.028592661023139954,-0.023680709302425385,-0.2930752635002136,0.36432164907455444,-0.7312763333320618,-9.741942405700684
1745729277.7467484,0.023884672671556473,-0.014609565027058125,-0.2926587462425232,0.47966718673706055,-0.8860259056091309,-9.901262283325195
1745729277.7794473,0.02381940744817257,-0.020751986652612686,-0.2933828830718994,0.41171517968177795,-0.8524147272109985,-9.7278413772583
1745729277.7835822,0.020500488579273224,-0.015540716238319874,-0.2893367409706116,0.3770190179347992,-0.8938785791397095,-9.558273315429688
1745729277.7837048,0.009724540635943413,-0.024067576974630356,-0.29146629571914673,0.4892507493495941,-0.8469520807266235,-9.757537841796875
1745729277.7877064,0.026135480031371117,-0.017331808805465698,-0.29058006405830383,0.3166065216064453,-0.7828338742256165,-9.936887741088867
1745729277.8210807,0.011159958317875862,-0.015959668904542923,-0.2914873957633972,0.42454949021339417,-0.7138246297836304,-9.74759578704834
1745729277.8227773,0.023083578795194626,-0.020370321348309517,-0.29309192299842834,0.35782504081726074,-0.7062848806381226,-9.662580490112305
1745729277.8276637,0.022737927734851837,-0.016539184376597404,-0.2939106822013855,0.4375881552696228,-0.750332236289978,-9.713407516479492
1745729277.830155,0.025269467383623123,-0.02363463304936886,-0.29432356357574463,0.4041941165924072,-0.7239877581596375,-9.850672721862793
1745729277.833311,0.027663331478834152,-0.013333762064576149,-0.293535053730011,0.4468953609466553,-0.9398807287216187,-9.790462493896484
1745729277.8660731,0.021080661565065384,-0.016760187223553658,-0.29435262084007263,0.45990854501724243,-0.6654670834541321,-9.559797286987305
1745729277.8705125,0.021952267736196518,-0.018559563905000687,-0.29710596799850464,0.3912540078163147,-0.8598437309265137,-9.58801555633545
1745729277.870922,0.010131455957889557,-0.02224004827439785,-0.2935261130332947,0.5149449706077576,-0.8478097915649414,-9.517577171325684
1745729277.9086306,0.027219751849770546,-0.015967806801199913,-0.2951313853263855,0.3396369516849518,-0.683633029460907,-9.890803337097168
1745729277.9089105,0.01703159138560295,-0.02231523208320141,-0.2932939827442169,0.564815104007721,-0.9087254405021667,-9.93025016784668
1745729277.9089885,0.02265569008886814,-0.016443496569991112,-0.2937951683998108,0.28325706720352173,-0.6545820236206055,-9.686503410339355
1745729277.910712,0.02203185111284256,-0.01934671401977539,-0.29479312896728516,0.4683559834957123,-0.8956806063652039,-9.66048812866211
1745729277.9121013,0.025096753612160683,-0.021329667419195175,-0.29394328594207764,0.35542333126068115,-0.6140639781951904,-9.822324752807617
1745729277.9498153,0.02552872896194458,-0.01728176698088646,-0.2959945797920227,0.4311269223690033,-0.7527472376823425,-9.855636596679688
1745729277.9512503,0.03108653984963894,-0.02039165236055851,-0.29500359296798706,0.48732319474220276,-0.7859084010124207,-9.642997741699219
1745729277.9530482,0.036293305456638336,-0.018208937719464302,-0.2957212030887604,0.32819753885269165,-0.718591570854187,-9.680421829223633
1745729277.9581583,0.026422714814543724,-0.02044783905148506,-0.29478541016578674,0.5322099924087524,-0.8130024671554565,-9.746084213256836
1745729277.9933267,0.0373682975769043,-0.01757015660405159,-0.2960069179534912,0.38783860206604004,-0.8560720682144165,-9.777139663696289
1745729277.9953578,0.025821229442954063,-0.015903126448392868,-0.2943064272403717,0.4121505618095398,-0.8896963000297546,-9.745889663696289
1745729277.9966216,0.03710872679948807,-0.021170396357774734,-0.292971134185791,0.427598237991333,-0.7608669996261597,-9.703478813171387
1745729277.9979818,0.023553399369120598,-0.01840733364224434,-0.2940599322319031,0.39024224877357483,-0.9280363917350769,-9.77427864074707
1745729277.999083,0.029620999470353127,-0.02334466762840748,-0.2913956046104431,0.452141672372818,-0.7826936841011047,-9.758105278015137
1745729278.0360715,0.04784940183162689,-0.020304273813962936,-0.2936616539955139,0.36909961700439453,-0.7242017984390259,-9.868682861328125
1745729278.0377436,0.03695032000541687,-0.017607757821679115,-0.2906773090362549,0.44607338309288025,-1.038516879081726,-9.80737018585205
1745729278.0443702,0.040963903069496155,-0.024309268221259117,-0.29197612404823303,0.39311468601226807,-0.7311332821846008,-9.56936264038086
1745729278.044453,0.028186168521642685,-0.02035428211092949,-0.28957605361938477,0.4209042489528656,-1.0504108667373657,-9.737414360046387
1745729278.0776062,0.028106659650802612,-0.02069411426782608,-0.2901392877101898,0.42584261298179626,-0.7847962379455566,-9.793299674987793
1745729278.0799546,0.03856011480093002,-0.015755973756313324,-0.29183274507522583,0.38146013021469116,-0.7900086641311646,-9.706701278686523
1745729278.083402,0.016838645562529564,-0.02444024384021759,-0.2929617762565613,0.51449054479599,-0.8735572695732117,-9.649251937866211
1745729278.0835478,0.03993508964776993,-0.022998619824647903,-0.2911893427371979,0.35332995653152466,-0.7585414052009583,-9.829320907592773
1745729278.0864463,0.02974887564778328,-0.01635541208088398,-0.29266199469566345,0.4020255506038666,-0.9195705652236938,-9.927138328552246
1745729278.1218545,0.033275704830884933,-0.02311418019235134,-0.2907734513282776,0.32290273904800415,-0.7432222366333008,-9.646242141723633
1745729278.1253512,0.038980793207883835,-0.01578328013420105,-0.29014429450035095,0.45947879552841187,-0.8578858375549316,-9.570932388305664
1745729278.1275518,0.03092549368739128,-0.028214987367391586,-0.28983381390571594,0.4707632064819336,-0.8801337480545044,-9.82933235168457
1745729278.129951,0.040538642555475235,-0.017716778442263603,-0.28909337520599365,0.3972437381744385,-0.8519962430000305,-9.879877090454102
1745729278.1640623,0.020154256373643875,-0.024030068889260292,-0.2904450297355652,0.5129711031913757,-0.9704571962356567,-9.721479415893555
1745729278.1656177,0.03482562676072121,-0.022005712613463402,-0.2895125150680542,0.30605801939964294,-0.9160507917404175,-9.627849578857422
1745729278.166013,0.015337258577346802,-0.02188408374786377,-0.28847014904022217,0.46548518538475037,-0.8530548214912415,-9.742464065551758
1745729278.1670828,0.02214074693620205,-0.021983426064252853,-0.2907366156578064,0.39864444732666016,-0.8028076887130737,-9.89375114440918
1745729278.2098498,0.022977957502007484,-0.020168958231806755,-0.2905608117580414,0.4355679452419281,-0.8609737157821655,-9.732884407043457
1745729278.2104461,0.02164386957883835,-0.027187203988432884,-0.29091155529022217,0.43096333742141724,-0.7905424237251282,-9.662537574768066
1745729278.212556,0.022996919229626656,-0.023191798478364944,-0.2914581596851349,0.4088791012763977,-0.9719575047492981,-9.856447219848633
1745729278.2140412,0.015267600305378437,-0.023025911301374435,-0.29187947511672974,0.33267247676849365,-0.9208076596260071,-9.817127227783203
1745729278.251079,0.007638366427272558,-0.02329513430595398,-0.2910054326057434,0.44446197152137756,-0.8890097737312317,-9.539875984191895
1745729278.2527707,0.022743085399270058,-0.019861767068505287,-0.2892957329750061,0.3059493899345398,-0.6716282963752747,-9.570131301879883
1745729278.2552083,0.012581804767251015,-0.02398126944899559,-0.28857940435409546,0.5313596725463867,-0.8877884745597839,-9.851604461669922
1745729278.2575111,0.022193461656570435,-0.023974401876330376,-0.28972238302230835,0.3337665796279907,-0.6839075088500977,-9.943746566772461
1745729278.2653239,0.02271738275885582,-0.021648645401000977,-0.29238367080688477,0.42952847480773926,-0.9782549142837524,-9.781194686889648
1745729278.2947178,0.01552441157400608,-0.024408219382166862,-0.29065263271331787,0.3535534739494324,-0.7248433232307434,-9.58423137664795
1745729278.2963,0.016825804486870766,-0.023594751954078674,-0.29092293977737427,0.39194411039352417,-0.9307553172111511,-9.697471618652344
1745729278.3000903,0.010551934130489826,-0.02446362003684044,-0.2914781868457794,0.5347821712493896,-0.9707934260368347,-9.825321197509766
1745729278.3016138,0.023512518033385277,-0.02105531468987465,-0.2877641022205353,0.35729944705963135,-0.7972380518913269,-9.843085289001465
1745729278.3350608,0.008739490993320942,-0.023203019052743912,-0.28772351145744324,0.5096838474273682,-0.8566699028015137,-9.613024711608887
1745729278.337092,0.02297157049179077,-0.024183528497815132,-0.2875303626060486,0.3283153176307678,-0.7389799356460571,-9.661900520324707
1745729278.3381226,0.01657990552484989,-0.020289864391088486,-0.29137152433395386,0.3635191321372986,-0.8432353734970093,-9.842584609985352
1745729278.3403277,0.027717193588614464,-0.024103224277496338,-0.28785258531570435,0.4078887104988098,-0.7608600854873657,-9.752391815185547
1745729278.3440247,0.022486817091703415,-0.018196681514382362,-0.2888529300689697,0.3288329243659973,-0.9075912237167358,-9.65937614440918
1745729278.38125,0.01017056405544281,-0.020082220435142517,-0.2849152088165283,0.45059457421302795,-0.9405596852302551,-9.632993698120117
1745729278.3818521,0.023367460817098618,-0.018662776798009872,-0.2844615876674652,0.413242906332016,-0.6887477040290833,-9.635830879211426
1745729278.384205,0.015644673258066177,-0.020102499052882195,-0.2834011912345886,0.49159640073776245,-1.0415852069854736,-9.892763137817383
1745729278.3860285,0.019510459154844284,-0.021793711930513382,-0.28407391905784607,0.3932308554649353,-0.7116662263870239,-9.75586223602295
1745729278.4231033,0.014906855300068855,-0.014569036662578583,-0.2825666069984436,0.27549272775650024,-0.9599106907844543,-9.712671279907227
1745729278.4273992,0.017678892239928246,-0.019303197041153908,-0.2838270962238312,0.3645133674144745,-0.7748165130615234,-9.575048446655273
1745729278.4325752,0.022826218977570534,-0.015496964566409588,-0.2849418520927429,0.3471079468727112,-0.7625101804733276,-9.771836280822754
1745729278.4330533,0.005825695116072893,-0.01800895668566227,-0.2842947840690613,0.5363297462463379,-0.9320987462997437,-9.988279342651367
1745729278.4341347,0.028439071029424667,-0.016471119597554207,-0.2861068844795227,0.3167014718055725,-0.7243813276290894,-9.777674674987793
1745729278.4690368,0.008726001717150211,-0.017499078065156937,-0.2865682542324066,0.4169639050960541,-1.0248360633850098,-9.6150541305542
1745729278.4742563,0.015277368016541004,-0.020739009603857994,-0.2814672291278839,0.41291728615760803,-0.8820298314094543,-9.646150588989258
1745729278.4743962,0.014662866480648518,-0.013980528339743614,-0.2838391363620758,0.45739465951919556,-0.8763188123703003,-9.891359329223633
1745729278.4744573,0.00902213342487812,-0.01619991846382618,-0.28136152029037476,0.43391457200050354,-0.8632621765136719,-9.815720558166504
1745729278.5117826,0.01549674291163683,-0.014574503526091576,-0.2826154828071594,0.2901250422000885,-0.856420636177063,-9.61548137664795
1745729278.512339,0.00293764378875494,-0.018286634236574173,-0.28343790769577026,0.44575947523117065,-0.9475480914115906,-9.691841125488281
1745729278.5205903,0.015219142660498619,-0.016572972759604454,-0.2825743556022644,0.304374635219574,-0.7880188226699829,-9.922490119934082
1745729278.5223992,-0.0046479180455207825,-0.015418754890561104,-0.2826560139656067,0.46827787160873413,-0.9248117208480835,-9.88836669921875
1745729278.5501685,0.0078153470531106,-0.017743181437253952,-0.2835947871208191,0.3538550138473511,-0.8681279420852661,-9.63825511932373
1745729278.5555048,0.006081277038902044,-0.014776868745684624,-0.28111788630485535,0.41952791810035706,-0.9102771878242493,-9.622703552246094
1745729278.555615,0.0008617589483037591,-0.02055070735514164,-0.2816736698150635,0.48111310601234436,-0.7698193788528442,-9.809951782226562
1745729278.559552,0.008318968117237091,-0.012292817234992981,-0.2797011137008667,0.41390663385391235,-0.9556227922439575,-9.818868637084961
1745729278.5952678,0.009160155430436134,-0.014700713567435741,-0.28055042028427124,0.42152276635169983,-0.8353937268257141,-9.8663969039917
1745729278.5969505,0.002641898114234209,-0.012641554698348045,-0.2805399000644684,0.48321861028671265,-0.8756454586982727,-9.604202270507812
1745729278.5977488,0.01338986773043871,-0.015034319832921028,-0.2808147966861725,0.23456859588623047,-0.7556806206703186,-9.657732963562012
1745729278.5995913,0.00870491098612547,-0.015948185697197914,-0.2793617844581604,0.5344980955123901,-0.9380447268486023,-9.884908676147461
1745729278.6005373,0.008780512027442455,-0.016777385026216507,-0.2776917815208435,0.3456849455833435,-0.744936466217041,-9.898530006408691
1745729278.6403968,0.016621114686131477,-0.015933234244585037,-0.2787405848503113,0.41854220628738403,-0.9253133535385132,-9.705465316772461
1745729278.6404405,0.002986445091664791,-0.022693270817399025,-0.2788408398628235,0.44330310821533203,-0.7793123722076416,-9.617682456970215
1745729278.6420803,0.009053918533027172,-0.01664070598781109,-0.278127521276474,0.38781315088272095,-0.9526090621948242,-9.815191268920898
1745729278.6421201,0.0053877742029726505,-0.016771402209997177,-0.27977126836776733,0.49225568771362305,-0.8116248846054077,-9.775213241577148
1745729278.681078,0.0044935280457139015,-0.018549617379903793,-0.2780597507953644,0.32198435068130493,-0.9050377011299133,-9.743494033813477
1745729278.6828794,-0.003791059134528041,-0.01656598225235939,-0.2784939110279083,0.5303682684898376,-0.9213741421699524,-9.65215015411377
1745729278.6833522,0.0035387552343308926,-0.01788458228111267,-0.27730125188827515,0.36459988355636597,-0.777967095375061,-9.794899940490723
1745729278.6854475,-0.00037111638812348247,-0.01785784214735031,-0.27689066529273987,0.42743077874183655,-0.870441734790802,-9.886584281921387
1745729278.6858327,0.006936676800251007,-0.020617706701159477,-0.27824997901916504,0.44866666197776794,-0.6947644948959351,-9.75496768951416
1745729278.7259095,0.00556369312107563,-0.01868012733757496,-0.27773621678352356,0.43031373620033264,-0.9709064364433289,-9.756593704223633
1745729278.7280023,0.008335896767675877,-0.023456718772649765,-0.2819494307041168,0.31944599747657776,-0.8001804351806641,-9.715697288513184
1745729278.729193,-0.0033296130131930113,-0.021499380469322205,-0.2802411913871765,0.46228352189064026,-1.0872689485549927,-9.599501609802246
1745729278.7329571,0.006633387412875891,-0.01995047554373741,-0.27918094396591187,0.3354664444923401,-0.7089601159095764,-9.666916847229004
1745729278.7661612,-0.002602757653221488,-0.020973676815629005,-0.27557164430618286,0.45552587509155273,-1.0288054943084717,-9.815165519714355
1745729278.7691495,-0.0005930345505475998,-0.023773193359375,-0.27819398045539856,0.3703102171421051,-0.6321066617965698,-9.74189281463623
1745729278.7800486,0.00499515887349844,-0.018207577988505363,-0.2777613401412964,0.345020592212677,-0.863121509552002,-9.769330024719238
1745729278.7801356,0.003182877553626895,-0.022524315863847733,-0.27760207653045654,0.43301358819007874,-0.6965427398681641,-9.73493766784668
1745729278.8126767,0.011417103931307793,-0.021435266360640526,-0.2801523208618164,0.30995476245880127,-0.6986770629882812,-9.80331039428711
1745729278.8162737,0.003496699035167694,-0.020168298855423927,-0.28066492080688477,0.5058094263076782,-0.9456496238708496,-9.76597785949707
1745729278.8188713,0.017136350274086,-0.019024891778826714,-0.2778499722480774,0.3286658227443695,-0.651140570640564,-9.645305633544922
1745729278.8217173,0.0062689995393157005,-0.02143133617937565,-0.278611421585083,0.48412126302719116,-0.8974896669387817,-9.683856964111328
1745729278.8244202,0.01241261325776577,-0.021392961964011192,-0.27876919507980347,0.43696823716163635,-0.7480067014694214,-9.74952220916748
1745729278.852588,0.015026177279651165,-0.015924718230962753,-0.2781877815723419,0.3444959223270416,-0.8288751840591431,-9.814393997192383
1745729278.85583,0.011873217299580574,-0.02260419726371765,-0.27813249826431274,0.46052688360214233,-0.7633979916572571,-9.713398933410645
1745729278.8561387,0.012382889166474342,-0.019140809774398804,-0.27958208322525024,0.3057512640953064,-0.8089942932128906,-9.750386238098145
1745729278.857187,0.011684030294418335,-0.02360040880739689,-0.27855056524276733,0.46254342794418335,-0.9036601781845093,-9.810125350952148
1745729278.8955593,0.010813528671860695,-0.021622492000460625,-0.2781292796134949,0.30651694536209106,-0.7632008194923401,-9.789920806884766
1745729278.8984537,0.0008193646790459752,-0.019341444596648216,-0.2771376073360443,0.44173917174339294,-0.9156230688095093,-9.726128578186035
1745729278.8985538,0.012713330797851086,-0.02232147753238678,-0.27887362241744995,0.375461220741272,-0.7833036184310913,-9.623270034790039
1745729278.8994458,0.007792288903146982,-0.018072593957185745,-0.27693337202072144,0.3725028932094574,-0.8988683819770813,-9.770275115966797
1745729278.9413087,0.0038381717167794704,-0.02155323699116707,-0.27742820978164673,0.4600716531276703,-0.6844607591629028,-9.79462718963623
1745729278.9414003,0.012660612352192402,-0.021155644208192825,-0.27945294976234436,0.3555015027523041,-0.760330080986023,-9.827845573425293
1745729278.9427803,0.008353216573596,-0.017264503985643387,-0.27660495042800903,0.46329259872436523,-0.7763994336128235,-9.796499252319336
1745729278.9438167,0.01951020397245884,-0.020756125450134277,-0.28008729219436646,0.28013697266578674,-0.6971496343612671,-9.727502822875977
1745729278.9448855,0.012045682407915592,-0.01867743581533432,-0.2743191421031952,0.5242834091186523,-0.948260486125946,-9.726335525512695
1745729278.9813333,0.008871704339981079,-0.023231251165270805,-0.27570509910583496,0.426190048456192,-0.8216894268989563,-9.849950790405273
1745729278.9833136,0.018198641017079353,-0.0194277074187994,-0.27270668745040894,0.4434235692024231,-0.9444214105606079,-9.835309028625488
1745729278.9834154,-0.004029134754091501,-0.023125076666474342,-0.2752512991428375,0.4340795576572418,-0.8198993802070618,-9.649714469909668
1745729278.9855034,0.007659344468265772,-0.019602421671152115,-0.27578696608543396,0.35769137740135193,-0.8751025199890137,-9.625200271606445
1745729279.0257833,0.00297723850235343,-0.022044457495212555,-0.27528414130210876,0.4822210371494293,-0.6882463693618774,-9.708955764770508
1745729279.0286002,0.005002113990485668,-0.02136813849210739,-0.2767658233642578,0.30100780725479126,-0.7515456080436707,-9.871538162231445
1745729279.0289948,0.003659304231405258,-0.016865942627191544,-0.27713102102279663,0.5218598246574402,-0.8295041918754578,-9.721919059753418
1745729279.031314,0.013133764266967773,-0.020019592717289925,-0.2786903977394104,0.33117714524269104,-0.695906937122345,-9.685324668884277
1745729279.0354764,0.007188856601715088,-0.021184347569942474,-0.27581340074539185,0.42997485399246216,-0.9450882077217102,-9.876626968383789
1745729279.0671556,0.017125502228736877,-0.019065262749791145,-0.2743423581123352,0.44462355971336365,-0.6760136485099792,-9.82730770111084
1745729279.0674443,0.012824217788875103,-0.01861485466361046,-0.2736787497997284,0.3958171606063843,-0.979709804058075,-9.771614074707031
1745729279.0709457,0.009878563694655895,-0.021386470645666122,-0.277765154838562,0.38649782538414,-0.7141653299331665,-9.703367233276367
1745729279.0722978,0.002780685666948557,-0.022259682416915894,-0.27884775400161743,0.4506686329841614,-0.9471099972724915,-9.767038345336914
1745729279.1123505,0.009554363787174225,-0.02012290619313717,-0.27959710359573364,0.2649856209754944,-0.6088042855262756,-9.74599838256836
1745729279.1132128,0.011700776405632496,-0.020417403429746628,-0.2767574191093445,0.45517072081565857,-0.892146110534668,-9.727925300598145
1745729279.116143,0.006620209664106369,-0.02251586876809597,-0.2767392098903656,0.4426717758178711,-0.6781088709831238,-9.702679634094238
1745729279.1195652,0.018846964463591576,-0.019401878118515015,-0.2771359384059906,0.4132261872291565,-0.9122980833053589,-9.939345359802246
1745729279.1534002,0.0043917372822761536,-0.024976488202810287,-0.2788185775279999,0.4457176625728607,-0.8279131650924683,-9.842950820922852
1745729279.16017,0.01121340598911047,-0.019521577283740044,-0.27548637986183167,0.288888543844223,-0.7616716027259827,-9.637913703918457
1745729279.1602674,0.005978188011795282,-0.02048501744866371,-0.27732187509536743,0.48722878098487854,-0.9183002710342407,-9.559135437011719
1745729279.1608179,0.011249923147261143,-0.023810874670743942,-0.2774946093559265,0.3080264925956726,-0.6098806262016296,-9.772043228149414
1745729279.166072,0.004550469573587179,-0.01874679885804653,-0.2805989384651184,0.5094081163406372,-0.8336847424507141,-9.898920059204102
1745729279.198797,0.012855477631092072,-0.02030090242624283,-0.2794906795024872,0.42400914430618286,-0.6494276523590088,-9.649917602539062
1745729279.1988573,0.014218540862202644,-0.02056562900543213,-0.2792985141277313,0.3164532780647278,-0.8326614499092102,-9.676074981689453
1745729279.200465,0.011592172086238861,-0.022948436439037323,-0.28060245513916016,0.536625325679779,-0.8769549131393433,-9.855676651000977
1745729279.201392,0.014910325407981873,-0.018653251230716705,-0.276610791683197,0.2976663112640381,-0.8194199800491333,-9.900927543640137
1745729279.241311,0.011525025591254234,-0.020073072984814644,-0.2755356431007385,0.47330769896507263,-0.9182858467102051,-9.6582612991333
1745729279.2436264,0.010358951985836029,-0.022627409547567368,-0.27463898062705994,0.28521692752838135,-0.6917093396186829,-9.591649055480957
1745729279.2467823,0.0053607444278895855,-0.020340383052825928,-0.2764420807361603,0.4484413266181946,-0.822559654712677,-9.769506454467773
1745729279.2500648,0.018518030643463135,-0.019533012062311172,-0.279011994600296,0.3966940641403198,-0.5993064641952515,-9.803177833557129
1745729279.252834,0.009722416289150715,-0.014868778176605701,-0.2797345519065857,0.37987610697746277,-0.8732932209968567,-9.734701156616211
1745729279.283304,0.011308366432785988,-0.023892143741250038,-0.27967000007629395,0.48336976766586304,-0.7314079999923706,-9.647637367248535
1745729279.2875597,0.020761005580425262,-0.015049646608531475,-0.27688246965408325,0.3894571363925934,-0.7801006436347961,-9.89128303527832
1745729279.2904553,0.016855422407388687,-0.015150845050811768,-0.2777687907218933,0.48701485991477966,-0.7876467704772949,-9.76606273651123
1745729279.2919126,0.021429775282740593,-0.021604588255286217,-0.277254581451416,0.3385738730430603,-0.6250573396682739,-9.665837287902832
1745729279.3289955,0.02522747777402401,-0.015996761620044708,-0.2780565917491913,0.4993800222873688,-0.8651286959648132,-9.791810989379883
1745729279.3339472,0.02324640192091465,-0.021561820060014725,-0.27734217047691345,0.37846964597702026,-0.7451239824295044,-9.842187881469727
1745729279.3371909,0.03003295138478279,-0.015170380473136902,-0.27543187141418457,0.38409096002578735,-0.8537813425064087,-9.638827323913574
1745729279.3397987,0.012651452794671059,-0.021851714700460434,-0.27694016695022583,0.407956063747406,-0.7853771448135376,-9.583985328674316
1745729279.3694983,0.03159654513001442,-0.017163138836622238,-0.27472245693206787,0.3064221441745758,-0.8195977210998535,-9.807660102844238
1745729279.3715234,0.018055135384202003,-0.015351580455899239,-0.2765478491783142,0.5043963193893433,-0.6449233293533325,-9.820730209350586
1745729279.374683,0.02431541308760643,-0.01978014037013054,-0.28005561232566833,0.3486308157444,-0.7505847811698914,-9.724206924438477
1745729279.3783138,0.022242268547415733,-0.01754736714065075,-0.2785472273826599,0.5105572938919067,-0.9059871435165405,-9.720906257629395
1745729279.3783834,0.024291135370731354,-0.020812081173062325,-0.277893602848053,0.31370896100997925,-0.7513086795806885,-9.854121208190918
1745729279.4142575,0.01862235739827156,-0.017834264785051346,-0.27875423431396484,0.40238314867019653,-1.0320895910263062,-9.79676628112793
1745729279.4279625,0.021262800320982933,-0.016968633979558945,-0.2759055495262146,0.4421772360801697,-0.642547607421875,-9.540739059448242
1745729279.4280918,0.020104706287384033,-0.0189020037651062,-0.2749054431915283,0.3642387092113495,-0.9269739985466003,-9.744941711425781
1745729279.4281597,0.01631271466612816,-0.0204805638641119,-0.2808723449707031,0.37237977981567383,-0.7746114134788513,-9.654295921325684
1745729279.4564793,0.008322528563439846,-0.015581995248794556,-0.2809557020664215,0.4533085227012634,-0.9565448760986328,-9.746644973754883
1745729279.4565861,0.010688590817153454,-0.021654028445482254,-0.28031641244888306,0.2992061972618103,-0.6933359503746033,-9.814793586730957
1745729279.4574378,0.011607689782977104,-0.019472280517220497,-0.27899596095085144,0.43234768509864807,-0.9570480585098267,-9.857526779174805
1745729279.4577086,0.003430902259424329,-0.02250880002975464,-0.2787781059741974,0.4059927463531494,-0.7637399435043335,-9.723411560058594
1745729279.5016744,0.01584627851843834,-0.021484600380063057,-0.27715784311294556,0.3964068293571472,-0.8593527674674988,-9.732142448425293
1745729279.5050342,-0.0051995133981108665,-0.02640468440949917,-0.27874308824539185,0.5093400478363037,-0.9246301651000977,-9.857038497924805
1745729279.5081136,0.007587697356939316,-0.02195866033434868,-0.27919480204582214,0.3068179488182068,-0.7932432889938354,-9.78352165222168
1745729279.5199344,0.0025079618208110332,-0.019014794379472733,-0.27842622995376587,0.47908973693847656,-0.8890072703361511,-9.602195739746094
1745729279.5424345,-0.002379127312451601,-0.025859931483864784,-0.27772313356399536,0.3359501361846924,-0.6656702160835266,-9.614763259887695
1745729279.5445187,-0.001091756857931614,-0.019622832536697388,-0.27833861112594604,0.48283615708351135,-0.854243278503418,-9.840093612670898
1745729279.5471127,0.005535314790904522,-0.02253471314907074,-0.28090983629226685,0.4154123365879059,-0.6661934852600098,-9.862988471984863
1745729279.5492435,0.00613152701407671,-0.019953008741140366,-0.2798093557357788,0.33170947432518005,-0.8354930877685547,-9.779558181762695
1745729279.5505278,0.006158930249512196,-0.02492787316441536,-0.2814372777938843,0.4701666831970215,-0.7490428686141968,-9.637722969055176
1745729279.591103,0.006318436469882727,-0.021800758317112923,-0.2778763175010681,0.3442603051662445,-0.9168301820755005,-9.823908805847168
1745729279.5911887,0.002914616372436285,-0.022881964221596718,-0.27616018056869507,0.5023776292800903,-0.8947714567184448,-9.771984100341797
1745729279.5912647,-0.0016139280050992966,-0.022923793643712997,-0.27637171745300293,0.3608977198600769,-0.8279336094856262,-9.709831237792969
1745729279.5916767,-0.004830995108932257,-0.018329400569200516,-0.2772446274757385,0.43930935859680176,-0.9574877619743347,-9.666874885559082
1745729279.6282334,0.001362403854727745,-0.020907755941152573,-0.27778002619743347,0.3655281364917755,-0.5740475058555603,-9.679464340209961
1745729279.6320574,-0.008050726726651192,-0.019649915397167206,-0.28039467334747314,0.3860054910182953,-0.8818113207817078,-9.86408519744873
1745729279.6321156,0.017089728266000748,-0.018186967819929123,-0.2816849648952484,0.3195885717868805,-0.7444756627082825,-9.651593208312988
1745729279.633693,0.007069128565490246,-0.020434539765119553,-0.28070276975631714,0.4710511565208435,-0.8798013925552368,-9.853421211242676
1745729279.6701133,0.013774407096207142,-0.023193322122097015,-0.28081002831459045,0.3680707812309265,-0.7213569283485413,-9.842248916625977
1745729279.672049,0.012437382712960243,-0.015163679607212543,-0.279953271150589,0.44648393988609314,-0.8252055048942566,-9.714947700500488
1745729279.6757138,0.013091531582176685,-0.023483261466026306,-0.2801678478717804,0.39725008606910706,-0.7714530229568481,-9.61214828491211
1745729279.6785767,0.011658933945000172,-0.018913477659225464,-0.27813461422920227,0.39739447832107544,-0.8529941439628601,-9.70296573638916
1745729279.6811905,0.0006012493977323174,-0.02160441316664219,-0.2802787721157074,0.4361998438835144,-0.7962756752967834,-9.860383987426758
1745729279.716386,0.012370596639811993,-0.016193199902772903,-0.2810916304588318,0.2794875502586365,-0.7645937204360962,-9.833734512329102
1745729279.7197363,-0.0011970838531851768,-0.017425233498215675,-0.28148332238197327,0.4487403333187103,-0.7641543745994568,-9.629121780395508
1745729279.7234054,0.007907641120254993,-0.020928334444761276,-0.28225821256637573,0.3982616066932678,-0.7043170928955078,-9.695805549621582
1745729279.7267616,0.003407247830182314,-0.01904539205133915,-0.28406068682670593,0.5001100897789001,-0.8108640909194946,-9.90510368347168
1745729279.7565,0.016359787434339523,-0.020666252821683884,-0.28115421533584595,0.36692309379577637,-0.6758247017860413,-9.849586486816406
1745729279.758147,0.010126284323632717,-0.015938814729452133,-0.2810744345188141,0.42070966958999634,-0.9292200207710266,-9.62487506866455
1745729279.7592783,0.014133380725979805,-0.021458227187395096,-0.27994611859321594,0.39538073539733887,-0.5615323781967163,-9.600276947021484
1745729279.7620552,0.019341913983225822,-0.01739182136952877,-0.27926164865493774,0.36186683177948,-0.8680766224861145,-9.877805709838867
1745729279.8009737,0.011887493543326855,-0.018772071227431297,-0.2828513979911804,0.463520348072052,-0.6491585969924927,-9.809487342834473
1745729279.8054547,0.005424431525170803,-0.015609115362167358,-0.28346580266952515,0.4521128535270691,-0.9643133878707886,-9.924914360046387
1745729279.8281703,0.015268616378307343,-0.017349135130643845,-0.2840633988380432,0.27204686403274536,-0.6322219967842102,-9.736202239990234
1745729279.8297915,0.01630360446870327,-0.01601654849946499,-0.2803688645362854,0.4612414836883545,-0.9099113345146179,-9.638264656066895
1745729279.8298538,0.009764021262526512,-0.020658429712057114,-0.27948427200317383,0.3870687782764435,-0.6995338201522827,-9.794439315795898
1745729279.8491533,0.026642385870218277,-0.015283629298210144,-0.280739963054657,0.31517067551612854,-0.7868314981460571,-9.939329147338867
1745729279.8492143,0.008119426667690277,-0.017779644578695297,-0.2812380790710449,0.4423115849494934,-0.790052592754364,-9.700403213500977
1745729279.850556,0.01650768518447876,-0.020170018076896667,-0.28234583139419556,0.3328262269496918,-0.7047332525253296,-9.554893493652344
1745729279.8519545,0.008260330185294151,-0.020182229578495026,-0.2835436463356018,0.5246923565864563,-0.945905327796936,-9.742523193359375
1745729279.8895311,0.01095784455537796,-0.020083937793970108,-0.28334182500839233,0.31114843487739563,-0.7125956416130066,-9.925575256347656
1745729279.889715,0.006854546722024679,-0.01416546106338501,-0.28430622816085815,0.4768136143684387,-0.945096492767334,-9.762319564819336
1745729279.8934243,0.004220776725560427,-0.018617819994688034,-0.2812768816947937,0.46562355756759644,-0.7192082405090332,-9.498753547668457
1745729279.8934987,0.00849107839167118,-0.02035573124885559,-0.2811863422393799,0.3317343592643738,-0.7762960195541382,-9.824058532714844
1745729279.897421,0.014929814264178276,-0.019154049456119537,-0.27976250648498535,0.4745011329650879,-0.7572087049484253,-10.0024995803833
1745729279.9333904,0.02080736868083477,-0.016010981053113937,-0.2809719443321228,0.23687973618507385,-0.7069302797317505,-9.757801055908203
1745729279.9343686,0.01960439421236515,-0.018940912559628487,-0.27905526757240295,0.42654722929000854,-0.7987016439437866,-9.469283103942871
1745729279.9371083,0.01668151095509529,-0.024460934102535248,-0.28213533759117126,0.3229354918003082,-0.6954646110534668,-9.76567554473877
1745729279.9388287,0.014069032855331898,-0.015216315165162086,-0.28343501687049866,0.39409247040748596,-0.9099946022033691,-9.971593856811523
1745729279.9721127,0.019999884068965912,-0.01659872755408287,-0.28257089853286743,0.42550086975097656,-0.7067004442214966,-9.579026222229004
1745729279.972832,0.006598512642085552,-0.018279390409588814,-0.2810624837875366,0.3960590064525604,-0.9983609914779663,-9.549772262573242
1745729279.9747071,-0.0006187689723446965,-0.023032013326883316,-0.2812137007713318,0.5338989496231079,-0.8328380584716797,-9.877399444580078
1745729279.9755661,0.011861996725201607,-0.014514083042740822,-0.2821887135505676,0.3186008036136627,-0.8321078419685364,-10.011433601379395
1745729280.0144804,0.015801792964339256,-0.018018078058958054,-0.28065839409828186,0.3614559471607208,-0.7393202781677246,-9.542245864868164
1745729280.0183783,0.005701096728444099,-0.02156577818095684,-0.28101104497909546,0.498891681432724,-0.8333455324172974,-9.652762413024902
1745729280.0188723,0.01132761687040329,-0.027127960696816444,-0.2799418568611145,0.3240170478820801,-0.6108726263046265,-9.96803092956543
1745729280.0212543,0.01636672206223011,-0.014561047777533531,-0.28012019395828247,0.3910016417503357,-0.8043211698532104,-9.889830589294434
1745729280.0241656,0.01169052254408598,-0.022736085578799248,-0.2804794907569885,0.3621063828468323,-0.7882436513900757,-9.512369155883789
1745729280.058898,0.0194186232984066,-0.022247303277254105,-0.2790895402431488,0.34880539774894714,-0.7952139973640442,-9.541516304016113
1745729280.060627,0.002411495428532362,-0.024395179003477097,-0.2787463963031769,0.4463707506656647,-0.84306401014328,-9.971817016601562
1745729280.0629861,0.02039649710059166,-0.0152388084679842,-0.2802457809448242,0.2734619677066803,-0.7638744711875916,-9.917283058166504
1745729280.069089,0.007040248718112707,-0.017464911565184593,-0.27882686257362366,0.47805851697921753,-0.7578851580619812,-9.507413864135742
1745729280.1027617,0.0069295139983296394,-0.024593953043222427,-0.2807244658470154,0.3460758626461029,-0.750294029712677,-9.602181434631348
1745729280.1083674,0.00977015309035778,-0.01979314163327217,-0.2808111310005188,0.47089695930480957,-0.8252542614936829,-10.003312110900879
1745729280.1139061,0.014451345428824425,-0.017003316432237625,-0.2799139618873596,0.3435755968093872,-0.6982585191726685,-9.910370826721191
1745729280.1173167,0.01133192889392376,-0.018530264496803284,-0.28053343296051025,0.384052038192749,-0.8729071617126465,-9.522074699401855
1745729280.122809,0.01172228716313839,-0.023253165185451508,-0.2770939767360687,0.45098966360092163,-0.6356624364852905,-9.556989669799805
1745729280.1519086,0.02220207452774048,-0.018677886575460434,-0.2810766100883484,0.3421328663825989,-0.8360773324966431,-10.035069465637207
1745729280.1520202,0.018257712945342064,-0.020705241709947586,-0.2818854749202728,0.4612301290035248,-0.8730471730232239,-9.821704864501953
1745729280.1521075,0.009098632261157036,-0.02105085179209709,-0.2790706753730774,0.41247159242630005,-0.662808895111084,-10.0142822265625
1745729280.1521516,0.030444886535406113,-0.016807276755571365,-0.28128257393836975,0.33260253071784973,-0.7472701072692871,-9.779781341552734
1745729280.1891513,0.008808833546936512,-0.019810164347290993,-0.2816029191017151,0.48651981353759766,-0.8714393377304077,-9.53703498840332
1745729280.1906729,0.022256147116422653,-0.022913888096809387,-0.2809865474700928,0.3227248191833496,-0.6749754548072815,-9.704818725585938
1745729280.193012,0.018747223541140556,-0.016282616183161736,-0.2832100987434387,0.4882105886936188,-0.8740951418876648,-9.902519226074219
1745729280.1957471,0.01738450489938259,-0.018576813861727715,-0.2831175923347473,0.34062451124191284,-0.671379566192627,-9.718317031860352
1745729280.2298946,0.01635657623410225,-0.018273333087563515,-0.28349560499191284,0.4629356265068054,-0.8961030840873718,-9.620058059692383
1745729280.2310717,0.013587450608611107,-0.021426064893603325,-0.2826225757598877,0.41886574029922485,-0.6874109506607056,-9.786651611328125
1745729280.2332342,0.02076565846800804,-0.015837181359529495,-0.2838117480278015,0.2864324450492859,-0.7510694265365601,-9.93751335144043
1745729280.2353706,0.021027449518442154,-0.017002979293465614,-0.28397107124328613,0.5168116092681885,-0.82831209897995,-9.715398788452148
1745729280.2385294,0.02079680562019348,-0.021071134135127068,-0.28035473823547363,0.3065147399902344,-0.809237003326416,-9.66454792022705
1745729280.2781565,0.019535738974809647,-0.019017418846488,-0.28183239698410034,0.4415128231048584,-0.8373875617980957,-9.78288459777832
1745729280.2782574,0.017670948058366776,-0.017095431685447693,-0.28062763810157776,0.31558728218078613,-0.7776444554328918,-9.85384464263916
1745729280.2783077,0.017142949625849724,-0.013094445690512657,-0.282285213470459,0.4063568115234375,-0.8911717534065247,-9.581598281860352
1745729280.2801018,0.016665400937199593,-0.018812431022524834,-0.2830908000469208,0.43637117743492126,-0.6288949847221375,-9.547012329101562
1745729280.317054,0.00891755148768425,-0.016036661341786385,-0.2838577330112457,0.3431018888950348,-0.8926254510879517,-9.949052810668945
1745729280.319122,0.008789265528321266,-0.015922848135232925,-0.28484684228897095,0.49240750074386597,-0.7808362245559692,-9.891912460327148
1745729280.3216863,0.013549834489822388,-0.010378653183579445,-0.2856517434120178,0.32620084285736084,-0.8290765881538391,-9.655778884887695
1745729280.328273,0.003571581793949008,-0.020213237032294273,-0.28269410133361816,0.47005754709243774,-0.8116210103034973,-9.657397270202637
1745729280.3284037,0.021869180724024773,-0.015934403985738754,-0.284316748380661,0.36610087752342224,-0.6249331831932068,-9.874244689941406
1745729280.360606,0.00885612703859806,-0.014202949590981007,-0.28258219361305237,0.48217812180519104,-0.9615746736526489,-9.927355766296387
1745729280.3607404,0.022599708288908005,-0.015523781068623066,-0.282362699508667,0.3393951654434204,-0.6628150939941406,-9.775335311889648
1745729280.3628752,0.015257646329700947,-0.013187293894588947,-0.2851630449295044,0.40574511885643005,-0.8660661578178406,-9.831644058227539
1745729280.364757,0.01856953278183937,-0.017774367704987526,-0.28292688727378845,0.37856632471084595,-0.6691311001777649,-9.669346809387207
1745729280.4028347,0.02177179418504238,-0.013441083952784538,-0.2834019660949707,0.4899187982082367,-0.8790830373764038,-9.749425888061523
1745729280.4066296,0.01789679564535618,-0.02048300951719284,-0.28142720460891724,0.4084874093532562,-0.8309568166732788,-9.886255264282227
1745729280.4136286,0.028078770264983177,-0.009848768822848797,-0.2813238203525543,0.26645174622535706,-0.7476323246955872,-9.715799331665039
1745729280.4154997,0.009374415501952171,-0.014958305284380913,-0.2818489074707031,0.4108840525150299,-0.8086912035942078,-9.51225757598877
1745729280.446383,0.02748922072350979,-0.01522498857229948,-0.2832724153995514,0.3279162347316742,-0.6859356164932251,-9.686971664428711
1745729280.4499822,0.017241770401597023,-0.013706144876778126,-0.28420743346214294,0.5384734272956848,-0.7844992876052856,-9.982053756713867
1745729280.4510067,0.018556298688054085,-0.016365861520171165,-0.2841830849647522,0.32890453934669495,-0.7635663151741028,-9.962404251098633
1745729280.4541147,0.0229501910507679,-0.010144953615963459,-0.2832966446876526,0.41931915283203125,-0.9157224893569946,-9.564508438110352
1745729280.457062,0.017143337056040764,-0.017645221203565598,-0.2824370265007019,0.3828241229057312,-0.7244422435760498,-9.619841575622559
1745729280.488945,0.01935744099318981,-0.015684202313423157,-0.2832736372947693,0.42259320616722107,-0.8975574374198914,-9.907341003417969
1745729280.4898562,0.021715663373470306,-0.014602674171328545,-0.28168705105781555,0.47204461693763733,-0.5696549415588379,-9.833780288696289
1745729280.4932745,0.03715746849775314,-0.019479935988783836,-0.28282809257507324,0.2528013586997986,-0.7107323408126831,-9.549433708190918
1745729280.4965887,0.020238248631358147,-0.0240057073533535,-0.2840505540370941,0.42921409010887146,-0.8249073028564453,-9.531204223632812
1745729280.5336566,0.03009932115674019,-0.02316565439105034,-0.28365129232406616,0.307543009519577,-0.6775496602058411,-9.873335838317871
1745729280.536389,0.03336925059556961,-0.014586475677788258,-0.2859862446784973,0.4729563593864441,-0.8954373598098755,-9.855791091918945
1745729280.5382004,0.02427983470261097,-0.023443561047315598,-0.2858095169067383,0.3857050836086273,-0.7402151226997375,-9.559663772583008
1745729280.5388148,0.027017539367079735,-0.019590644165873528,-0.2837875485420227,0.4878173768520355,-0.9612410664558411,-9.694670677185059
1745729280.582104,0.02131018415093422,-0.0214734748005867,-0.28347113728523254,0.4896501898765564,-0.8302019238471985,-9.924688339233398
1745729280.5821576,0.028862282633781433,-0.019041579216718674,-0.28106045722961426,0.27894163131713867,-0.8287997245788574,-9.877634048461914
1745729280.5822034,0.02322506718337536,-0.02076641656458378,-0.2815420925617218,0.4678226113319397,-0.8288911581039429,-9.619183540344238
1745729280.5822482,0.028955742716789246,-0.02442891336977482,-0.2821149230003357,0.2943804860115051,-0.7779125571250916,-9.683778762817383
1745729280.6192098,0.023485345765948296,-0.023107338696718216,-0.2810590863227844,0.41473016142845154,-0.8300881385803223,-9.856158256530762
1745729280.6205654,0.01756676658987999,-0.026265060529112816,-0.2837306261062622,0.3602888286113739,-0.8266028165817261,-9.86005973815918
1745729280.6235247,0.021452348679304123,-0.01968747191131115,-0.28510990738868713,0.3917577564716339,-0.947464108467102,-9.581101417541504
1745729280.6247475,0.0156400166451931,-0.023288926109671593,-0.28322461247444153,0.4351530969142914,-0.7234339714050293,-9.529973983764648
1745729280.6264231,0.013774409890174866,-0.022489208728075027,-0.28194987773895264,0.3649619221687317,-0.9000339508056641,-9.917131423950195
1745729280.6618786,0.009484509006142616,-0.02173575572669506,-0.2807435095310211,0.5105839371681213,-0.812286376953125,-9.899625778198242
1745729280.6622026,0.02707279659807682,-0.01975438930094242,-0.2827605903148651,0.2884087562561035,-0.7088878750801086,-9.668333053588867
1745729280.6778824,0.015875425189733505,-0.022777244448661804,-0.2820476293563843,0.4141523838043213,-0.7171651124954224,-9.59290885925293
1745729280.6780083,0.03265956789255142,-0.02165083773434162,-0.28304916620254517,0.35208630561828613,-0.6010445356369019,-9.800783157348633
1745729280.7060654,0.026554575189948082,-0.022007981315255165,-0.2832881808280945,0.440542072057724,-0.9822843670845032,-9.940227508544922
1745729280.7061892,0.03108888491988182,-0.02262367308139801,-0.28254979848861694,0.394273966550827,-0.6817278861999512,-9.579861640930176
1745729280.7093122,0.021216295659542084,-0.019803645089268684,-0.281257301568985,0.3699003756046295,-1.0410704612731934,-9.648622512817383
1745729280.7180266,0.017044397071003914,-0.02201366424560547,-0.2817135453224182,0.45590776205062866,-0.8809453845024109,-9.741865158081055
1745729280.7180831,0.008712764829397202,-0.019741743803024292,-0.28414228558540344,0.41018277406692505,-0.9397723078727722,-9.85212516784668
1745729280.7463846,0.013429480604827404,-0.02468993328511715,-0.2826932370662689,0.3527490496635437,-0.66839200258255,-9.791956901550293
1745729280.7477894,0.016175756230950356,-0.017672767862677574,-0.28336459398269653,0.4197499752044678,-0.8391209840774536,-9.72018814086914
1745729280.7505434,0.013088388368487358,-0.025635171681642532,-0.2833489775657654,0.44516754150390625,-0.8524962663650513,-9.694700241088867
1745729280.7538295,0.02063099667429924,-0.020453903824090958,-0.2804720997810364,0.35445377230644226,-0.7772273421287537,-9.757205963134766
1745729280.7897651,0.005025372374802828,-0.021312950178980827,-0.2818644940853119,0.4991241991519928,-0.9251114130020142,-9.783308029174805
1745729280.7912633,0.022228486835956573,-0.021689604967832565,-0.27917608618736267,0.3370876908302307,-0.7524193525314331,-9.721909523010254
1745729280.794623,0.008442344143986702,-0.02193324826657772,-0.28325170278549194,0.4349587857723236,-0.8146275281906128,-9.741541862487793
1745729280.7973483,0.010787436738610268,-0.02348095178604126,-0.28203636407852173,0.38436824083328247,-0.7313721179962158,-9.815162658691406
1745729280.7988558,0.01578475348651409,-0.01551750022917986,-0.28449782729148865,0.36689960956573486,-0.8371042013168335,-9.728835105895996
1745729280.8373828,0.009061135351657867,-0.024638043716549873,-0.2839367687702179,0.37934085726737976,-0.7403792142868042,-9.694482803344727
1745729280.8392673,0.017285149544477463,-0.018004652112722397,-0.28429558873176575,0.3324528634548187,-0.9436777830123901,-9.739843368530273
1745729280.8393083,0.00922278594225645,-0.016783198341727257,-0.2830143868923187,0.42047590017318726,-0.6990978717803955,-9.690464973449707
1745729280.8762112,-0.004395735450088978,-0.018067680299282074,-0.2829519510269165,0.447817862033844,-0.8755179643630981,-9.719990730285645
1745729280.8789694,0.011903439648449421,-0.020314523950219154,-0.283517986536026,0.3139289319515228,-0.7099160552024841,-9.621060371398926
1745729280.8836036,-0.008903417736291885,-0.019732797518372536,-0.2834920585155487,0.4398845136165619,-0.9535886645317078,-9.812055587768555
1745729280.8850741,0.006538745015859604,-0.01918048970401287,-0.2842598557472229,0.3148280084133148,-0.6329519748687744,-9.81347942352295
1745729280.8866174,0.007674787193536758,-0.013721490278840065,-0.2860954999923706,0.41734838485717773,-0.850278377532959,-9.61915111541748
1745729280.9209347,-0.0007874786970205605,-0.020520104095339775,-0.2851686477661133,0.37922561168670654,-0.6953455805778503,-9.618400573730469
1745729280.924628,0.007740928791463375,-0.015309454873204231,-0.28764644265174866,0.42595523595809937,-0.8411067724227905,-9.870257377624512
1745729280.9282691,0.004410861991345882,-0.015744328498840332,-0.2851392328739166,0.4717913568019867,-0.7914867997169495,-9.906960487365723
1745729280.9303849,0.010182539001107216,-0.015066911466419697,-0.2852591872215271,0.2637385129928589,-0.7030948996543884,-9.688323020935059
1745729280.962286,0.00927888136357069,-0.01674429140985012,-0.2854360044002533,0.5252044200897217,-0.7992965579032898,-9.619626998901367
1745729280.9628854,0.011353063397109509,-0.019857201725244522,-0.2862054705619812,0.38325268030166626,-0.7142335176467896,-9.845338821411133
1745729280.9663537,0.014379529282450676,-0.016152555122971535,-0.28585290908813477,0.4761905074119568,-0.8574317693710327,-9.8897123336792
1745729280.9753351,0.008694102987647057,-0.01832466945052147,-0.2869564890861511,0.3570501208305359,-0.7684875726699829,-9.691876411437988
1745729280.9767878,0.01129971444606781,-0.014428484253585339,-0.28592532873153687,0.33316880464553833,-0.911235511302948,-9.564401626586914
1745729281.006919,0.009235749952495098,-0.017641697078943253,-0.28895825147628784,0.4436718821525574,-0.6813744902610779,-9.658853530883789
1745729281.0117326,0.006334369070827961,-0.015679311007261276,-0.28788110613822937,0.34240031242370605,-0.8153749704360962,-9.957735061645508
1745729281.0180933,0.006827083416283131,-0.016324207186698914,-0.29003480076789856,0.5374014377593994,-0.8387818336486816,-9.851888656616211
