timestamp,angular_vel_x,angular_vel_y,angular_vel_z,linear_acc_x,linear_acc_y,linear_acc_z
1745663528.5245986,0.07344035804271698,0.03558335825800896,-0.051023922860622406,0.25846067070961,0.10732947289943695,-9.616449356079102
1745663528.5269008,0.09013349562883377,0.038342900574207306,-0.052486877888441086,0.5174497365951538,0.27156466245651245,-9.508914947509766
1745663528.5302215,0.06015173718333244,0.0318671353161335,-0.054223112761974335,0.5387527942657471,0.10949132591485977,-10.07752799987793
1745663528.5335817,0.10771145671606064,0.03981001302599907,-0.057152412831783295,0.43603047728538513,0.2910800278186798,-9.949012756347656
1745663528.535187,0.07315436005592346,0.042413704097270966,-0.05667310208082199,0.49975070357322693,0.043813757598400116,-9.446736335754395
1745663528.5697718,0.08704088628292084,0.035437457263469696,-0.055578090250492096,0.2786727547645569,0.05561237782239914,-9.510602951049805
1745663528.580789,0.08552268147468567,0.04090205952525139,-0.055820874869823456,0.5742821097373962,-0.026805629953742027,-9.80348014831543
1745663528.58443,0.07841052114963531,0.046346671879291534,-0.055396635085344315,0.32676514983177185,0.29806673526763916,-9.97504997253418
1745663528.5857925,0.09381457418203354,0.047724686563014984,-0.05894678086042404,0.5271536111831665,0.34432342648506165,-9.582954406738281
1745663528.6090949,0.08678038418292999,0.03633856028318405,-0.061769794672727585,0.5360714793205261,0.3348725140094757,-9.55198860168457
1745663528.6119528,0.10429705679416656,0.04811766743659973,-0.06646343320608139,0.4605705142021179,0.5024937987327576,-9.893470764160156
1745663528.614214,0.10944764316082001,0.04200351610779762,-0.06889618933200836,0.5582204461097717,0.12828974425792694,-9.889265060424805
1745663528.6172092,0.12306542694568634,0.048805058002471924,-0.066104456782341,0.3622283339500427,0.3514977693557739,-9.56507396697998
1745663528.6184084,0.12432818114757538,0.044377513229846954,-0.0653359666466713,0.5889502763748169,0.0400189571082592,-9.588866233825684
1745663528.6572769,0.13689365983009338,0.034537382423877716,-0.06618192046880722,0.3795241415500641,0.35098254680633545,-9.899656295776367
1745663528.6578605,0.13631543517112732,0.05712459608912468,-0.07102688401937485,0.5897610783576965,0.24460558593273163,-9.906128883361816
1745663528.659499,0.13692444562911987,0.0633167251944542,-0.13019807636737823,0.6424425840377808,0.24011102318763733,-9.931408882141113
1745663528.661484,0.20623819530010223,0.06165928393602371,-0.14486457407474518,0.8749381303787231,0.1994112730026245,-10.268426895141602
1745663528.6960402,0.15794478356838226,0.07900295406579971,-0.1564282774925232,0.7011094093322754,0.4978252351284027,-9.582378387451172
1745663528.6990454,0.18150869011878967,0.06497985869646072,-0.15627199411392212,0.9989302754402161,-0.6922491192817688,-9.462628364562988
1745663528.7025661,0.16920733451843262,0.052199333906173706,-0.15792028605937958,1.010098934173584,0.1509581208229065,-9.737876892089844
1745663528.7039683,0.15870657563209534,0.07497470080852509,-0.1576322764158249,0.9425666928291321,-0.5085631608963013,-10.463671684265137
1745663528.7388606,0.20079509913921356,0.07191752642393112,-0.15777094662189484,0.9754641652107239,0.40556249022483826,-9.492773056030273
1745663528.7512064,0.1780930757522583,0.06371629983186722,-0.16575495898723602,0.7700153589248657,0.3478746712207794,-9.184779167175293
1745663528.7512803,0.21969842910766602,0.05540933459997177,-0.17569129168987274,0.8888852000236511,0.26903775334358215,-9.952528953552246
1745663528.7513316,0.22164705395698547,0.06689415127038956,-0.18515239655971527,0.5939797759056091,0.5405953526496887,-10.515893936157227
1745663528.78207,0.25940147042274475,0.06310645490884781,-0.19231805205345154,0.6973347067832947,-0.03707866743206978,-9.685344696044922
1745663528.7842371,0.23195858299732208,0.06364043802022934,-0.1970977485179901,0.7965890169143677,-0.059005726128816605,-8.849546432495117
1745663528.7863464,0.2389920949935913,0.061236631125211716,-0.1975153237581253,0.8960003852844238,-0.44130176305770874,-9.853353500366211
1745663528.790065,0.22094425559043884,0.055879104882478714,-0.20109036564826965,1.0294148921966553,-0.3418445587158203,-10.38653564453125
1745663528.7914457,0.21442675590515137,0.0766274482011795,-0.20322318375110626,0.9289447665214539,-0.3599323034286499,-9.935759544372559
1745663528.8286204,0.19683289527893066,0.008904566988348961,-0.2938012480735779,0.7483493685722351,-0.5686141848564148,-9.912801742553711
1745663528.8306518,0.2202477902173996,-0.012304995208978653,-0.2965463697910309,0.9084782600402832,-0.30245441198349,-9.64904499053955
1745663528.8325431,0.19371861219406128,-0.010546253062784672,-0.30322831869125366,0.7268820405006409,-0.36219388246536255,-9.785558700561523
1745663528.8371694,0.22595790028572083,-0.004310727119445801,-0.3013651371002197,0.9014711380004883,-0.6882818341255188,-9.84840202331543
1745663528.8714502,0.19365143775939941,-0.018398014828562737,-0.3070307672023773,0.8407840728759766,-0.5310577154159546,-9.588584899902344
1745663528.8736598,0.1933085024356842,-0.014411118812859058,-0.3070562481880188,1.0220775604248047,-0.8125934600830078,-9.796340942382812
1745663528.8824618,0.17671895027160645,-0.020449550822377205,-0.30930352210998535,0.9689995050430298,-0.7668511867523193,-9.998880386352539
1745663528.8826218,0.1786631941795349,-0.021493500098586082,-0.30995187163352966,0.8394331932067871,-0.7469673156738281,-9.849088668823242
1745663528.8857908,0.1532105952501297,-0.027614396065473557,-0.31297048926353455,1.1218918561935425,-0.6710197329521179,-9.39087963104248
1745663528.9128764,0.15389926731586456,-0.02984258532524109,-0.3154434561729431,0.7008645534515381,-0.6384373903274536,-9.856836318969727
1745663528.9150794,0.17243728041648865,-0.02382601425051689,-0.3177155554294586,0.8673692941665649,-0.3607039451599121,-9.803568840026855
1745663528.9188454,0.13793912529945374,-0.02678089775145054,-0.32416802644729614,0.7598769664764404,-0.4309142529964447,-9.66992473602295
1745663528.921659,0.1963639110326767,-0.02835354208946228,-0.32560428977012634,0.726354718208313,-0.34639137983322144,-9.624551773071289
1745663528.95636,0.16458407044410706,-0.04096568003296852,-0.3293703496456146,0.8866450190544128,-0.3646363914012909,-9.774625778198242
1745663528.9591334,0.20068590342998505,-0.02720431424677372,-0.3311721682548523,0.8139892816543579,-0.5764700174331665,-9.972206115722656
1745663528.96099,0.18413841724395752,-0.037993114441633224,-0.32904964685440063,0.980980396270752,-0.5861457586288452,-9.527493476867676
1745663528.9657977,0.1843549758195877,-0.04268448427319527,-0.33337336778640747,0.8809561729431152,-0.7513450384140015,-9.680123329162598
1745663528.96586,0.17904089391231537,-0.039487920701503754,-0.3310409188270569,1.0017194747924805,-0.7993326783180237,-9.931951522827148
1745663528.9981642,0.17094877362251282,-0.04710174351930618,-0.33458808064460754,0.8341221809387207,-0.805766761302948,-9.94875717163086
1745663529.0010753,0.1628512591123581,-0.044335804879665375,-0.3370338976383209,0.8570491671562195,-0.7034115791320801,-9.604166984558105
1745663529.0065536,0.14128777384757996,-0.05655059963464737,-0.34162402153015137,0.8267295956611633,-0.8410884141921997,-9.686088562011719
1745663529.0066354,0.1277037113904953,-0.06493543088436127,-0.35361942648887634,0.8835959434509277,-0.9258076548576355,-9.840850830078125
1745663529.043628,0.13314099609851837,-0.06354266405105591,-0.3579382598400116,0.6766608357429504,-0.5377395153045654,-9.716461181640625
1745663529.0456767,0.11606059968471527,-0.059706490486860275,-0.35656362771987915,0.8100898861885071,-1.0269721746444702,-9.702197074890137
1745663529.0484924,0.12981365621089935,-0.07110632956027985,-0.35932114720344543,0.770211398601532,-0.571999192237854,-9.623191833496094
1745663529.0520668,0.10863089561462402,-0.0610479936003685,-0.3602471947669983,0.7903487682342529,-0.792343258857727,-9.788180351257324
1745663529.0850074,0.12581336498260498,-0.06410980969667435,-0.3603114187717438,0.8577365875244141,-0.8732112646102905,-9.733996391296387
1745663529.0891647,0.12638209760189056,-0.06490693241357803,-0.3601190149784088,0.6405330896377563,-0.5707060098648071,-9.700895309448242
1745663529.0915415,0.11540641635656357,-0.06730131804943085,-0.36160311102867126,0.8282307386398315,-1.0016930103302002,-9.84648323059082
1745663529.0981483,0.1307186782360077,-0.06839923560619354,-0.3622925877571106,0.6069617867469788,-0.5879937410354614,-9.771631240844727
1745663529.1262684,0.11590968072414398,-0.06666098535060883,-0.36146053671836853,0.8204749822616577,-0.9376416206359863,-9.700132369995117
1745663529.1298091,0.10490445047616959,-0.07284899055957794,-0.3646605610847473,0.759171187877655,-0.8565855026245117,-9.691852569580078
1745663529.1298606,0.1022360697388649,-0.06518086045980453,-0.36475539207458496,0.6942512392997742,-0.9658889770507812,-9.834697723388672
1745663529.1323934,0.0891762301325798,-0.0725247859954834,-0.36794349551200867,0.9130253791809082,-0.8402773141860962,-9.712126731872559
1745663529.1343436,0.08277702331542969,-0.06663253903388977,-0.36964887380599976,0.6296332478523254,-0.867226243019104,-9.808086395263672
1745663529.17393,0.09090331941843033,-0.07385363429784775,-0.3690108060836792,0.8569145202636719,-0.9492958784103394,-9.750162124633789
1745663529.1745844,0.05723496526479721,-0.0781073197722435,-0.3054790496826172,-0.11274753510951996,-0.7351992726325989,-9.27766227722168
1745663529.1777127,0.001937097287736833,-0.0892072319984436,-0.30652427673339844,0.1632213145494461,-0.6854714751243591,-8.394582748413086
1745663529.1782527,-0.03057289682328701,-0.10911041498184204,-0.3016131818294525,0.07153502106666565,-1.8413022756576538,-10.480888366699219
1745663529.212859,-0.014859926886856556,-0.06233707815408707,-0.29276055097579956,0.3447696566581726,-0.9544316530227661,-10.656763076782227
1745663529.2177365,-0.08868040889501572,-0.08154328167438507,-0.2853429615497589,0.39226585626602173,-1.671837568283081,-9.346290588378906
1745663529.2202818,-0.060274094343185425,-0.09090254455804825,-0.27728259563446045,0.4755648970603943,-1.106166124343872,-8.7129545211792
1745663529.2226293,-0.13072767853736877,-0.0980013981461525,-0.2728944718837738,0.3080729842185974,-0.9442416429519653,-10.36586856842041
1745663529.2245798,-0.07318095117807388,-0.08592168986797333,-0.2732369303703308,0.07359428703784943,-0.7878255844116211,-10.868534088134766
1745663529.255885,-0.10829217731952667,-0.06814565509557724,-0.2748865783214569,-0.12323740869760513,-0.5494721531867981,-9.13603687286377
1745663529.2609873,-0.09803752601146698,-0.09230387210845947,-0.27148500084877014,-0.026622822508215904,-0.9626976251602173,-8.722764015197754
1745663529.2622986,-0.08861588686704636,-0.08618629723787308,-0.2589123845100403,0.057212136685848236,-0.527061939239502,-9.865018844604492
1745663529.2647707,-0.0933610051870346,-0.061606038361787796,-0.24106907844543457,0.4489363729953766,-1.3679991960525513,-10.686279296875
1745663529.3005939,-0.03851861134171486,-0.0752025842666626,-0.23029179871082306,0.9698454737663269,-0.1529664248228073,-9.456396102905273
1745663529.3014617,-0.09663496166467667,-0.10743526369333267,-0.2449457347393036,0.21664509177207947,-0.6101434230804443,-9.984491348266602
1745663529.3036177,-0.07051058858633041,-0.07113849371671677,-0.25159746408462524,0.1070931926369667,-0.40797871351242065,-9.938478469848633
1745663529.3051157,-0.08090790361166,-0.10149063915014267,-0.2626243233680725,0.4129093289375305,-0.3176390528678894,-9.674839973449707
1745663529.3096702,-0.07658058404922485,-0.10608074814081192,-0.27007871866226196,-0.6025439500808716,-0.6271278262138367,-10.280570983886719
1745663529.347264,-0.10150690376758575,-0.06816498935222626,-0.25630757212638855,-0.43005576729774475,-1.3300979137420654,-9.355562210083008
1745663529.3474073,-0.0784066766500473,-0.05379708483815193,-0.23980136215686798,-0.3374261260032654,-1.5887672901153564,-8.7639799118042
1745663529.3485875,-0.16184163093566895,-0.07036607712507248,-0.22623705863952637,0.6055657863616943,-1.5371431112289429,-9.094884872436523
1745663529.3500814,-0.0681108683347702,-0.08207675069570541,-0.21619756519794464,0.9005146026611328,-0.6024457812309265,-11.199451446533203
1745663529.3873873,-0.05591388791799545,-0.04134143143892288,-0.1810082644224167,-0.02141541987657547,-0.7170380353927612,-8.556396484375
1745663529.3910806,-0.06684412062168121,-0.04896628484129906,-0.1686953604221344,0.25852131843566895,-0.30370089411735535,-8.425002098083496
1745663529.3935888,-0.053675733506679535,-0.055141426622867584,-0.1615488976240158,0.12129263579845428,-0.6426130533218384,-10.963534355163574
1745663529.3967743,-0.03853495419025421,-0.02133672498166561,-0.16663658618927002,0.02480580285191536,-0.2552798390388489,-10.9827299118042
1745663529.427955,-0.06845651566982269,-0.02683182619512081,-0.17751096189022064,0.190047025680542,-0.7738566994667053,-8.898061752319336
1745663529.431399,-0.10383051633834839,-0.038837384432554245,-0.1809287965297699,0.12443409115076065,-1.2115001678466797,-8.840444564819336
1745663529.4324224,-0.16848979890346527,-0.03264719992876053,-0.1799790859222412,0.5054739713668823,-1.6499717235565186,-10.44772720336914
1745663529.4344103,-0.20490407943725586,-0.012258756905794144,-0.1659270077943802,0.4376615583896637,-1.7795617580413818,-10.64830207824707
1745663529.4379299,-0.22885379195213318,0.0015455067623406649,-0.143711119890213,0.6597802042961121,-1.714479684829712,-9.000654220581055
1745663529.4722,-0.2889036536216736,-0.018067870289087296,-0.12683025002479553,0.5988152027130127,-1.2338972091674805,-9.177875518798828
1745663529.4761999,-0.25845614075660706,-0.007084336131811142,-0.1165386438369751,0.5889029502868652,-0.5684843063354492,-10.408475875854492
1745663529.4774413,-0.26149970293045044,0.011794841848313808,-0.11023759841918945,0.6455855369567871,0.06373456120491028,-10.396889686584473
1745663529.4802742,-0.21520745754241943,0.0008848143625073135,-0.10573123395442963,0.49926209449768066,0.21939387917518616,-9.385705947875977
1745663529.515565,-0.20426221191883087,0.009219521656632423,-0.10324851423501968,0.46597814559936523,0.06002407521009445,-9.374521255493164
1745663529.517182,-0.1824929565191269,0.011845136061310768,-0.09658397734165192,0.5160090327262878,-0.0237229373306036,-10.113594055175781
1745663529.519592,-0.19512233138084412,0.08522728085517883,0.07537838071584702,0.5221867561340332,-0.567203164100647,-10.145944595336914
1745663529.5217986,-0.22281944751739502,0.08166604489088058,0.07894682884216309,0.4974430501461029,-0.33110612630844116,-9.717916488647461
1745663529.5580928,-0.215092271566391,0.08691016584634781,0.08793644607067108,0.5602678060531616,-0.4608171880245209,-9.335078239440918
1745663529.5602999,-0.22973021864891052,0.08172253519296646,0.09243404120206833,0.6818016767501831,-0.13545438647270203,-9.57309627532959
1745663529.5624924,-0.22058165073394775,0.0822443962097168,0.09859689325094223,0.5928999185562134,-0.1122637540102005,-10.090909957885742
1745663529.5748386,-0.21986515820026398,0.08858226984739304,0.10064420849084854,0.7945324182510376,-0.11191171407699585,-9.766374588012695
1745663529.59952,-0.20352311432361603,0.08469092100858688,0.10904078185558319,0.5124489068984985,0.03459421545267105,-9.51169490814209
1745663529.6031692,-0.2111015021800995,0.07999781519174576,0.11628472805023193,0.719520092010498,0.0073615266010165215,-9.615412712097168
1745663529.6083539,-0.2084144651889801,0.07580091059207916,0.11801792681217194,0.7125627994537354,0.06127263233065605,-9.899213790893555
1745663529.6105843,-0.18573319911956787,0.0874355211853981,0.12433799356222153,0.6757093667984009,0.22816196084022522,-9.803789138793945
1745663529.6140087,-0.19340041279792786,0.06974798440933228,0.12232629954814911,0.8295189142227173,0.2688677906990051,-9.605052947998047
1745663529.6432302,-0.17749714851379395,0.07074494659900665,0.12643490731716156,0.717115581035614,0.23353686928749084,-9.76081657409668
1745663529.6451468,-0.17003533244132996,0.07046280056238174,0.13047942519187927,0.8749321699142456,0.0904783084988594,-9.901249885559082
1745663529.64715,-0.1623176783323288,0.06498070806264877,0.13578560948371887,0.563497006893158,0.09731169790029526,-9.840946197509766
1745663529.649826,-0.16117191314697266,0.06675435602664948,0.1426650583744049,0.7454578280448914,-0.16688181459903717,-9.504459381103516
1745663529.692026,-0.16026587784290314,0.06116316840052605,0.14988090097904205,0.6659500002861023,0.04187556356191635,-9.546130180358887
1745663529.69402,-0.1539839208126068,0.0614372193813324,0.15390710532665253,0.6103846430778503,-0.040109217166900635,-9.922304153442383
1745663529.695007,-0.17082732915878296,0.054215479642152786,0.15644845366477966,0.8106481432914734,-0.027029791846871376,-9.772435188293457
1745663529.6980317,-0.15903113782405853,0.06390886008739471,0.160671204328537,0.5466834902763367,-0.08696424216032028,-9.596741676330566
1745663529.699706,-0.17921166121959686,0.05668432265520096,0.16381622850894928,0.6964523196220398,-0.1708204448223114,-9.502360343933105
1745663529.7419884,-0.19180801510810852,0.04857606440782547,0.16815122961997986,0.638875424861908,-0.13455022871494293,-9.741743087768555
1745663529.7422557,-0.1403682678937912,0.03629360720515251,0.207362100481987,0.8072664141654968,0.09616879373788834,-9.723860740661621
1745663529.7423267,-0.1445382833480835,0.02591099962592125,0.20930393040180206,0.8161603808403015,0.20468389987945557,-9.718429565429688
1745663529.7423673,-0.14665526151657104,0.022466907277703285,0.2126387357711792,0.6702374815940857,0.12815576791763306,-9.791609764099121
1745663529.7836933,-0.155877023935318,0.01703566685318947,0.21574506163597107,0.9139192700386047,-0.07872370630502701,-9.721578598022461
1745663529.7853239,-0.1584474891424179,0.018792493268847466,0.2195703238248825,0.5456651449203491,0.17226864397525787,-9.725517272949219
1745663529.7892582,-0.17363397777080536,0.014446300454437733,0.22301733493804932,0.6635135412216187,-0.06601069867610931,-9.64940357208252
1745663529.7931104,-0.1709788590669632,0.008301977999508381,0.2253696471452713,0.7013449668884277,0.31245023012161255,-9.542841911315918
1745663529.8191907,-0.17089594900608063,0.015071174129843712,0.2288018763065338,0.6185693740844727,0.21096432209014893,-9.818498611450195
1745663529.8211951,-0.1708141416311264,0.0026956084184348583,0.22989456355571747,0.7482901811599731,0.40312832593917847,-9.772297859191895
1745663529.8324509,-0.16177679598331451,0.008533040061593056,0.23247775435447693,0.5939497947692871,0.20922179520130157,-9.646486282348633
1745663529.8325508,-0.15757006406784058,0.008486445061862469,0.23713073134422302,0.7752295732498169,0.2658238708972931,-9.516677856445312
1745663529.8595672,-0.15684261918067932,-0.002782830037176609,0.2399597465991974,0.597148597240448,0.3922364115715027,-9.718996047973633
1745663529.8629637,-0.1537591964006424,0.0022760084830224514,0.24565494060516357,0.7980316281318665,0.21659044921398163,-9.78748893737793
1745663529.8647294,-0.14245283603668213,-0.0014075114158913493,0.2471272200345993,0.6711478233337402,0.5332635641098022,-9.671943664550781
1745663529.8671832,-0.14460386335849762,-0.0034100250340998173,0.24579915404319763,0.6594611406326294,0.3042261004447937,-9.715015411376953
1745663529.8684795,-0.13503572344779968,-0.040501344949007034,0.3041895627975464,0.6122382879257202,0.6007294654846191,-9.728433609008789
1745663529.9036863,-0.13335564732551575,-0.036933451890945435,0.3061731159687042,0.5849772691726685,0.4972809851169586,-9.82390022277832
1745663529.9077778,-0.1358068883419037,-0.04796985909342766,0.3065108060836792,0.6203690767288208,0.6773377656936646,-9.767738342285156
1745663529.915095,-0.1193661242723465,-0.03990978002548218,0.30816081166267395,0.5455824732780457,0.5360628366470337,-9.834111213684082
1745663529.9184918,-0.13069860637187958,-0.04026580601930618,0.311007559299469,0.6295667886734009,0.6023129820823669,-9.717985153198242
1745663529.9461799,-0.1231367364525795,-0.043103259056806564,0.30849459767341614,0.42588600516319275,0.5520519614219666,-9.776756286621094
1745663529.947484,-0.12451958656311035,-0.037533022463321686,0.31316569447517395,0.7437732815742493,0.5052921175956726,-9.685019493103027
1745663529.9522698,-0.12957245111465454,-0.042828597128391266,0.31147122383117676,0.5750976204872131,0.6752005815505981,-9.876338005065918
1745663529.9537613,-0.12075676769018173,-0.04093183949589729,0.3134111762046814,0.6470562815666199,0.5132018327713013,-9.905120849609375
1745663529.9571664,-0.12789073586463928,-0.043233633041381836,0.31555700302124023,0.6427667140960693,0.5869091749191284,-9.710556030273438
1745663529.996993,-0.11701212078332901,-0.032641392201185226,0.318156898021698,0.49452313780784607,0.5561261773109436,-9.736214637756348
1745663529.9971423,-0.12459850311279297,-0.046234436333179474,0.3198755383491516,0.6340359449386597,0.5609092712402344,-9.79730224609375
1745663529.9986787,-0.11417025327682495,-0.03817939758300781,0.32296931743621826,0.4962310791015625,0.6296974420547485,-9.859208106994629
1745663530.0004914,-0.11436973512172699,-0.03459584712982178,0.3231269419193268,0.6575905084609985,0.6191981434822083,-9.779501914978027
1745663530.0312011,-0.12168743461370468,-0.04405618831515312,0.32086217403411865,0.5028449296951294,0.7164239883422852,-9.823098182678223
1745663530.0342436,-0.11297781765460968,-0.039027027785778046,0.32199087738990784,0.6329140663146973,0.41813093423843384,-9.838804244995117
1745663530.0373468,-0.12610383331775665,-0.03827093914151192,0.323859304189682,0.6213966608047485,0.6009728908538818,-9.744363784790039
1745663530.0403535,-0.12738074362277985,-0.037069447338581085,0.3262422978878021,0.45125213265419006,0.49968308210372925,-9.838300704956055
1745663530.0419972,-0.12896858155727386,-0.04377687722444534,0.3271236717700958,0.754905104637146,0.4856761395931244,-9.71668815612793
1745663530.079534,-0.13313964009284973,-0.03454943373799324,0.33087921142578125,0.487659215927124,0.7057041525840759,-9.86598014831543
1745663530.0833,-0.1157769113779068,-0.035827331244945526,0.3375470042228699,0.5085424184799194,0.6314663290977478,-9.679461479187012
1745663530.0865986,-0.1106925830245018,-0.027337634935975075,0.3410941958427429,0.4780365526676178,0.7313933372497559,-9.710663795471191
1745663530.1203034,-0.1181296557188034,-0.028545033186674118,0.3439526855945587,0.6189030408859253,0.6112356185913086,-9.894573211669922
1745663530.1226668,-0.105555459856987,-0.02952723205089569,0.3430508077144623,0.4257972240447998,0.9233517646789551,-9.855958938598633
1745663530.1246874,-0.10968264192342758,-0.02894354984164238,0.3423139452934265,0.6587598919868469,0.6596057415008545,-9.770867347717285
1745663530.1289403,-0.10295622050762177,-0.030909085646271706,0.34235069155693054,0.5098384022712708,0.8409053683280945,-9.78742790222168
1745663530.1330917,-0.10259439796209335,-0.023064935579895973,0.3436524271965027,0.5584853887557983,0.7715865969657898,-9.781123161315918
1745663530.1637793,-0.1091439500451088,-0.03947216272354126,0.34388700127601624,0.6196116209030151,0.5779992341995239,-9.764437675476074
1745663530.1645243,-0.09442321211099625,-0.02166851796209812,0.34602442383766174,0.48593735694885254,0.8502581715583801,-9.779775619506836
1745663530.167384,-0.11448780447244644,-0.026198718696832657,0.3475516438484192,0.5358542203903198,0.6084341406822205,-9.785670280456543
1745663530.1700597,-0.10023096948862076,-0.027764195576310158,0.3477374017238617,0.4715328812599182,0.8558561205863953,-9.696441650390625
1745663530.2034452,-0.10246660560369492,-0.023933956399559975,0.3486423194408417,0.721808910369873,0.7072454690933228,-9.725822448730469
1745663530.2059238,-0.10069213062524796,-0.024667078629136086,0.35030585527420044,0.4345456659793854,0.8626407384872437,-9.940935134887695
1745663530.2097745,-0.09404245764017105,-0.022306013852357864,0.3488036096096039,0.580365777015686,0.8182297945022583,-9.72886848449707
1745663530.2121124,-0.10105190426111221,-0.02746676467359066,0.3506420850753784,0.5930056571960449,0.6749985814094543,-9.673069953918457
1745663530.2155962,-0.08302575349807739,-0.01860933192074299,0.35164645314216614,0.42570623755455017,0.8689863085746765,-9.80848217010498
1745663530.2483122,-0.08633521944284439,-0.02109077386558056,0.3626316487789154,0.5235112309455872,0.9595203399658203,-9.738739013671875
1745663530.2520666,-0.07132138311862946,-0.023170175030827522,0.36418968439102173,0.5436830520629883,0.7945457696914673,-9.768671989440918
1745663530.2566733,-0.08113966882228851,-0.03178858384490013,0.3651219606399536,0.5772086381912231,0.9640569686889648,-9.678377151489258
1745663530.2575643,-0.0671253353357315,-0.01537676714360714,0.3648945093154907,0.4585016667842865,0.955065906047821,-9.740074157714844
1745663530.292439,-0.06620480120182037,-0.0280472282320261,0.36637330055236816,0.5889569520950317,0.9511469006538391,-9.640388488769531
1745663530.295899,-0.06887929141521454,-0.029696529731154442,0.3638233542442322,0.4377630650997162,1.0650737285614014,-9.772705078125
1745663530.2992399,-0.052558474242687225,-0.022029820829629898,0.3652016818523407,0.6786366701126099,0.8104044795036316,-9.787744522094727
1745663530.304223,-0.06741204857826233,-0.023751340806484222,0.36343488097190857,0.41660428047180176,1.0757510662078857,-9.699563980102539
1745663530.3071377,-0.057644736021757126,-0.027932029217481613,0.3633808195590973,0.6400810480117798,0.701421856880188,-9.613856315612793
1745663530.3336327,-0.06350871175527573,-0.03025648556649685,0.3673853278160095,0.6584008932113647,0.9104369878768921,-9.676908493041992
1745663530.3367786,-0.06213619187474251,-0.019661379978060722,0.3663482964038849,0.42811861634254456,0.915113091468811,-9.901062965393066
1745663530.3396158,-0.06369069218635559,-0.03279700502753258,0.36762624979019165,0.6049068570137024,0.7826887369155884,-9.655102729797363
1745663530.3412719,-0.05785301327705383,-0.023881424218416214,0.36803722381591797,0.47496628761291504,1.0552384853363037,-9.534423828125
1745663530.3758595,-0.05794993042945862,-0.022334227338433266,0.368196964263916,0.5726588368415833,0.8138660192489624,-9.809183120727539
1745663530.3771276,-0.05702153965830803,-0.03324638679623604,0.367975115776062,0.4550143778324127,1.125978708267212,-9.842859268188477
1745663530.3801475,-0.04809737950563431,-0.025257160887122154,0.3665739595890045,0.5684238076210022,0.8388960957527161,-9.714637756347656
1745663530.3836446,-0.049314647912979126,-0.029627397656440735,0.36670181155204773,0.5461719632148743,0.914455235004425,-9.598833084106445
1745663530.4181695,-0.05616309121251106,-0.0289330892264843,0.36781829595565796,0.501721978187561,0.9410265684127808,-9.732793807983398
1745663530.4208276,-0.055291615426540375,-0.038182180374860764,0.36740046739578247,0.7083357572555542,0.6788246631622314,-9.794303894042969
1745663530.424119,-0.05222545936703682,-0.022870484739542007,0.3683584928512573,0.4500666558742523,1.0767123699188232,-9.78011417388916
1745663530.4284086,-0.030913125723600388,-0.02925672009587288,0.36991605162620544,0.5460184216499329,0.9517515897750854,-9.602140426635742
1745663530.4624667,-0.05074568837881088,-0.034416235983371735,0.3714897632598877,0.5795543193817139,0.8384477496147156,-9.689591407775879
1745663530.4671307,-0.03797229379415512,-0.04087645560503006,0.3699953854084015,0.39609184861183167,1.0697259902954102,-9.813864707946777
1745663530.4693892,-0.04290684312582016,-0.037336234003305435,0.3701074719429016,0.7263384461402893,0.887610137462616,-9.723304748535156
1745663530.4707508,-0.03624073415994644,-0.038987185806035995,0.3669162392616272,0.3811083734035492,1.082746148109436,-9.75910472869873
1745663530.4732716,-0.03086298331618309,-0.038063228130340576,0.37056511640548706,0.5109007954597473,0.9714380502700806,-9.675832748413086
1745663530.5050907,-0.04606958478689194,-0.04345005005598068,0.36796990036964417,0.5342051982879639,0.8438405990600586,-9.701311111450195
1745663530.50779,-0.020336855202913284,-0.032456301152706146,0.3692449927330017,0.4672304689884186,1.0634559392929077,-9.698126792907715
1745663530.5101411,-0.04376164451241493,-0.042504552751779556,0.3685665428638458,0.5179707407951355,0.898513674736023,-9.807760238647461
1745663530.5134554,-0.024148618802428246,-0.03804409131407738,0.36996081471443176,0.489940881729126,1.0571964979171753,-9.76706600189209
1745663530.5465355,-0.029123971238732338,-0.03797779232263565,0.3701905608177185,0.6701779365539551,0.9239324331283569,-9.640962600708008
1745663530.5499208,-0.027853142470121384,-0.04507463052868843,0.3685510754585266,0.33085715770721436,1.0091524124145508,-9.779233932495117
1745663530.5531478,-0.016806386411190033,-0.04035608470439911,0.3677513897418976,0.577631950378418,0.945348858833313,-9.686010360717773
1745663530.5570488,-0.035099226981401443,-0.039462748914957047,0.3686777353286743,0.47837406396865845,0.8470743298530579,-9.713470458984375
1745663530.559529,-0.0122771505266428,-0.03771163150668144,0.369368314743042,0.47518450021743774,1.0473082065582275,-9.710322380065918
1745663530.5920777,-0.03702544420957565,-0.04743192344903946,0.36771416664123535,0.5598500967025757,0.8955992460250854,-9.817423820495605
1745663530.5949376,-0.030722474679350853,-0.03412599116563797,0.36594340205192566,0.5282233953475952,0.7909526228904724,-9.88674545288086
1745663530.5995774,-0.035987358540296555,-0.03747371584177017,0.365458607673645,0.4791247844696045,1.0071697235107422,-9.585542678833008
1745663530.600692,-0.02627180516719818,-0.026315908879041672,0.36714673042297363,0.3779048025608063,1.04434335231781,-9.612951278686523
1745663530.6402295,-0.031352512538433075,-0.03935890644788742,0.36555472016334534,0.4789253771305084,0.9214612245559692,-9.816255569458008
1745663530.6425374,-0.024058867245912552,-0.02935894764959812,0.3673197329044342,0.38716959953308105,1.1310408115386963,-9.793415069580078
1745663530.6449277,-0.017325159162282944,-0.02975875698029995,0.3667429983615875,0.5641398429870605,0.8984910249710083,-9.670331954956055
1745663530.6605139,-0.022389313206076622,-0.03266182914376259,0.36440590023994446,0.3055531084537506,1.178807258605957,-9.751519203186035
1745663530.6719723,-0.021418800577521324,-0.03348580747842789,0.3655776083469391,0.5923956632614136,0.7658089399337769,-9.756217002868652
1745663530.6800249,-0.020824652165174484,-0.02943612076342106,0.3642858862876892,0.49088162183761597,1.0146498680114746,-9.703364372253418
1745663530.6818123,-0.026505503803491592,-0.02689872309565544,0.36435800790786743,0.32494038343429565,0.9912627935409546,-9.809244155883789
1745663530.6821606,-0.03143357113003731,-0.036771826446056366,0.36338353157043457,0.5696309804916382,0.7863945960998535,-9.690056800842285
1745663530.684416,-0.023417625576257706,-0.021992448717355728,0.3639948070049286,0.3920367658138275,1.1044323444366455,-9.676210403442383
1745663530.7201288,-0.028880417346954346,-0.02495839260518551,0.3650267720222473,0.4701584279537201,0.8518332242965698,-9.814974784851074
1745663530.7245312,-0.022925114259123802,-0.03548656031489372,0.3676348030567169,0.3608704209327698,1.1332353353500366,-9.724077224731445
1745663530.732146,-0.019308486953377724,-0.018143534660339355,0.3661215901374817,0.5730158686637878,0.9260349273681641,-9.64585018157959
1745663530.7402313,-0.01578923501074314,-0.0334477536380291,0.36492639780044556,0.4134916365146637,1.1204530000686646,-9.784112930297852
1745663530.762467,-0.010854186490178108,-0.023815611377358437,0.3641737103462219,0.3626989722251892,1.1330430507659912,-9.907997131347656
1745663530.7664816,-0.01689532957971096,-0.029090996831655502,0.36400359869003296,0.5548829436302185,0.7884293794631958,-9.712994575500488
1745663530.772238,-0.006071892566978931,-0.02025638148188591,0.3630085587501526,0.3335561752319336,1.1487969160079956,-9.50605583190918
1745663530.7766168,-0.026254216209053993,-0.03209271281957626,0.3644026815891266,0.5259515047073364,0.7656461000442505,-9.757095336914062
1745663530.8050137,-0.02667270600795746,-0.02397710643708706,0.36205655336380005,0.45206204056739807,0.8927928805351257,-9.652841567993164
1745663530.8089316,-0.009895817376673222,-0.02432534471154213,0.3609655499458313,0.36766335368156433,1.0520156621932983,-9.849189758300781
1745663530.8147273,-0.012946722097694874,-0.019873857498168945,0.36139577627182007,0.5947120785713196,0.9367433786392212,-9.755990982055664
1745663530.8201976,-0.010600575245916843,-0.01638292893767357,0.3623323440551758,0.2773640751838684,1.1043986082077026,-9.714380264282227
1745663530.823163,-0.004475477151572704,-0.022820651531219482,0.3625270426273346,0.5630103349685669,1.045384168624878,-9.6084623336792
1745663530.8577995,-0.018757324665784836,-0.028014522045850754,0.3590499460697174,0.4642326235771179,0.9313785433769226,-9.859146118164062
1745663530.8579843,0.005492677912116051,-0.01382146030664444,0.35894495248794556,0.4161205291748047,1.0654877424240112,-9.84225845336914
1745663530.8580694,-0.026690399274230003,-0.02508864365518093,0.358651727437973,0.4873746931552887,0.8994892835617065,-9.64502239227295
1745663530.8581293,-0.005030283238738775,-0.024814441800117493,0.358624130487442,0.4382723271846771,0.965583324432373,-9.6078519821167
1745663530.8913295,-0.018128177151083946,-0.01971328631043434,0.35939422249794006,0.6038305163383484,0.8888481259346008,-9.797679901123047
1745663530.8929672,-0.023713504895567894,-0.024892698973417282,0.3573448061943054,0.27848947048187256,0.9822167158126831,-9.930391311645508
1745663530.896149,-0.011098002083599567,-0.020736124366521835,0.35729992389678955,0.5992720127105713,0.9424060583114624,-9.522969245910645
1745663530.8996208,-0.023823361843824387,-0.023103827610611916,0.35901302099227905,0.42030128836631775,1.035646915435791,-9.596224784851074
1745663530.902597,-6.285167910391465e-05,-0.01886768452823162,0.35822415351867676,0.39598017930984497,1.0560015439987183,-9.92003345489502
1745663530.9367137,-0.017717691138386726,-0.02564360573887825,0.3584538996219635,0.5435059666633606,1.0446382761001587,-9.76978588104248
1745663530.9398327,0.006096556782722473,-0.01835956983268261,0.3544764220714569,0.34841135144233704,1.1089389324188232,-9.633790969848633
1745663530.9496124,0.0017012327443808317,-0.03259388357400894,0.35710418224334717,0.44063448905944824,0.8510351181030273,-9.7357816696167
1745663530.951513,0.01312476396560669,-0.028101274743676186,0.35539931058883667,0.4134798049926758,1.0469266176223755,-9.560741424560547
1745663530.9813623,3.424063470447436e-05,-0.024353358894586563,0.35838398337364197,0.5430412292480469,0.770251989364624,-9.710565567016602
1745663530.9824514,0.010287473909556866,-0.028948035091161728,0.35529813170433044,0.295497864484787,1.14833664894104,-9.848483085632324
1745663530.9838302,0.004498760215938091,-0.026584442704916,0.35796257853507996,0.5138681530952454,0.8413240313529968,-9.716078758239746
1745663530.986088,0.00897613912820816,-0.02619834616780281,0.357565313577652,0.3863000273704529,0.9845743179321289,-9.637125968933105
1745663531.0221026,0.005703139118850231,-0.02154703438282013,0.35418879985809326,0.42281264066696167,1.0281833410263062,-9.701982498168945
1745663531.0221431,-0.004855434410274029,-0.037924643605947495,0.3537822961807251,0.4961041510105133,0.8186527490615845,-9.840326309204102
1745663531.0249515,0.01527257077395916,-0.018728487193584442,0.35472336411476135,0.44215402007102966,1.0932567119598389,-9.717127799987793
1745663531.0265086,-0.005538104567676783,-0.02876536175608635,0.3528454601764679,0.4359525144100189,0.8003970980644226,-9.6675443649292
1745663531.0276515,0.009312833659350872,-0.03122805431485176,0.3564196527004242,0.36909428238868713,1.0370326042175293,-9.637718200683594
1745663531.0653465,0.005572984926402569,-0.022955775260925293,0.3570144772529602,0.6031439900398254,0.8641874194145203,-9.715232849121094
1745663531.0672538,0.006804361008107662,-0.02575773373246193,0.35668012499809265,0.3457995057106018,0.9946206212043762,-9.889617919921875
1745663531.068782,0.015238070860505104,-0.024117376655340195,0.3546699583530426,0.4844989776611328,1.1098620891571045,-9.631978034973145
1745663531.0717058,0.002167991828173399,-0.03069428727030754,0.35510507225990295,0.4962749481201172,0.850584864616394,-9.684292793273926
1745663531.107082,0.026095593348145485,-0.02044220082461834,0.352692186832428,0.3402986228466034,1.0859103202819824,-9.792989730834961
1745663531.1094913,-0.002762200776487589,-0.02768646739423275,0.3542171120643616,0.5143704414367676,0.7621886134147644,-9.768630027770996
1745663531.1158476,0.014887848868966103,-0.026770925149321556,0.35271716117858887,0.40942469239234924,0.9665364027023315,-9.626261711120605
1745663531.115968,0.007453674916177988,-0.024055296555161476,0.3550218343734741,0.5513628125190735,0.8829131126403809,-9.73643970489502
1745663531.1495476,-0.0023024273104965687,-0.03191433474421501,0.35388579964637756,0.3230038285255432,0.9127386808395386,-9.861926078796387
1745663531.1518407,0.011953068897128105,-0.023644648492336273,0.35103920102119446,0.5091752409934998,0.9493529200553894,-9.661766052246094
1745663531.1541185,0.000864068977534771,-0.03093641623854637,0.3534267544746399,0.6284266710281372,0.8071082830429077,-9.626543998718262
1745663531.1554885,0.004954587668180466,-0.016873136162757874,0.35622110962867737,0.2960076630115509,1.0311133861541748,-9.771249771118164
1745663531.1580372,0.007259408477693796,-0.029822980985045433,0.35448700189590454,0.5195012092590332,0.8427521586418152,-9.767329216003418
1745663531.1947446,0.004163351841270924,-0.029459798708558083,0.35603517293930054,0.44569024443626404,1.0904076099395752,-9.68525505065918
1745663531.1962767,0.02464226819574833,-0.020381228998303413,0.35480138659477234,0.46372804045677185,0.9885843992233276,-9.772022247314453
1745663531.198136,0.008558990433812141,-0.03003266453742981,0.355262815952301,0.3580731153488159,0.9993593096733093,-9.788867950439453
1745663531.2004843,0.018822064623236656,-0.02548641338944435,0.3528921604156494,0.4546375274658203,0.8310027122497559,-9.669567108154297
1745663531.2361283,0.017865031957626343,-0.02621336653828621,0.3533240854740143,0.5642129778862,0.8581380844116211,-9.616034507751465
1745663531.2383878,0.00437120720744133,-0.02594234049320221,0.35152485966682434,0.22529634833335876,0.9834117889404297,-9.944284439086914
1745663531.2405722,0.012008102610707283,-0.031137194484472275,0.35317403078079224,0.6801701784133911,0.7231674194335938,-9.736870765686035
1745663531.2434251,0.0038389191031455994,-0.02314426563680172,0.35220983624458313,0.40737098455429077,0.9778577089309692,-9.60545539855957
1745663531.246672,0.010294264182448387,-0.02265859581530094,0.35468897223472595,0.42627429962158203,0.800266444683075,-9.788338661193848
1745663531.2804756,0.0019220011308789253,-0.03626847639679909,0.35429009795188904,0.4144826829433441,0.9256223440170288,-9.825488090515137
1745663531.2825263,0.010130209848284721,-0.016888784244656563,0.35511940717697144,0.428201287984848,0.9209214448928833,-9.686206817626953
1745663531.2838843,0.01184825785458088,-0.02798396348953247,0.35441794991493225,0.4733814299106598,0.9418120384216309,-9.61308765411377
1745663531.2883618,-0.0008394254255108535,-0.0343049094080925,0.3538534939289093,0.28925004601478577,0.8220114707946777,-9.885457992553711
1745663531.3243363,0.019582312554121017,-0.027951335534453392,0.3538696765899658,0.543796718120575,0.8756624460220337,-9.743619918823242
1745663531.3253996,-0.00035440921783447266,-0.02432958595454693,0.353262722492218,0.46519094705581665,0.8398693203926086,-9.685060501098633
1745663531.3276236,0.018723169341683388,-0.02477247454226017,0.3550247251987457,0.31351587176322937,0.9469966888427734,-9.738286972045898
1745663531.3321505,0.0017423294484615326,-0.03531651571393013,0.35431352257728577,0.5670351982116699,0.8605774641036987,-9.699395179748535
1745663531.3641505,0.016304094344377518,-0.025211453437805176,0.35413214564323425,0.3228977620601654,0.9592734575271606,-9.908824920654297
1745663531.3672953,0.017696740105748177,-0.02379615232348442,0.35452303290367126,0.46740323305130005,0.8879467248916626,-9.76862907409668
1745663531.370385,0.002709202468395233,-0.034360192716121674,0.35296231508255005,0.3619653284549713,0.8978654742240906,-9.635266304016113
1745663531.372001,0.02716275490820408,-0.027866026386618614,0.35239681601524353,0.5614010095596313,0.855807900428772,-9.643845558166504
1745663531.374127,0.0015631004935130477,-0.029168346896767616,0.3515755236148834,0.38427335023880005,0.9472538828849792,-9.9410982131958
1745663531.4107897,0.018106546252965927,-0.029631957411766052,0.3515588641166687,0.39567095041275024,0.8397911787033081,-9.850601196289062
1745663531.4133162,0.010812871158123016,-0.03131464496254921,0.3528957962989807,0.5940511226654053,0.777612566947937,-9.518975257873535
1745663531.4150913,0.013258504681289196,-0.023923158645629883,0.3518773019313812,0.2750771641731262,0.926327109336853,-9.745038986206055
1745663531.4173284,0.01724008098244667,-0.0335933193564415,0.3543005585670471,0.5140122175216675,0.7507228851318359,-9.89508056640625
1745663531.4527411,0.007764795329421759,-0.030066117644309998,0.3523138463497162,0.3780222535133362,0.9796487092971802,-9.745964050292969
1745663531.4556935,0.02595430240035057,-0.025992339476943016,0.35279226303100586,0.48789089918136597,0.8743280172348022,-9.634013175964355
1745663531.4568446,0.009226133115589619,-0.035029977560043335,0.35197386145591736,0.38533225655555725,0.9679861068725586,-9.787900924682617
1745663531.4596183,0.016499113291502,-0.027837399393320084,0.34951719641685486,0.4266889691352844,0.7748757004737854,-9.867055892944336
1745663531.4930189,0.019004730507731438,-0.03040974773466587,0.35106030106544495,0.5391762852668762,0.8027563095092773,-9.61039924621582
1745663531.496708,0.006347858812659979,-0.026667645201086998,0.35104984045028687,0.22220459580421448,0.9002920389175415,-9.75788688659668
1745663531.5006669,0.013010675087571144,-0.03543739393353462,0.3519430160522461,0.6329084634780884,0.6469004154205322,-9.748208045959473
1745663531.501808,0.010631049051880836,-0.03636997938156128,0.34812992811203003,0.499249130487442,0.8886998891830444,-9.813554763793945
1745663531.5055797,0.009938059374690056,-0.01932789757847786,0.3491925001144409,0.38828837871551514,0.7987346649169922,-9.816339492797852
1745663531.5405445,0.0030230307020246983,-0.038242749869823456,0.349071741104126,0.39098402857780457,0.6783378720283508,-9.61517333984375
1745663531.5427492,0.005163118243217468,-0.031248275190591812,0.3505544662475586,0.4115884304046631,0.8523677587509155,-9.621586799621582
1745663531.54678,-0.003838214324787259,-0.028102999553084373,0.35051625967025757,0.5441257357597351,0.648654580116272,-9.890188217163086
1745663531.5512617,0.0019509386038407683,-0.031642720103263855,0.3499757945537567,0.3235626816749573,1.0321115255355835,-9.815683364868164
1745663531.5812771,-0.004276572726666927,-0.030744139105081558,0.350252628326416,0.49851322174072266,0.751268208026886,-9.698049545288086
1745663531.5849793,-0.0010355021804571152,-0.03228645771741867,0.34743791818618774,0.38847917318344116,0.8654769062995911,-9.701228141784668
1745663531.5866058,-0.002606495749205351,-0.026470918208360672,0.34828704595565796,0.4331582188606262,0.843073844909668,-9.764568328857422
1745663531.5885046,-0.011831486597657204,-0.039355821907520294,0.3462863266468048,0.47083115577697754,0.6823601722717285,-9.797027587890625
1745663531.5911012,0.001004901248961687,-0.022716350853443146,0.34923413395881653,0.3789231777191162,0.9439220428466797,-9.713473320007324
1745663531.6236537,-0.01613468863070011,-0.03077074885368347,0.34830349683761597,0.4644447863101959,0.6789434552192688,-9.668734550476074
1745663531.6270435,-0.007601950317621231,-0.03530784696340561,0.34641358256340027,0.3303164541721344,0.9214991331100464,-9.735113143920898
1745663531.628176,-0.009744887240231037,-0.026513706892728806,0.34990614652633667,0.6104284524917603,0.726077675819397,-9.759618759155273
1745663531.6293342,-0.009529873728752136,-0.02670164778828621,0.3496340215206146,0.2875986695289612,0.8938570022583008,-9.829941749572754
1745663531.66792,-0.028796786442399025,-0.022245828062295914,0.3463841378688812,0.38322049379348755,0.7465143203735352,-9.628162384033203
1745663531.6703548,-0.03700017184019089,-0.03639758378267288,0.34671446681022644,0.380922794342041,0.8936693072319031,-9.74113941192627
1745663531.672613,-0.02494383417069912,-0.018053654581308365,0.3468967080116272,0.4792700409889221,0.8850070834159851,-9.835334777832031
1745663531.680998,-0.026286344975233078,-0.0297097060829401,0.3437005877494812,0.4383227825164795,0.9549137353897095,-9.772356033325195
1745663531.711291,-0.023724500089883804,-0.02877204492688179,0.34357017278671265,0.2570686936378479,1.0461280345916748,-9.765019416809082
1745663531.7170925,-0.02110617235302925,-0.03058684431016445,0.3427305817604065,0.5680862665176392,0.7029452919960022,-9.708760261535645
1745663531.7206292,-0.02129434049129486,-0.02378230169415474,0.34317082166671753,0.27637577056884766,1.0715081691741943,-9.73011302947998
1745663531.7214148,-0.027644705027341843,-0.02983778715133667,0.34180203080177307,0.4551078677177429,0.6398264169692993,-9.75760555267334
1745663531.7523832,-0.023998571559786797,-0.03197012096643448,0.3440179228782654,0.4740046560764313,0.9276679754257202,-9.674306869506836
1745663531.7549837,-0.020710553973913193,-0.020403480157256126,0.34350213408470154,0.4338144361972809,0.9324496388435364,-9.847753524780273
1745663531.7559812,-0.02683611772954464,-0.03376201167702675,0.34192320704460144,0.40951424837112427,0.8174182772636414,-9.850005149841309
1745663531.7590578,-0.012078667059540749,-0.02809877321124077,0.3430091440677643,0.3749278783798218,0.963516891002655,-9.603558540344238
1745663531.7952495,-0.02212025783956051,-0.0231301449239254,0.3462449908256531,0.49465060234069824,0.722213625907898,-9.643579483032227
1745663531.7965417,-0.012504780665040016,-0.03237496316432953,0.34275931119918823,0.25871533155441284,1.0372532606124878,-9.780916213989258
1745663531.8004797,-0.017620505765080452,-0.029684539884328842,0.34478652477264404,0.47431039810180664,0.7493037581443787,-9.866317749023438
1745663531.8036666,-0.01292109489440918,-0.025686636567115784,0.3447466194629669,0.3646201193332672,0.938755989074707,-9.720808029174805
1745663531.8060863,-0.01165300328284502,-0.02107733115553856,0.3415845036506653,0.40647539496421814,0.9495135545730591,-9.6068754196167
1745663531.8620844,-0.023345015943050385,-0.04053666442632675,0.3400072753429413,0.46966615319252014,0.7324420809745789,-9.804841995239258
1745663531.8621583,-0.0034482728224247694,-0.020788516849279404,0.34226924180984497,0.4044647216796875,0.957635223865509,-9.795880317687988
1745663531.8622653,-0.02783452346920967,-0.02654869481921196,0.3431856036186218,0.37582454085350037,0.6812421083450317,-9.717836380004883
1745663531.862334,-0.014843033626675606,-0.03162025660276413,0.3426990509033203,0.3010786175727844,0.8971166610717773,-9.604264259338379
1745663531.881894,-0.01918453723192215,-0.03019772469997406,0.34175220131874084,0.29264530539512634,0.8729259371757507,-9.943845748901367
1745663531.8852513,-0.005147760268300772,-0.02535785175859928,0.3409060835838318,0.5040022730827332,0.8483182191848755,-9.795697212219238
1745663531.88892,-0.015456077642738819,-0.02108822762966156,0.3389665484428406,0.4272434115409851,0.8642022013664246,-9.544377326965332
1745663531.8916373,-0.003219952806830406,-0.019443444907665253,0.34153908491134644,0.2484520971775055,0.9238494634628296,-9.676658630371094
1745663531.8953865,-0.015790635719895363,-0.034456830471754074,0.3424302935600281,0.5003763437271118,0.8676561117172241,-9.799361228942871
1745663531.9279907,0.0015325697604566813,-0.018692146986722946,0.33944445848464966,0.27830302715301514,1.0180413722991943,-9.936830520629883
1745663531.9437602,0.0025272206403315067,-0.017380882054567337,0.33991196751594543,0.42355433106422424,0.8888568878173828,-9.632896423339844
1745663531.9438806,-0.009822925552725792,-0.029591482132673264,0.3388281464576721,0.31764698028564453,0.9634140133857727,-9.59153938293457
1745663531.9439504,0.013909679837524891,-0.021907556802034378,0.3386034369468689,0.5394745469093323,0.8168057203292847,-9.739934921264648
1745663531.9705377,-0.011519248597323895,-0.020467065274715424,0.33811652660369873,0.34498530626296997,0.8837496042251587,-9.949440002441406
1745663531.9748948,0.0015981694450601935,-0.02360404282808304,0.3374808430671692,0.331341028213501,0.7663037180900574,-9.755986213684082
1745663531.980161,-0.0037866514176130295,-0.02791784703731537,0.3407973349094391,0.5789026021957397,0.7642694711685181,-9.458881378173828
1745663531.9828346,-0.006185339298099279,-0.01504277903586626,0.34034106135368347,0.2499864101409912,0.9821068644523621,-9.843832015991211
1745663532.0116603,-0.0009443545714020729,-0.026280319318175316,0.33974355459213257,0.4707636833190918,0.7938939929008484,-9.945005416870117
1745663532.013043,-0.00662899250164628,-0.025396937504410744,0.3380674421787262,0.3637893795967102,1.0502021312713623,-9.620183944702148
1745663532.0155275,0.010858039371669292,-0.020501092076301575,0.3316357731819153,0.24808411300182343,0.919680118560791,-9.597505569458008
1745663532.0193832,0.019044777378439903,-0.018033286556601524,0.3360542356967926,0.5536789894104004,0.7321395874023438,-9.680061340332031
1745663532.0235445,0.0025005624629557133,-0.011749415658414364,0.33357205986976624,0.27319636940956116,0.8504001498222351,-9.929472923278809
1745663532.055376,0.02339419722557068,-0.012956765480339527,0.33461442589759827,0.3677957057952881,0.9163450002670288,-9.699474334716797
1745663532.0576007,0.0052531082183122635,-0.025543641299009323,0.33300238847732544,0.4558790624141693,0.7488155961036682,-9.611933708190918
1745663532.0590236,0.026807408779859543,-0.007705445401370525,0.334328293800354,0.28220924735069275,0.9332799911499023,-9.841900825500488
1745663532.0605106,0.008995776064693928,-0.015048523433506489,0.333879292011261,0.43572402000427246,0.8037910461425781,-9.7947998046875
1745663532.1026576,0.018085379153490067,-0.01822296716272831,0.33238089084625244,0.3200957775115967,0.8285377621650696,-9.678396224975586
1745663532.102764,0.023048045113682747,-0.010257579386234283,0.33435654640197754,0.5786002278327942,0.8178418278694153,-9.630316734313965
1745663532.1059494,0.004728288389742374,-0.019903406500816345,0.332931250333786,0.2563225328922272,0.827475368976593,-9.955056190490723
1745663532.109419,0.026225149631500244,-0.013735863380134106,0.3323529362678528,0.4001322388648987,0.7844881415367126,-9.765515327453613
1745663532.1108916,0.007564537227153778,-0.014311728999018669,0.33593326807022095,0.504036545753479,0.7502121925354004,-9.514094352722168
1745663532.144655,0.02293531224131584,-0.00896468199789524,0.3341634273529053,0.2548999488353729,0.8254233598709106,-9.781257629394531
1745663532.1482823,0.01019378937780857,-0.021230116486549377,0.33564943075180054,0.5296838879585266,0.8010719418525696,-9.828506469726562
1745663532.1502311,0.017533287405967712,-0.013731151819229126,0.3339522182941437,0.3199857771396637,0.900610625743866,-9.819622039794922
1745663532.1503146,0.028853822499513626,-0.009272157214581966,0.33487468957901,0.4832432270050049,0.8273369073867798,-9.631892204284668
1745663532.1863203,0.0067117600701749325,-0.01974440924823284,0.3336804509162903,0.28722792863845825,0.8900154232978821,-9.769516944885254
1745663532.1925468,0.03276874125003815,-0.014776865020394325,0.33166271448135376,0.4640371799468994,0.7600023150444031,-9.756423950195312
1745663532.1926055,0.011368845589458942,-0.013442926108837128,0.3330562710762024,0.38374707102775574,0.8185409307479858,-9.765538215637207
1745663532.1974194,0.021083591505885124,-0.013161878101527691,0.33212441205978394,0.24143722653388977,0.7684049606323242,-9.727240562438965
1745663532.2029557,0.018318969756364822,-0.019497951492667198,0.33409109711647034,0.5726838707923889,0.6746088266372681,-9.595453262329102
1745663532.2272089,0.014750744216144085,-0.019993025809526443,0.334604412317276,0.4603807032108307,0.6358020305633545,-9.877409934997559
1745663532.2294388,0.0151594877243042,-0.017287934198975563,0.3354695439338684,0.3850080668926239,0.880831241607666,-9.635818481445312
1745663532.2316768,0.022222010418772697,-0.007723692804574966,0.3366914391517639,0.40783238410949707,0.7533844709396362,-9.641559600830078
1745663532.2350025,0.01553703285753727,-0.022663649171590805,0.3366149365901947,0.35284674167633057,0.7152233123779297,-9.844606399536133
1745663532.2723212,0.02437634952366352,-0.012526700273156166,0.3380957543849945,0.39121150970458984,0.8366290926933289,-9.787731170654297
1745663532.2757795,0.02219787798821926,-0.014564389362931252,0.3385520875453949,0.44405800104141235,0.7138553857803345,-9.71339225769043
1745663532.278909,0.018363475799560547,-0.013753948733210564,0.3383796811103821,0.20321595668792725,0.9246479272842407,-9.784829139709473
1745663532.2831225,0.01585574820637703,-0.017026137560606003,0.33539777994155884,0.5299556255340576,0.5271393060684204,-9.738898277282715
1745663532.3131588,0.019330820068717003,-0.015445983037352562,0.3386680483818054,0.3128851056098938,0.8261256217956543,-9.69306468963623
1745663532.3166633,0.008290247991681099,-0.012250885367393494,0.3367043435573578,0.3479904532432556,0.6511523723602295,-9.813133239746094
1745663532.3196704,0.004877110011875629,-0.024439994245767593,0.34034815430641174,0.4708033502101898,0.6526324152946472,-9.787121772766113
1745663532.3221467,0.012449574656784534,-0.007278705947101116,0.34001246094703674,0.37412315607070923,0.8263928294181824,-9.740972518920898
1745663532.3554296,0.0014767724787816405,-0.01639757677912712,0.3404964804649353,0.38655921816825867,0.6290227174758911,-9.78701400756836
1745663532.3597696,0.014098012819886208,-0.01947508007287979,0.3412783741950989,0.32701393961906433,0.9093639254570007,-9.674846649169922
1745663532.3638628,0.005872015841305256,-0.013359853997826576,0.3414594531059265,0.553152859210968,0.6558932065963745,-9.718329429626465
1745663532.3672705,-0.002729483414441347,-0.0176713727414608,0.34541887044906616,0.2099730670452118,0.8135188221931458,-9.792718887329102
1745663532.373366,0.0015278492355719209,-0.02867758646607399,0.3452456295490265,0.4963300824165344,0.6850172281265259,-9.683095932006836
1745663532.3988354,-6.048306750017218e-05,-0.01686207391321659,0.34675994515419006,0.3275226950645447,0.8995791673660278,-9.763236045837402
1745663532.3999596,0.007680399809032679,-0.017283007502555847,0.34762629866600037,0.3952835202217102,0.6190991401672363,-9.871217727661133
1745663532.4024901,-0.0027575455605983734,-0.027086149901151657,0.3447388708591461,0.33864641189575195,0.8806087374687195,-9.66011905670166
1745663532.4038477,0.004124642815440893,-0.01870596408843994,0.34298425912857056,0.458782821893692,0.655837893486023,-9.719704627990723
1745663532.4413476,-0.0023645858746021986,-0.0251567754894495,0.34559980034828186,0.4082225263118744,0.7258145213127136,-9.85185432434082
1745663532.444377,-0.007703704293817282,-0.018260108307003975,0.3443443179130554,0.26064157485961914,0.7469832897186279,-9.843232154846191
1745663532.4479022,-0.008225949481129646,-0.026878297328948975,0.344016969203949,0.564292848110199,0.5167821049690247,-9.569528579711914
1745663532.4513028,-0.015828656032681465,-0.019006919115781784,0.3458079695701599,0.2989695966243744,0.889738917350769,-9.703710556030273
1745663532.4540436,-0.01656583696603775,-0.02610708400607109,0.3443799912929535,0.4460904002189636,0.5360339879989624,-9.960787773132324
1745663532.4857993,-0.017195455729961395,-0.026124143972992897,0.34649235010147095,0.3504752516746521,0.857393741607666,-9.755149841308594
1745663532.4883544,-0.011182999238371849,-0.014256197027862072,0.3472934365272522,0.41338950395584106,0.7622379064559937,-9.599035263061523
1745663532.4919453,-0.016485093161463737,-0.03262532874941826,0.3456452190876007,0.35980865359306335,0.7367849349975586,-9.76563835144043
1745663532.4962215,-0.008217144757509232,-0.023817693814635277,0.3442007899284363,0.3734608590602875,0.878324031829834,-9.833783149719238
1745663532.5257254,-0.010277698747813702,-0.02349613420665264,0.34335747361183167,0.43717581033706665,0.6935853362083435,-9.819254875183105
1745663532.5295215,-0.005781499203294516,-0.021579554304480553,0.34406036138534546,0.2303457260131836,0.8944801092147827,-9.63499641418457
1745663532.533126,-0.016398537904024124,-0.025820638984441757,0.3432188630104065,0.5255283117294312,0.522286057472229,-9.615079879760742
1745663532.536103,-0.013821372762322426,-0.029111508280038834,0.3435235917568207,0.40087956190109253,0.7999283671379089,-9.819361686706543
1745663532.5400102,-0.018032029271125793,-0.01803562603890896,0.3442513346672058,0.3710581660270691,0.7138091325759888,-9.971689224243164
1745663532.574737,-0.025987625122070312,-0.03184141591191292,0.3436526954174042,0.413921058177948,0.6826631426811218,-9.749135971069336
1745663532.5783365,-0.04067758470773697,-0.03303249925374985,0.3439071774482727,0.3896486163139343,0.5976728200912476,-9.687448501586914
1745663532.5826936,-0.023496290668845177,-0.029694458469748497,0.3453279435634613,0.38578376173973083,0.7934178709983826,-9.827776908874512
1745663532.587562,-0.03328227251768112,-0.024370601400732994,0.3453604578971863,0.5637121200561523,0.6460229158401489,-9.809425354003906
1745663532.6176615,-0.029753942042589188,-0.02832452952861786,0.34618914127349854,0.2223823517560959,0.8813115358352661,-9.78285026550293
1745663532.6201844,-0.0232175774872303,-0.029372811317443848,0.346145898103714,0.44826894998550415,0.7430647611618042,-9.634150505065918
1745663532.620845,-0.03531845286488533,-0.030982479453086853,0.3458738625049591,0.38727226853370667,0.759397029876709,-9.734920501708984
1745663532.6226618,-0.0138033926486969,-0.02428322657942772,0.34849902987480164,0.3433378338813782,0.7882793545722961,-9.798757553100586
1745663532.657591,-0.036875270307064056,-0.03366749733686447,0.34541213512420654,0.3567594885826111,0.7094773054122925,-9.788423538208008
1745663532.6594994,-0.02344295009970665,-0.025972653180360794,0.34704911708831787,0.2993336021900177,0.7200642824172974,-9.71967601776123
1745663532.6631484,-0.030974160879850388,-0.02881198562681675,0.3465145528316498,0.5271275639533997,0.7272959351539612,-9.624618530273438
1745663532.6667907,-0.044118937104940414,-0.03329165279865265,0.34538453817367554,0.2226928174495697,0.7712881565093994,-9.907209396362305
1745663532.6997435,-0.028868313878774643,-0.030729126185178757,0.3462589979171753,0.5435987710952759,0.6813681721687317,-9.787845611572266
1745663532.7030761,-0.0480680875480175,-0.028224408626556396,0.3444839119911194,0.3418949544429779,0.797603964805603,-9.66666316986084
1745663532.706681,-0.03803529590368271,-0.029917418956756592,0.34570735692977905,0.30958208441734314,0.6911903619766235,-9.707590103149414
1745663532.7115362,-0.0485626645386219,-0.0384787991642952,0.3473294675350189,0.5001854300498962,0.6761950254440308,-9.72224235534668
1745663532.716334,-0.0389607772231102,-0.024968381971120834,0.34940212965011597,0.41246262192726135,0.7776876091957092,-9.733715057373047
1745663532.7449346,-0.028152450919151306,-0.028273817151784897,0.35309380292892456,0.21260297298431396,0.8876686096191406,-9.828364372253418
1745663532.7536142,-0.036666709929704666,-0.03244781121611595,0.3504485785961151,0.5334756970405579,0.6965070366859436,-9.683311462402344
1745663532.7536924,-0.032779622822999954,-0.0280155036598444,0.35191044211387634,0.23413124680519104,0.8456625938415527,-9.796351432800293
1745663532.7555387,-0.0319218784570694,-0.024011999368667603,0.35235220193862915,0.3820033073425293,0.7992875576019287,-9.76722240447998
1745663532.7864056,-0.05084850639104843,-0.0343303456902504,0.35171741247177124,0.3476296067237854,0.8057085275650024,-9.681836128234863
1745663532.7883513,-0.024707505479454994,-0.023808863013982773,0.3499293625354767,0.4119446873664856,0.9102011919021606,-9.708236694335938
1745663532.7912102,-0.04724985733628273,-0.028185943141579628,0.35000044107437134,0.32490020990371704,0.8589849472045898,-9.898280143737793
1745663532.7990282,-0.02947852574288845,-0.02832166850566864,0.35063299536705017,0.2873554527759552,0.8451681137084961,-9.779226303100586
1745663532.8289135,-0.032409582287073135,-0.027434244751930237,0.35066166520118713,0.5198255777359009,0.7446243762969971,-9.523658752441406
1745663532.832196,-0.03313276916742325,-0.02565736137330532,0.3531690239906311,0.1732940971851349,0.9304682612419128,-9.834595680236816
1745663532.8326154,-0.022883322089910507,-0.02668726071715355,0.3556451201438904,0.4244895875453949,0.7731913328170776,-9.855948448181152
1745663532.834195,-0.03596505522727966,-0.026824558153748512,0.3523922860622406,0.3765447735786438,0.911908745765686,-9.647629737854004
1745663532.83705,-0.01158691942691803,-0.023492183536291122,0.3543025553226471,0.388125479221344,0.9163990020751953,-9.658929824829102
1745663532.8790138,-0.034545961767435074,-0.032965559512376785,0.3515179455280304,0.3382895588874817,0.8646645545959473,-9.918700218200684
1745663532.8807945,-0.025912564247846603,-0.023400219157338142,0.3508915305137634,0.31312280893325806,0.77266925573349,-9.862591743469238
1745663532.884674,-0.029297783970832825,-0.025987321510910988,0.3521263301372528,0.47796034812927246,0.7569459080696106,-9.531118392944336
1745663532.8925214,-0.04089660197496414,-0.029430557042360306,0.3527407944202423,0.1821279227733612,0.8420483469963074,-9.751154899597168
1745663532.9144924,-0.03277630731463432,-0.030047833919525146,0.3544462323188782,0.5352617502212524,0.6932498216629028,-9.901313781738281
1745663532.9194906,-0.04085307568311691,-0.020520493388175964,0.3527972996234894,0.3288327753543854,0.9534446001052856,-9.790525436401367
1745663532.9222357,-0.030523240566253662,-0.021067723631858826,0.35454076528549194,0.30095404386520386,0.8075606226921082,-9.639140129089355
1745663532.9263504,-0.0360223762691021,-0.03787477687001228,0.3525086045265198,0.43234720826148987,0.8603742718696594,-9.63003921508789
1745663532.9292345,-0.029444554820656776,-0.027517125010490417,0.35171908140182495,0.4606262147426605,0.8550145030021667,-9.626019477844238
1745663532.9654667,-0.032651953399181366,-0.017083266749978065,0.35334277153015137,0.2859176993370056,0.8474537134170532,-9.73271656036377
1745663532.9664023,-0.03917234390974045,-0.032561592757701874,0.3542543649673462,0.3628915846347809,0.6654442548751831,-9.798757553100586
1745663532.967486,-0.03331369906663895,-0.021610211580991745,0.35551023483276367,0.2953859269618988,0.9519680738449097,-9.70809268951416
1745663532.9676242,-0.03627600520849228,-0.015807202085852623,0.355318158864975,0.4270337224006653,0.7293805480003357,-9.695178031921387
1745663533.0132556,-0.03513198345899582,-0.02738698199391365,0.3559563159942627,0.2458055019378662,1.0376349687576294,-9.746230125427246
1745663533.0238233,-0.028312820941209793,-0.02431953325867653,0.3542581796646118,0.41872483491897583,0.8186348080635071,-9.849996566772461
1745663533.0258293,-0.0338621512055397,-0.02194615639746189,0.35574963688850403,0.3276602625846863,0.845495879650116,-9.802778244018555
1745663533.0294821,-0.029971307143568993,-0.016078099608421326,0.35473042726516724,0.2568883001804352,0.921707034111023,-9.63681697845459
1745663533.0295515,-0.042029038071632385,-0.029890060424804688,0.3555416166782379,0.4504012167453766,0.6581010818481445,-9.640764236450195
1745663533.0436385,-0.02848416194319725,-0.018186885863542557,0.35563451051712036,0.351240873336792,1.0189449787139893,-9.84257984161377
1745663533.045248,-0.04280063882470131,-0.020115194842219353,0.35469648241996765,0.44529277086257935,0.8078275918960571,-9.926923751831055
1745663533.047403,-0.03282959759235382,-0.026560494676232338,0.35503846406936646,0.25114211440086365,1.0218284130096436,-9.678838729858398
1745663533.04912,-0.026433974504470825,-0.021294763311743736,0.3543117046356201,0.43196383118629456,0.8436771631240845,-9.54014778137207
1745663533.0902717,-0.01995277963578701,-0.008963514119386673,0.3527194857597351,0.38710135221481323,0.8251757621765137,-9.666864395141602
1745663533.0923214,-0.0325009822845459,-0.027301762253046036,0.35305991768836975,0.3749648332595825,0.7820107340812683,-9.768444061279297
1745663533.0944984,-0.027305055409669876,-0.020816687494516373,0.35474979877471924,0.37619495391845703,0.9254137873649597,-9.74647045135498
1745663533.0959034,-0.030736595392227173,-0.021011609584093094,0.3520645499229431,0.433772474527359,0.7933495044708252,-9.812192916870117
1745663533.1324937,-0.03202270343899727,-0.017315305769443512,0.3538576662540436,0.1634281575679779,1.0684467554092407,-9.758015632629395
1745663533.1325982,-0.03707108646631241,-0.025209998711943626,0.35211268067359924,0.4736272394657135,0.7067680358886719,-9.610536575317383
1745663533.1345544,-0.03226165473461151,-0.023341942578554153,0.3506755828857422,0.30990177392959595,1.0339245796203613,-9.68254280090332
1745663533.1370678,-0.03678033500909805,-0.014374606311321259,0.3507625460624695,0.272291362285614,0.9221151471138,-9.869729042053223
1745663533.1724565,-0.04156699404120445,-0.029698137193918228,0.3503340780735016,0.43260878324508667,0.8225216865539551,-9.736437797546387
1745663533.176303,-0.02611914649605751,-0.01657501608133316,0.35161513090133667,0.3961103558540344,0.97991544008255,-9.590173721313477
1745663533.1812584,-0.04079938679933548,-0.019313793629407883,0.35206368565559387,0.38736188411712646,0.794475793838501,-9.790544509887695
1745663533.1840134,-0.025872815400362015,-0.023353705182671547,0.3530312478542328,0.24889197945594788,1.0721125602722168,-9.783355712890625
1745663533.187896,-0.026262614876031876,-0.01930505596101284,0.35447579622268677,0.5867592692375183,0.912808895111084,-9.599672317504883
1745663533.2227793,-0.019587624818086624,-0.022277886047959328,0.3544453978538513,0.24657423794269562,1.1432857513427734,-9.789718627929688
1745663533.2229316,-0.014597557485103607,-0.021241316571831703,0.34904712438583374,0.31397104263305664,1.0552127361297607,-9.891157150268555
1745663533.2236788,-0.024487022310495377,-0.026138165965676308,0.3488962650299072,0.3858151137828827,0.8335138559341431,-9.679656982421875
1745663533.2252388,-0.0037779174745082855,-0.017678573727607727,0.3501698076725006,0.3191179633140564,1.0431864261627197,-9.517204284667969
1745663533.2606173,-0.029527902603149414,-0.029428094625473022,0.3490367829799652,0.3946998417377472,0.7238264083862305,-9.857287406921387
1745663533.264388,-0.01644045114517212,-0.025130370631814003,0.34964823722839355,0.3562813699245453,0.8779492378234863,-9.89656925201416
1745663533.2679224,-0.0237894244492054,-0.015948716551065445,0.3516949713230133,0.562576174736023,0.744942307472229,-9.586169242858887
1745663533.273945,-0.0323285348713398,-0.02539367415010929,0.3516762852668762,0.23710975050926208,0.9156011343002319,-9.683923721313477
1745663533.3053455,-0.005349345505237579,-0.025149594992399216,0.35136547684669495,0.5658235549926758,0.9015251398086548,-9.648667335510254
1745663533.3071835,-0.028333619236946106,-0.0229102224111557,0.3514539301395416,0.32282254099845886,0.9147579073905945,-9.882989883422852
1745663533.3105109,-0.008118489757180214,-0.022303352132439613,0.353455126285553,0.24719572067260742,0.9048892259597778,-9.715352058410645
1745663533.314175,-0.018351588398218155,-0.030501753091812134,0.35477763414382935,0.5404756665229797,0.9235909581184387,-9.451339721679688
1745663533.347588,-0.011020902544260025,-0.01893669180572033,0.35328492522239685,0.2459375411272049,1.0165302753448486,-9.877439498901367
1745663533.3495286,-0.004656723700463772,-0.027223611250519753,0.3518061935901642,0.4782448709011078,0.9546883702278137,-9.921134948730469
1745663533.3523138,-0.016702327877283096,-0.02788950875401497,0.35042768716812134,0.22279119491577148,1.0152002573013306,-9.727882385253906
1745663533.353678,0.0026812530122697353,-0.0208462942391634,0.35088151693344116,0.45058855414390564,0.8105972409248352,-9.554834365844727
1745663533.355559,-0.023236598819494247,-0.03145671635866165,0.3506792187690735,0.3573325574398041,0.875724196434021,-9.728901863098145
1745663533.391798,-0.010061918757855892,-0.029365282505750656,0.3531072735786438,0.3632344603538513,0.7819532752037048,-9.940256118774414
1745663533.3960583,-0.01717904955148697,-0.025699907913804054,0.3504963517189026,0.4931085705757141,0.8427756428718567,-9.700113296508789
1745663533.3987164,-0.022873498499393463,-0.024978432804346085,0.3514603078365326,0.1836056411266327,0.9974767565727234,-9.690610885620117
1745663533.399744,-0.014681464061141014,-0.03441210463643074,0.3534674644470215,0.5004567503929138,0.7817649841308594,-9.63525676727295
1745663533.431313,-0.021474726498126984,-0.02851513959467411,0.35255181789398193,0.2986326217651367,1.0637832880020142,-9.759248733520508
1745663533.433191,-0.00967499427497387,-0.019947689026594162,0.35208022594451904,0.3533586859703064,0.8438703417778015,-9.805261611938477
1745663533.4364011,0.004793657921254635,-0.025762667879462242,0.3525959849357605,0.512556254863739,0.7738956212997437,-9.511518478393555
1745663533.438642,-0.011228232644498348,-0.031119409948587418,0.35268351435661316,0.2502581775188446,0.8701362609863281,-9.745073318481445
1745663533.4396353,0.004950600676238537,-0.027987491339445114,0.3547578752040863,0.3333851993083954,0.881924033164978,-9.916831970214844
1745663533.4760194,-0.012766093015670776,-0.03192735090851784,0.3524589538574219,0.4928302764892578,0.8431423902511597,-9.740579605102539
1745663533.4779391,0.006799438036978245,-0.025747472420334816,0.3533647656440735,0.24407131969928741,1.0442432165145874,-9.673517227172852
1745663533.4814625,-0.005806927569210529,-0.03247348591685295,0.3535553514957428,0.4141736924648285,0.8649959564208984,-9.757749557495117
1745663533.4853423,-0.0064375801011919975,-0.032675255089998245,0.3529706597328186,0.2702854573726654,0.9403632879257202,-9.839265823364258
1745663533.5177512,0.009576888754963875,-0.024793630465865135,0.35020241141319275,0.4524003565311432,0.9130426645278931,-9.638164520263672
1745663533.518885,-0.014615264721214771,-0.03162480518221855,0.3544773459434509,0.2094409167766571,0.9469836354255676,-9.721376419067383
1745663533.521308,0.008217435330152512,-0.030882015824317932,0.3524724245071411,0.46368369460105896,0.9401604533195496,-9.777474403381348
1745663533.5246706,-0.0016540627693757415,-0.02862892672419548,0.3532527983188629,0.4795553684234619,0.9526233673095703,-9.794174194335938
1745663533.5595329,0.01041296124458313,-0.02333882451057434,0.35313472151756287,0.1818709671497345,1.041562795639038,-9.800394058227539
1745663533.5615535,0.006167891435325146,-0.03478959947824478,0.3533230423927307,0.4825032353401184,0.8293212056159973,-9.615388870239258
1745663533.5637343,0.005826324224472046,-0.026735777035355568,0.35361772775650024,0.31744369864463806,0.9307625889778137,-9.695926666259766
1745663533.5674229,0.014734013006091118,-0.02581954002380371,0.35369187593460083,0.4464661478996277,0.8781313896179199,-9.827929496765137
1745663533.5674698,-0.0017884711269289255,-0.03212551772594452,0.3542334735393524,0.22227470576763153,0.9504339098930359,-9.889482498168945
1745663533.6059015,0.015049576759338379,-0.024063091725111008,0.3531063497066498,0.4378891885280609,0.8279053568840027,-9.612832069396973
1745663533.6091983,-0.00449567474424839,-0.029423082247376442,0.35304445028305054,0.41166916489601135,0.9142524003982544,-9.614298820495605
1745663533.610459,0.0006455268012359738,-0.032028116285800934,0.3542204797267914,0.24780552089214325,0.8744938969612122,-9.898416519165039
1745663533.6147811,-0.0005241541075520217,-0.029807914048433304,0.35345137119293213,0.5456023216247559,0.776881217956543,-9.786479949951172
1745663533.6467276,-0.004959616344422102,-0.019741099327802658,0.353455513715744,0.2349398136138916,0.9990194439888,-9.710281372070312
1745663533.65099,-0.0005009357118979096,-0.02546733058989048,0.35341334342956543,0.37689441442489624,1.0081853866577148,-9.643986701965332
1745663533.6538827,-0.004283469170331955,-0.021210957318544388,0.3533879220485687,0.32100385427474976,0.8701267242431641,-9.870757102966309
1745663533.6581452,-0.006573431193828583,-0.03424888104200363,0.3553658425807953,0.38408246636390686,0.8352794647216797,-9.77821159362793
1745663533.6903644,0.0025853884872049093,-0.018379418179392815,0.3543950319290161,0.3305913805961609,0.9692630767822266,-9.609747886657715
1745663533.6932878,-0.004967366810888052,-0.024534668773412704,0.3568291962146759,0.3836159110069275,0.7487673759460449,-9.738000869750977
1745663533.6936867,0.0005141820874996483,-0.028620127588510513,0.35593774914741516,0.26909202337265015,1.1378257274627686,-9.826505661010742
1745663533.6958175,-0.0014756706077605486,-0.0246871467679739,0.35232871770858765,0.4954642355442047,0.7675030827522278,-9.85755729675293
1745663533.6992092,0.0066776638850569725,-0.023157689720392227,0.3537517488002777,0.2628982663154602,1.0625654458999634,-9.758210182189941
1745663533.7340493,-0.0017668245127424598,-0.023980937898159027,0.35323596000671387,0.34919899702072144,0.8647772073745728,-9.644721031188965
1745663533.7352731,-0.0029025934636592865,-0.032166559249162674,0.35424214601516724,0.46184858679771423,0.7424793243408203,-9.637288093566895
1745663533.7386084,-0.0010938964551314712,-0.01653076335787773,0.35491782426834106,0.3608146607875824,0.9756981134414673,-9.852066993713379
1745663533.7415473,-0.016993433237075806,-0.030254211276769638,0.355058491230011,0.4011761248111725,0.7049272656440735,-9.90803050994873
1745663533.7773013,-0.004723058082163334,-0.02524855174124241,0.3554089069366455,0.32920029759407043,1.062562346458435,-9.61884880065918
1745663533.7858508,-0.01017595361918211,-0.019327344372868538,0.3572353720664978,0.5374390482902527,0.8183503150939941,-9.640807151794434
1745663533.7864287,-0.004516663029789925,-0.026383858174085617,0.35509219765663147,0.22547277808189392,1.029467225074768,-9.891764640808105
1745663533.7915726,-0.010798349045217037,-0.01801043562591076,0.3555312752723694,0.30531617999076843,1.043661117553711,-9.773812294006348
1745663533.7958407,-0.002190002705901861,-0.022816304117441177,0.3559008538722992,0.361448734998703,0.8389514684677124,-9.774927139282227
1745663533.8213568,-0.004389571957290173,-0.033135127276182175,0.35886532068252563,0.35328203439712524,1.0222657918930054,-9.657988548278809
1745663533.8242168,0.008916208520531654,-0.016820013523101807,0.3590182960033417,0.3904607594013214,0.9137486219406128,-9.746359825134277
1745663533.8281958,0.0035350557882338762,-0.03051244094967842,0.3567962944507599,0.39755651354789734,0.9619423151016235,-9.73748779296875
1745663533.8312047,0.0074294209480285645,-0.027460714802145958,0.35463184118270874,0.27639299631118774,0.992850661277771,-9.811857223510742
1745663533.8650413,0.005945604760199785,-0.02677861787378788,0.3537267744541168,0.5278684496879578,0.6705508232116699,-9.7129545211792
1745663533.8680475,-0.0028374388348311186,-0.025594186037778854,0.3546440005302429,0.21086855232715607,0.9689157605171204,-9.711804389953613
1745663533.8715398,-0.004988033324480057,-0.03001914918422699,0.3554195761680603,0.437404066324234,0.5831429362297058,-9.740464210510254
1745663533.8825555,-0.012150244787335396,-0.029120255261659622,0.3573530912399292,0.4026504456996918,0.8576321601867676,-9.70970630645752
1745663533.9045136,-0.011350154876708984,-0.018448803573846817,0.3569376468658447,0.3609645366668701,0.8402183651924133,-9.770528793334961
1745663533.9090054,-0.02139272540807724,-0.03259388357400894,0.3563341796398163,0.3495999872684479,0.7960402369499207,-9.734334945678711
1745663533.909048,-0.008491378277540207,-0.025253435596823692,0.3587215542793274,0.3746885657310486,0.9553279876708984,-9.622316360473633
1745663533.910169,-0.020741000771522522,-0.022801298648118973,0.3597594201564789,0.41506433486938477,0.7491706013679504,-9.77741527557373
1745663533.911799,-0.010021334514021873,-0.02815193310379982,0.3557910919189453,0.23656348884105682,1.0583734512329102,-9.785429954528809
1745663533.9548984,-0.015997912734746933,-0.025468140840530396,0.35849234461784363,0.4698092043399811,0.795015275478363,-9.701728820800781
1745663533.9550557,-0.006159455515444279,-0.02555732987821102,0.3572791516780853,0.3095468282699585,1.0283582210540771,-9.716985702514648
1745663533.9561794,-0.009447582997381687,-0.022882742807269096,0.3557710647583008,0.3785027861595154,0.929162323474884,-9.748005867004395
1745663533.9594557,-0.015440523624420166,-0.035059936344623566,0.3566584885120392,0.42475682497024536,0.8009411096572876,-9.755704879760742
1745663533.991946,9.939978190232068e-05,-0.019685160368680954,0.35809606313705444,0.4294886589050293,0.9873049855232239,-9.71809196472168
1745663533.995774,-0.019883612170815468,-0.03255040571093559,0.3553486764431,0.3878629803657532,0.7402380704879761,-9.84889030456543
1745663534.0012338,-0.015712544322013855,-0.028416883200407028,0.3590230941772461,0.47662219405174255,0.8244083523750305,-9.788016319274902
1745663534.0031714,-0.020442616194486618,-0.03315604850649834,0.3565603792667389,0.1909063309431076,0.8990190625190735,-9.792642593383789
1745663534.0356274,-0.0074436254799366,-0.032537609338760376,0.3576274514198303,0.513553261756897,0.8370262980461121,-9.575396537780762
1745663534.0476844,-0.023754026740789413,-0.030866589397192,0.3566325306892395,0.35223084688186646,0.911982536315918,-9.736651420593262
1745663534.0477903,-0.006566955707967281,-0.027540141716599464,0.35820671916007996,0.31351006031036377,0.8569755554199219,-9.891904830932617
1745663534.0478387,-0.02468230202794075,-0.03695933148264885,0.35872456431388855,0.45222529768943787,0.8861089944839478,-9.64191722869873
1745663534.052166,-0.006411171052604914,-0.02531968615949154,0.3569231927394867,0.2879016399383545,0.9505842328071594,-9.69119644165039
1745663534.0795102,-0.014392699114978313,-0.03204412758350372,0.3575626015663147,0.4415643811225891,0.8290506601333618,-9.800373077392578
1745663534.0825381,-0.02290358394384384,-0.035028085112571716,0.3564525544643402,0.25321924686431885,0.9357907176017761,-9.811935424804688
1745663534.0841851,-0.005200709216296673,-0.02877270057797432,0.3567766845226288,0.5381013751029968,0.8292942047119141,-9.600748062133789
1745663534.0859466,-0.02500532940030098,-0.03275106102228165,0.3555968105792999,0.2678477466106415,1.0029159784317017,-9.752099990844727
1745663534.119443,-0.010316760279238224,-0.034253109246492386,0.35483449697494507,0.4008096754550934,0.8323747515678406,-9.85778522491455
1745663534.121738,-0.021260585635900497,-0.036591313779354095,0.3559538722038269,0.4389422535896301,0.8527547121047974,-9.685277938842773
1745663534.1269217,-0.01086585782468319,-0.02316138707101345,0.35639718174934387,0.23542442917823792,0.896649956703186,-9.65855598449707
1745663534.1317768,-0.017549684271216393,-0.03967868909239769,0.35784977674484253,0.4490751326084137,0.7714210748672485,-9.694528579711914
1745663534.1339748,-0.15012797713279724,-0.09152711182832718,0.269234299659729,-0.0512382872402668,0.8369653820991516,-9.63420295715332
1745663534.165661,-0.10831179469823837,-0.05815783888101578,0.26090142130851746,-0.12368929386138916,1.4003008604049683,-11.013005256652832
1745663534.1681259,-0.07613103091716766,-0.04884650558233261,0.2515968680381775,-0.13481703400611877,1.9213886260986328,-9.740415573120117
1745663534.1752264,-0.04365941137075424,-0.07897713035345078,0.24511876702308655,0.07334263622760773,1.837694525718689,-8.626562118530273
1745663534.1768115,0.03875099867582321,-0.08756095916032791,0.24540576338768005,0.32741764187812805,1.605785608291626,-10.10710620880127
1745663534.2140288,0.07399562746286392,-0.06855621933937073,0.24409417808055878,-0.12801069021224976,1.6593010425567627,-11.005597114562988
1745663534.2141166,0.127016082406044,-0.062467314302921295,0.24659089744091034,-0.17327238619327545,1.0382181406021118,-9.5318021774292
1745663534.2141683,0.13992497324943542,-0.07770191133022308,0.2510044276714325,0.03426579385995865,0.9566147923469543,-8.33259391784668
1745663534.2166748,0.11886237561702728,-0.0857265368103981,0.24886897206306458,-0.49623894691467285,0.6766940355300903,-10.034238815307617
1745663534.217319,0.09368909895420074,-0.061346352100372314,0.22875440120697021,-0.26095345616340637,0.40317851305007935,-10.867997169494629
1745663534.2534225,0.014590436592698097,-0.08633396774530411,0.21346215903759003,0.5782467126846313,0.10449884086847305,-9.412031173706055
1745663534.258384,-0.020065072923898697,-0.08792047202587128,0.21668365597724915,-0.22703173756599426,-0.29469290375709534,-9.681730270385742
1745663534.260464,-0.046458400785923004,-0.05013883113861084,0.2088124006986618,-0.12395147979259491,1.1188222169876099,-9.269680976867676
1745663534.265677,-0.014118736609816551,-0.06673500686883926,0.20743370056152344,0.8689162135124207,0.014888131991028786,-9.407368659973145
1745663534.2967951,-0.050958096981048584,-0.10199441015720367,0.21796473860740662,0.3753919303417206,0.5293451547622681,-10.811141014099121
1745663534.2978954,-0.013662055134773254,-0.07589520514011383,0.22681383788585663,-0.2807273864746094,0.9396414756774902,-10.836939811706543
1745663534.3012197,0.04201160743832588,-0.06257320195436478,0.23120562732219696,-1.0964101552963257,1.3396620750427246,-8.90026569366455
1745663534.302552,0.00508978683501482,-0.053318895399570465,0.2201182097196579,-0.564046323299408,1.3421151638031006,-8.081598281860352
1745663534.3352528,0.07494230568408966,-0.08081112056970596,0.19881793856620789,0.6732829213142395,1.9198338985443115,-10.024360656738281
1745663534.3384461,0.07555036246776581,-0.08096134662628174,0.17612335085868835,0.05133336782455444,2.5201430320739746,-12.036870956420898
1745663534.3407328,0.1653919517993927,-0.04046270623803139,0.16744495928287506,0.2025090754032135,0.8588072657585144,-9.794748306274414
1745663534.3442037,0.1127239242196083,-0.03819073364138603,0.14820221066474915,-0.031032610684633255,-0.23075827956199646,-7.209956169128418
1745663534.3770187,0.04795951768755913,-0.0605587437748909,0.15625083446502686,0.8211859464645386,0.10402774810791016,-9.60639476776123
1745663534.3791254,0.05986391380429268,-0.042421359568834305,0.15084651112556458,0.3060489892959595,0.4290962219238281,-12.550546646118164
1745663534.3809147,0.06784814596176147,-0.008372537791728973,0.14132383465766907,0.33709269762039185,0.8938659429550171,-9.850054740905762
1745663534.382614,0.039582543075084686,-0.043700918555259705,0.13533726334571838,0.20753958821296692,1.1173932552337646,-7.518031120300293
1745663534.3854098,0.06446032226085663,-0.06609617918729782,0.12805752456188202,0.04947442561388016,0.9461941719055176,-9.916377067565918
1745663534.4222324,0.059752821922302246,-0.030459389090538025,0.11834360659122467,-0.3073085844516754,1.2530149221420288,-11.976656913757324
1745663534.4254994,0.1031140461564064,-0.002884970512241125,0.11187276989221573,-0.17068664729595184,0.9046595692634583,-9.61253547668457
1745663534.427692,0.10594058036804199,-0.03185456246137619,0.11068747937679291,0.08684520423412323,1.310379147529602,-7.444643974304199
1745663534.429478,0.12953242659568787,-0.03453170135617256,0.10273084789514542,0.5158497095108032,1.228561282157898,-9.903800010681152
1745663534.4647412,0.17791962623596191,-0.016439279541373253,0.094184011220932,0.8425430059432983,0.9242131114006042,-12.120585441589355
1745663534.4696321,0.16943709552288055,0.0016069203848019242,0.09011534601449966,0.46905621886253357,0.5463762283325195,-10.339703559875488
1745663534.472428,0.19265501201152802,-0.017671475186944008,0.09109928458929062,0.43609294295310974,0.43510881066322327,-7.922328948974609
1745663534.4771926,0.15281768143177032,-0.015364381484687328,0.08561132103204727,0.16234132647514343,0.357433021068573,-9.23871898651123
1745663534.4801939,0.16836269199848175,0.008214768953621387,0.07621976733207703,0.3742724061012268,0.4974815249443054,-11.009271621704102
1745663534.510424,0.2145489752292633,0.07480576634407043,-0.07083555310964584,0.18873262405395508,0.47125130891799927,-9.35558795928955
1745663534.5124943,0.21766483783721924,0.07156623154878616,-0.07731002569198608,0.39455461502075195,0.6617964506149292,-9.103129386901855
1745663534.5154543,0.2211766541004181,0.060740191489458084,-0.0833890289068222,0.35159870982170105,0.3052671551704407,-10.183615684509277
1745663534.5184903,0.25549381971359253,0.08366725593805313,-0.08828297257423401,0.3796718716621399,0.4980909824371338,-10.152626037597656
1745663534.5511549,0.20866234600543976,0.07598608732223511,-0.0914732962846756,0.509358286857605,-0.026757407933473587,-9.415486335754395
1745663534.5531378,0.2445327490568161,0.0680914968252182,-0.09302856773138046,0.3384675979614258,0.03862224891781807,-9.34554386138916
1745663534.5544267,0.19951948523521423,0.06670291721820831,-0.092825748026371,0.6064854860305786,-0.19076676666736603,-10.10743236541748
1745663534.5575702,0.20504653453826904,0.07432316988706589,-0.09721554070711136,0.39861464500427246,-0.026447415351867676,-10.249604225158691
1745663534.5921495,0.20132431387901306,0.07481630891561508,-0.09854556620121002,0.5503255724906921,0.11057107150554657,-9.292015075683594
1745663534.596635,0.1781240999698639,0.06173834204673767,-0.10450057685375214,0.41483092308044434,0.17755331099033356,-9.267586708068848
1745663534.6027565,0.18820759654045105,0.06885446608066559,-0.11076663434505463,0.39247676730155945,0.3583900034427643,-9.984655380249023
1745663534.6029012,0.17007622122764587,0.06854716688394547,-0.11644883453845978,0.46077489852905273,-0.03309083729982376,-10.167810440063477
1745663534.6042187,0.19740907847881317,0.07254447788000107,-0.11899836361408234,0.34169694781303406,0.5420754551887512,-9.40286636352539
1745663534.6383429,0.1760667860507965,0.05795112997293472,-0.121019147336483,0.49211496114730835,-0.05805305764079094,-9.444573402404785
1745663534.6404722,0.21823355555534363,0.060966409742832184,-0.12136821448802948,0.40175819396972656,0.28437361121177673,-9.892987251281738
1745663534.643955,0.20112602412700653,0.07041466981172562,-0.12447448074817657,0.6131267547607422,0.2789781093597412,-9.894556045532227
1745663534.6456003,0.21845409274101257,0.06105900555849075,-0.12745359539985657,0.4475933909416199,0.09537610411643982,-9.614057540893555
1745663534.6798377,0.2271929234266281,0.05982188507914543,-0.13149096071720123,0.4858853220939636,0.44287195801734924,-9.445058822631836
1745663534.6837175,0.20300622284412384,0.04974556714296341,-0.13659727573394775,0.5109806656837463,-0.18063640594482422,-10.008610725402832
1745663534.6841981,0.22501495480537415,0.05589688941836357,-0.13915877044200897,0.3576640188694,0.10982266813516617,-9.98326301574707
1745663534.6861637,0.1970725804567337,0.04942798241972923,-0.14234736561775208,0.6282397508621216,-0.3075900971889496,-9.52073860168457
1745663534.7216213,0.192611426115036,0.029584968462586403,-0.1704956293106079,0.4830811023712158,0.05006914585828781,-9.944412231445312
1745663534.723697,0.18991689383983612,0.03209712356328964,-0.1738228052854538,0.5501748323440552,-0.12297944724559784,-9.847738265991211
1745663534.725903,0.18517711758613586,0.021777460351586342,-0.17657092213630676,0.5743052363395691,-0.1541173756122589,-9.591943740844727
1745663534.7282667,0.17108991742134094,0.02777050994336605,-0.17916670441627502,0.43045663833618164,-0.04746682569384575,-9.626642227172852
1745663534.7294543,0.1854647845029831,0.0155011136084795,-0.18200239539146423,0.6343339085578918,-0.3300553560256958,-9.707716941833496
1745663534.7663047,0.1704285442829132,0.023588718846440315,-0.18387100100517273,0.3194616436958313,0.1550004780292511,-9.728957176208496
1745663534.7679453,0.16625742614269257,0.018544619902968407,-0.18896529078483582,0.5391920804977417,-0.44038328528404236,-9.866398811340332
1745663534.7706134,0.18682363629341125,0.010476251132786274,-0.19069038331508636,0.3650950789451599,0.16113711893558502,-9.652976036071777
1745663534.77324,0.1676376461982727,0.014428074471652508,-0.19277629256248474,0.48719555139541626,-0.28705263137817383,-9.790722846984863
1745663534.810909,0.18438544869422913,0.007718371693044901,-0.19617679715156555,0.5527929067611694,-0.22260808944702148,-9.699801445007324
1745663534.8136141,0.175139382481575,0.012499788776040077,-0.19813068211078644,0.45073240995407104,-0.08534989506006241,-9.621084213256836
1745663534.8151743,0.1600881814956665,0.0034585129469633102,-0.19519498944282532,0.667763352394104,-0.49044856429100037,-9.683318138122559
1745663534.8186176,0.1591929942369461,0.004015916958451271,-0.20138521492481232,0.4192010760307312,-0.10076162964105606,-9.84218692779541
1745663534.85067,0.159576416015625,0.001173752942122519,-0.2016323059797287,0.5897271633148193,-0.44295114278793335,-9.887341499328613
1745663534.8543386,0.14575332403182983,-0.00026377663016319275,-0.2042895257472992,0.40001893043518066,0.04136035591363907,-9.636540412902832
1745663534.8564372,0.15646733343601227,-0.025446385145187378,-0.24677053093910217,0.5457180142402649,-0.6437472105026245,-9.8959379196167
1745663534.860696,0.1359281837940216,-0.03368476778268814,-0.24595169723033905,0.4113787114620209,-0.5425583124160767,-9.912628173828125
1745663534.8627505,0.1520041674375534,-0.026927072554826736,-0.24415919184684753,0.4155135154724121,-0.5911861062049866,-9.819046020507812
1745663534.8954856,0.12360260635614395,-0.0320357009768486,-0.24653808772563934,0.5451878309249878,-0.5025204420089722,-9.641519546508789
1745663534.8955548,0.13518783450126648,-0.03197690099477768,-0.2495848685503006,0.3041209578514099,-0.4973657727241516,-9.848258018493652
1745663534.906921,0.13750073313713074,-0.028934722766280174,-0.249162957072258,0.5281926989555359,-0.40048494935035706,-9.74981689453125
1745663534.9070585,0.11653152853250504,-0.02921634539961815,-0.2534867227077484,0.36072883009910583,-0.35486382246017456,-9.79918098449707
1745663534.9381256,0.15114282071590424,-0.02556379698216915,-0.2542485296726227,0.4684799313545227,-0.47989219427108765,-9.777388572692871
1745663534.943937,0.12485820055007935,-0.032789237797260284,-0.25494852662086487,0.3771384656429291,-0.4062899649143219,-9.867009162902832
1745663534.9470387,0.15358862280845642,-0.025937363505363464,-0.25383642315864563,0.39290279150009155,-0.5518089532852173,-9.902697563171387
1745663534.9475362,0.1363731473684311,-0.030400127172470093,-0.25385457277297974,0.471348375082016,-0.5541637539863586,-9.68943977355957
1745663534.9795613,0.1439521759748459,-0.02892265096306801,-0.2549481987953186,0.39268237352371216,-0.5141493082046509,-9.712515830993652
1745663534.9840899,0.13437333703041077,-0.02847658470273018,-0.25400310754776,0.5682211518287659,-0.6201566457748413,-9.841451644897461
1745663534.9870195,0.1311286836862564,-0.02658025361597538,-0.2557050287723541,0.277010977268219,-0.5598154067993164,-9.950640678405762
1745663534.991944,0.13769519329071045,-0.023136477917432785,-0.2567231059074402,0.5091547966003418,-0.5178122520446777,-9.676076889038086
1745663534.998237,0.10870299488306046,-0.031069422140717506,-0.25984758138656616,0.3651479184627533,-0.6633827686309814,-9.763038635253906
1745663535.0256548,0.13718454539775848,-0.025373900309205055,-0.2603025734424591,0.4059158265590668,-0.6082319021224976,-9.865641593933105
1745663535.0291233,0.1035497784614563,-0.03054310381412506,-0.2613733410835266,0.4973345696926117,-0.5311212539672852,-9.837896347045898
1745663535.0327415,0.12151773273944855,-0.02102283574640751,-0.25995200872421265,0.3635726273059845,-0.6749916076660156,-9.80262565612793
1745663535.0355732,0.11818641424179077,-0.024599021300673485,-0.2599364221096039,0.5396216511726379,-0.5560678839683533,-9.619085311889648
1745663535.0722144,0.10779740661382675,-0.02770574763417244,-0.26051631569862366,0.3501144349575043,-0.6403823494911194,-9.994749069213867
1745663535.0750337,0.11690030246973038,-0.022457266226410866,-0.2648429274559021,0.500195324420929,-0.5804558992385864,-9.752571105957031
1745663535.0751255,0.09363806247711182,-0.023979930207133293,-0.26497960090637207,0.3512691855430603,-0.7135273814201355,-9.887585639953613
1745663535.0839388,0.12244460731744766,-0.013417747803032398,-0.2653287351131439,0.41369032859802246,-0.5091533660888672,-9.750551223754883
1745663535.1089873,0.09543298929929733,-0.022196520119905472,-0.26695969700813293,0.42262759804725647,-0.6143144965171814,-9.620223999023438
1745663535.1134245,0.11899036169052124,-0.013923108577728271,-0.26723650097846985,0.32180097699165344,-0.6108242869377136,-9.802803993225098
1745663535.1162736,0.10672646760940552,-0.01809879206120968,-0.26802319288253784,0.5191394090652466,-0.7053008675575256,-9.842397689819336
1745663535.117066,0.10671748965978622,-0.017147574573755264,-0.26712852716445923,0.3354392647743225,-0.6847588419914246,-9.927937507629395
1745663535.120031,0.09891033917665482,-0.013695414178073406,-0.27037313580513,0.4997129440307617,-0.773936927318573,-9.73615837097168
1745663535.1523397,0.09288802742958069,-0.019370820373296738,-0.2679547667503357,0.36021357774734497,-0.7584810256958008,-9.716391563415527
1745663535.155723,0.1007639616727829,-0.011996234767138958,-0.27074259519577026,0.4708408713340759,-0.6525605916976929,-9.69883918762207
1745663535.162845,0.07240238785743713,-0.016941776499152184,-0.26936590671539307,0.532062292098999,-0.7694566249847412,-9.858017921447754
1745663535.1629755,0.1091822013258934,-0.006531985010951757,-0.2700124680995941,0.28448349237442017,-0.49111658334732056,-9.870274543762207
1745663535.1964054,0.08402887731790543,-0.015056401491165161,-0.2719689905643463,0.5004624128341675,-0.6634871363639832,-9.699468612670898
1745663535.1992397,0.10649774968624115,-0.014157431200146675,-0.2729872167110443,0.33686572313308716,-0.5972017049789429,-9.762388229370117
1745663535.202143,0.10193391144275665,-0.012405580841004848,-0.27131903171539307,0.4864744544029236,-0.6779775023460388,-9.813197135925293
1745663535.2070377,0.049254827201366425,-0.008383700624108315,-0.27875322103500366,0.49890345335006714,-0.9198633432388306,-9.9802885055542
1745663535.2400854,0.06419634819030762,-0.010677858255803585,-0.27788639068603516,0.4721049666404724,-0.7599231004714966,-9.711518287658691
1745663535.2410002,0.0615699402987957,-0.009936012327671051,-0.27754276990890503,0.40258651971817017,-0.8101454973220825,-9.564096450805664
1745663535.2426555,0.05209951847791672,-0.018872303888201714,-0.2769196033477783,0.6135028600692749,-0.8402074575424194,-9.68187427520752
1745663535.2446063,0.05946733430027962,-0.012423409149050713,-0.27865856885910034,0.32733482122421265,-0.7507728338241577,-9.967691421508789
1745663535.2470028,0.05395153909921646,-0.010714000090956688,-0.27925926446914673,0.461325079202652,-0.9898582696914673,-9.768915176391602
1745663535.2837303,0.05281407758593559,-0.016082510352134705,-0.28138959407806396,0.3934728503227234,-0.6709431409835815,-9.411291122436523
1745663535.286364,0.03969523310661316,-0.014826963655650616,-0.2794814705848694,0.5074017643928528,-1.0886023044586182,-9.814661026000977
1745663535.2887363,0.05177504941821098,-0.021646087989211082,-0.2785150706768036,0.49023717641830444,-0.7647466659545898,-9.998623847961426
1745663535.2901983,0.03258257359266281,-0.01442429143935442,-0.28157714009284973,0.42881375551223755,-0.893165111541748,-9.743902206420898
1745663535.3258152,0.03592362254858017,-0.016470467671751976,-0.2788602411746979,0.516691267490387,-0.9885276556015015,-9.435890197753906
1745663535.3321137,0.03408079221844673,-0.018459927290678024,-0.282465398311615,0.38218992948532104,-0.6837030649185181,-9.623533248901367
1745663535.3321962,0.02527378872036934,-0.020452331751585007,-0.279196560382843,0.612223207950592,-1.0542985200881958,-10.041077613830566
1745663535.3342705,0.04317056015133858,-0.015169898979365826,-0.27807381749153137,0.3285284638404846,-0.6367344856262207,-9.841233253479004
1745663535.3394983,0.02859979309141636,-0.01619889959692955,-0.2799198627471924,0.47536373138427734,-0.9994016885757446,-9.525211334228516
1745663535.3708591,0.02946162223815918,-0.02578113041818142,-0.2782524526119232,0.4002982974052429,-0.7242345809936523,-9.578557968139648
1745663535.372189,0.029015619307756424,-0.01745830662548542,-0.2790243625640869,0.448091596364975,-0.9765133857727051,-9.935434341430664
1745663535.3761227,0.031424444168806076,-0.020590100437402725,-0.2796872556209564,0.5394998788833618,-0.788891077041626,-9.741665840148926
1745663535.3773255,0.027203712612390518,-0.015963979065418243,-0.2783423364162445,0.3666589856147766,-0.8081585168838501,-9.557382583618164
1745663535.4115303,0.018694911152124405,-0.02037544548511505,-0.2789292633533478,0.5738980174064636,-1.0281003713607788,-9.644574165344238
1745663535.4141262,0.030674194917082787,-0.022276826202869415,-0.27812033891677856,0.34883415699005127,-0.6114679574966431,-9.848341941833496
1745663535.4151833,0.015235776081681252,-0.016876066103577614,-0.2789601683616638,0.5066941976547241,-1.070502519607544,-9.860157012939453
1745663535.417537,0.017499392852187157,-0.02531334199011326,-0.27720752358436584,0.5313220620155334,-1.0250468254089355,-9.807050704956055
1745663535.4546509,0.019603963941335678,-0.026555251330137253,-0.27500030398368835,0.40780383348464966,-0.6238626837730408,-9.750401496887207
1745663535.458082,0.007414747029542923,-0.01757294312119484,-0.2767636179924011,0.5029942989349365,-1.0125430822372437,-9.714752197265625
1745663535.4594383,0.018163958564400673,-0.02416335977613926,-0.2757982313632965,0.4227781295776367,-0.7641040086746216,-9.587945938110352
1745663535.4626625,0.006961910519748926,-0.02196871116757393,-0.2778230905532837,0.41416722536087036,-0.8626441955566406,-9.78544807434082
1745663535.465512,0.011080805212259293,-0.02387857809662819,-0.27718013525009155,0.5724136233329773,-0.9386690258979797,-9.8566255569458
1745663535.4991155,0.00898345559835434,-0.02261381782591343,-0.2754254937171936,0.3251118063926697,-0.7567914724349976,-9.77971076965332
1745663535.504056,0.002766686724498868,-0.023955777287483215,-0.2755528688430786,0.5831385254859924,-1.0600216388702393,-9.599910736083984
1745663535.5067406,-0.0012087071081623435,-0.025373045355081558,-0.27595388889312744,0.40060991048812866,-0.7593660354614258,-9.661043167114258
1745663535.5099647,0.0018895028624683619,-0.02195689268410206,-0.2736567556858063,0.47795915603637695,-0.9909898638725281,-9.886487007141113
1745663535.54064,-0.002290937351062894,-0.02608358860015869,-0.2746071219444275,0.49367451667785645,-0.6151914000511169,-9.691230773925781
1745663535.545054,0.003514284733682871,-0.01924857124686241,-0.27392834424972534,0.34062251448631287,-0.8006431460380554,-9.760305404663086
1745663535.546762,0.010352043434977531,-0.02742045558989048,-0.2756350636482239,0.5194185972213745,-0.7777513861656189,-9.688270568847656
1745663535.5510585,0.0058644479140639305,-0.026354527100920677,-0.2769932448863983,0.3486427068710327,-0.6804744005203247,-9.72730827331543
1745663535.5838609,-0.01084081083536148,-0.019858768209815025,-0.2718263268470764,0.3263617157936096,-0.7330732345581055,-9.943275451660156
1745663535.5931706,0.004527596291154623,-0.016147861257195473,-0.2743412256240845,0.5331631898880005,-0.8996056318283081,-9.926521301269531
1745663535.593248,-0.008614040911197662,-0.02324581891298294,-0.27109822630882263,0.3609676957130432,-0.5307155847549438,-9.584628105163574
1745663535.5946538,0.006577644497156143,-0.01632179692387581,-0.27048033475875854,0.44883471727371216,-0.9770711660385132,-9.638849258422852
1745663535.5968235,0.0006308924639597535,-0.020290646702051163,-0.27182674407958984,0.4396015703678131,-0.5646258592605591,-9.749551773071289
1745663535.6271217,0.005519205704331398,-0.015814099460840225,-0.27047258615493774,0.35568997263908386,-0.8906716108322144,-9.973150253295898
1745663535.6345785,0.008288583718240261,-0.018194129690527916,-0.26877811551094055,0.4903988242149353,-0.75578773021698,-9.68513298034668
1745663535.6346593,0.006499725393950939,-0.020925527438521385,-0.270641028881073,0.3280852437019348,-0.7700155973434448,-9.706276893615723
1745663535.6347034,-0.00036429514875635505,-0.019814416766166687,-0.27135148644447327,0.5161157846450806,-0.9136714935302734,-9.818653106689453
1745663535.6697655,-0.010586636140942574,-0.019822292029857635,-0.27166301012039185,0.39553263783454895,-0.771465539932251,-9.830355644226074
1745663535.6722622,0.003097211243584752,-0.01606527343392372,-0.27089881896972656,0.44611454010009766,-0.9427099227905273,-9.686639785766602
1745663535.6729522,-0.015499845147132874,-0.023182246834039688,-0.270527184009552,0.43906983733177185,-0.7009180784225464,-9.578865051269531
1745663535.6755934,-0.00916996318846941,-0.01155230961740017,-0.2724907100200653,0.40335017442703247,-0.8711835741996765,-9.897314071655273
1745663535.6785045,-0.004233761224895716,-0.019740961492061615,-0.27110981941223145,0.4506639838218689,-0.6399756073951721,-9.84992504119873
1745663535.7162926,-0.0033350165467709303,-0.016502533107995987,-0.2699821889400482,0.32045838236808777,-0.6967957019805908,-9.79125690460205
1745663535.71997,0.008161809295415878,-0.016415555030107498,-0.27359628677368164,0.5328505039215088,-0.7549899220466614,-9.648199081420898
1745663535.7226627,0.00039182044565677643,-0.02464999072253704,-0.2702104449272156,0.34613877534866333,-0.6747819185256958,-9.763071060180664
1745663535.7239175,0.01021618116647005,-0.014162162318825722,-0.27140215039253235,0.5126186609268188,-0.9272014498710632,-9.84540843963623
1745663535.7548506,-0.003233202500268817,-0.019645508378744125,-0.26885566115379333,0.4183122217655182,-0.8135398626327515,-9.706047058105469
1745663535.7571678,0.010762203484773636,-0.015655703842639923,-0.2687144875526428,0.35059016942977905,-0.869040310382843,-9.734375
1745663535.7607152,-0.013003699481487274,-0.0197831429541111,-0.26876989006996155,0.5505315065383911,-0.7350728511810303,-9.724029541015625
1745663535.7635977,0.0012691952288150787,-0.014168927446007729,-0.26913219690322876,0.29801836609840393,-0.7707021236419678,-9.942972183227539
1745663535.800282,-0.0020601812284439802,-0.01592395268380642,-0.2662048935890198,0.4338439106941223,-0.6638757586479187,-9.589848518371582
1745663535.8024077,0.008132386952638626,-0.015023152343928814,-0.2688937783241272,0.3625679910182953,-0.668351948261261,-9.692544937133789
1745663535.8048356,-0.004167273640632629,-0.016040708869695663,-0.2688860297203064,0.5335140228271484,-0.772132396697998,-9.85026741027832
1745663535.8076873,0.007120052818208933,-0.01568508893251419,-0.27187976241111755,0.3430475890636444,-0.7296811938285828,-9.851653099060059
1745663535.8095484,0.007135120220482349,-0.009872203692793846,-0.2704194486141205,0.4327624440193176,-0.8598273992538452,-9.55925464630127
1745663535.8454742,-0.016639040783047676,-0.01687665656208992,-0.2708676755428314,0.388250470161438,-0.8078630566596985,-9.667947769165039
1745663535.8511696,0.005299478303641081,-0.009514501318335533,-0.27050939202308655,0.38963428139686584,-0.8645621538162231,-9.950563430786133
1745663535.8517153,-0.011382595635950565,-0.01795828714966774,-0.2713397145271301,0.5057501792907715,-0.6439099311828613,-9.75316047668457
1745663535.8551188,0.00463556032627821,-0.01303147803992033,-0.2719290256500244,0.3893040120601654,-0.7998205423355103,-9.675312995910645
1745663535.8863716,0.0012722309911623597,-0.012913396582007408,-0.2699322998523712,0.5193312764167786,-0.6654296517372131,-9.668832778930664
1745663535.889996,0.0009617043542675674,-0.01779879443347454,-0.2702912390232086,0.3498530685901642,-0.7825223207473755,-9.847492218017578
1745663535.8939123,0.011262588202953339,-0.00571077037602663,-0.26864123344421387,0.42017459869384766,-0.8263452649116516,-9.79798698425293
1745663535.896907,0.0014642607420682907,-0.01614896021783352,-0.26629775762557983,0.36467039585113525,-0.7630196809768677,-9.698225021362305
1745663535.8988605,0.014306548051536083,-0.012565171346068382,-0.26759639382362366,0.36576151847839355,-0.7347152233123779,-9.738512992858887
1745663535.9300437,-0.0356854610145092,0.001952523016370833,-0.23406493663787842,-0.4995771050453186,-0.9346494674682617,-10.17144775390625
1745663535.934235,-0.06245188042521477,-0.03939417377114296,-0.23883256316184998,-0.3525305390357971,-0.5452931523323059,-9.235616683959961
1745663535.936932,-0.04311511665582657,-0.03127993643283844,-0.2380407303571701,0.3017868399620056,-0.790772020816803,-9.155672073364258
1745663535.9407878,-0.08551918715238571,-0.04729471728205681,-0.2322898805141449,0.3403928279876709,-0.6732696294784546,-10.454743385314941
1745663535.9731715,-0.04178427904844284,-0.052265338599681854,-0.22512860596179962,-0.05372961610555649,-0.9463617205619812,-10.671815872192383
1745663535.9774377,-0.06809516996145248,-0.0278420802205801,-0.2110832929611206,0.019906405359506607,-0.9941023588180542,-8.99707317352295
1745663535.9967625,-0.07708628475666046,-0.050412166863679886,-0.20116350054740906,-0.08495540916919708,-0.9360901117324829,-8.726734161376953
1745663535.9969132,-0.037182677537202835,-0.06144338846206665,-0.1945696473121643,0.2538069188594818,-0.177932471036911,-10.213508605957031
1745663536.0149155,-0.03671742230653763,-0.047874756157398224,-0.1943052113056183,-0.03960002586245537,0.03962045535445213,-11.049897193908691
1745663536.018813,0.0202306117862463,-0.04254091903567314,-0.19804303348064423,-0.1356016844511032,-0.5033559799194336,-9.301534652709961
1745663536.020426,-0.03128442168235779,-0.06231851503252983,-0.19599775969982147,-0.11895810067653656,-0.5576857328414917,-8.409231185913086
1745663536.0215354,-0.023747598752379417,-0.07115809619426727,-0.19369913637638092,-0.17905385792255402,-1.3724572658538818,-10.198606491088867
1745663536.062581,-0.03816937282681465,-0.04491601511836052,-0.18560457229614258,0.09909282624721527,-0.7756379842758179,-10.70032024383545
1745663536.0626502,-0.059221167117357254,-0.0421542190015316,-0.1822371780872345,0.05445341393351555,-1.1583045721054077,-9.544961929321289
1745663536.0653095,-0.06947119534015656,-0.06935176253318787,-0.17489489912986755,0.4392182230949402,-0.9770675897598267,-8.613922119140625
1745663536.0671582,-0.09968264400959015,-0.06730351597070694,-0.17013970017433167,0.11993243545293808,-0.7387968897819519,-10.197916030883789
1745663536.0685544,-0.08162297308444977,-0.06114283949136734,-0.17318587005138397,0.027412116527557373,-0.8439110517501831,-10.90880012512207
1745663536.101383,-0.08985596150159836,-0.04088617116212845,-0.167549729347229,-0.24387720227241516,-0.691757082939148,-9.306730270385742
1745663536.103339,-0.09471122175455093,-0.05383902043104172,-0.15734902024269104,-0.1592559516429901,-0.7424046397209167,-8.640351295471191
1745663536.1060736,-0.07732325792312622,-0.08544895797967911,-0.1503550410270691,0.49332675337791443,-0.36636820435523987,-9.975610733032227
1745663536.1082659,-0.06543692201375961,-0.05738089606165886,-0.154521644115448,-0.28766629099845886,-0.1308654397726059,-11.296361923217773
1745663536.1431577,-0.03505970910191536,-0.04588676244020462,-0.16120830178260803,-0.014492178335785866,-0.48708397150039673,-9.473959922790527
1745663536.1452043,-0.06359953433275223,-0.07489381730556488,-0.16501078009605408,-0.07073517143726349,-0.19779163599014282,-8.35480785369873
1745663536.1564367,-0.12869112193584442,-0.07063568383455276,-0.12658919394016266,0.5441626310348511,-1.0856683254241943,-8.150410652160645
1745663536.1565754,-0.10303497314453125,-0.06876427680253983,-0.12380403280258179,0.20476296544075012,-0.5294171571731567,-10.716584205627441
1745663536.1566517,-0.11270318925380707,-0.051676779985427856,-0.125692218542099,0.5544930100440979,-0.2613072693347931,-11.195100784301758
1745663536.188318,-0.10473331063985825,-0.062321580946445465,-0.1316666305065155,-0.059721313416957855,-0.2183513641357422,-9.352055549621582
1745663536.1914694,-0.08799775689840317,-0.0683097094297409,-0.1315251737833023,-0.04649115353822708,-0.46744304895401,-8.615379333496094
1745663536.1961198,-0.11930115520954132,-0.06478147208690643,-0.12448827922344208,0.039788223803043365,-0.5425457954406738,-10.015727043151855
1745663536.1995788,-0.0816970244050026,-0.04775598645210266,-0.1174122542142868,0.022944707423448563,-0.6660605669021606,-10.623281478881836
1745663536.2283752,-0.09543377161026001,-0.04427410289645195,-0.1093958392739296,0.4073856770992279,-0.31302595138549805,-9.225135803222656
1745663536.2291954,-0.08243300020694733,-0.05885837599635124,-0.1047130674123764,0.28711992502212524,-0.314297616481781,-9.372401237487793
1745663536.2319188,-0.05402783304452896,-0.0558621771633625,-0.10396649688482285,0.5656555891036987,-0.2707381844520569,-10.377853393554688
1745663536.2360141,-0.06935478746891022,-0.049452584236860275,-0.10370443016290665,0.17994391918182373,-0.46942129731178284,-10.487698554992676
1745663536.2395122,-0.036517512053251266,-0.04164692014455795,-0.09785469621419907,0.05743130296468735,-0.6581473350524902,-9.326889038085938
1745663536.2726426,-0.07438179105520248,-0.058398425579071045,-0.0897795706987381,-0.0785236582159996,-0.6104437708854675,-9.126827239990234
1745663536.2768264,-0.07351066172122955,0.04949888959527016,0.09355448931455612,0.5349855422973633,-0.032069288194179535,-9.651491165161133
1745663536.2768881,-0.07388319075107574,0.04764121025800705,0.09940396249294281,0.5013623237609863,-0.3466293513774872,-9.781736373901367
1745663536.321823,-0.0651605874300003,0.054978661239147186,0.10397942364215851,0.508804202079773,-0.4776952862739563,-9.865915298461914
1745663536.322005,-0.10228011757135391,0.04707571119070053,0.1092894896864891,0.46660786867141724,-0.44020146131515503,-9.79415225982666
1745663536.3220782,-0.08954949676990509,0.057881910353899,0.1168992668390274,0.4109536111354828,-0.5684100389480591,-9.66947078704834
1745663536.322128,-0.11261315643787384,0.05693434923887253,0.11790148913860321,0.43963032960891724,-0.41158542037010193,-9.694169998168945
1745663536.323665,-0.11253879964351654,0.05212482810020447,0.12282474339008331,0.29663360118865967,-0.3457295298576355,-9.847311019897461
1745663536.3608608,-0.12753964960575104,0.056934792548418045,0.1267380565404892,0.49155300855636597,-0.5401517152786255,-9.807084083557129
1745663536.3705802,-0.12994331121444702,0.06061200052499771,0.13244111835956573,0.1863398551940918,-0.3957041800022125,-9.742055892944336
1745663536.3727803,-0.13965745270252228,0.06373313814401627,0.1380210816860199,0.34270936250686646,-0.5292590260505676,-9.521504402160645
1745663536.3754013,-0.16120590269565582,0.05575302243232727,0.1446721851825714,0.5079275369644165,-0.34424808621406555,-9.65162467956543
1745663536.4012015,-0.14259794354438782,0.06816598027944565,0.14671865105628967,0.44159188866615295,-0.27252429723739624,-9.994491577148438
1745663536.403692,-0.16310223937034607,0.05864766240119934,0.14794206619262695,0.5832071900367737,-0.07146966457366943,-9.756562232971191
1745663536.4066424,-0.15702137351036072,0.05886749550700188,0.15230749547481537,0.38732969760894775,-0.11372993886470795,-9.645303726196289
1745663536.408768,-0.1506286859512329,0.06158049777150154,0.15336163341999054,0.5994596481323242,-0.10972823947668076,-9.659795761108398
1745663536.4120684,-0.15126922726631165,0.05702696368098259,0.15968039631843567,0.36927756667137146,0.09188184142112732,-9.909486770629883
1745663536.4442167,-0.14092354476451874,0.06299453228712082,0.1626480519771576,0.4832730293273926,0.01673743687570095,-9.742897987365723
1745663536.446183,-0.13373923301696777,0.053968776017427444,0.1637108027935028,0.5040839910507202,0.14920322597026825,-9.593655586242676
1745663536.4472823,-0.11349713802337646,0.0598280131816864,0.166977196931839,0.3757108747959137,0.12087704986333847,-9.788715362548828
1745663536.4498425,-0.12196226418018341,0.05382222682237625,0.171178936958313,0.5950009226799011,-0.05139107629656792,-9.76086711883545
1745663536.4861743,-0.10491745173931122,0.056596677750349045,0.17107830941677094,0.40063804388046265,-0.07312778383493423,-9.77213191986084
1745663536.489218,-0.11348704993724823,0.05533392354846001,0.17714765667915344,0.5380060076713562,-0.28025293350219727,-9.688837051391602
1745663536.492166,-0.1563951075077057,0.0496392548084259,0.1939200609922409,0.3933878242969513,-0.062388110905885696,-9.814742088317871
1745663536.4938314,-0.1754184067249298,0.04724407568573952,0.19706983864307404,0.5027719736099243,-0.1435117870569229,-9.684882164001465
1745663536.5306005,-0.17187157273292542,0.03966188430786133,0.1998642385005951,0.418967068195343,0.03247501701116562,-9.62287712097168
1745663536.5344172,-0.164247065782547,0.04770185798406601,0.20409221947193146,0.5057595372200012,0.025593969970941544,-9.689567565917969
1745663536.5377493,-0.16129297018051147,0.038018837571144104,0.20485801994800568,0.4735049307346344,0.2560052275657654,-9.756818771362305
1745663536.5408313,-0.1523093581199646,0.039162084460258484,0.20524653792381287,0.4911300241947174,0.20869216322898865,-9.777177810668945
1745663536.573213,-0.1457504779100418,0.03572613745927811,0.2074263095855713,0.6163753271102905,0.11812724173069,-9.686610221862793
1745663536.576643,-0.13220897316932678,0.03702108934521675,0.2104034721851349,0.31587281823158264,0.22806677222251892,-9.73375129699707
1745663536.5815353,-0.14520232379436493,0.03001490794122219,0.21343550086021423,0.5641637444496155,-0.0679471418261528,-9.661970138549805
1745663536.584502,-0.13811613619327545,0.030376439914107323,0.21786606311798096,0.4894973337650299,0.07015284895896912,-9.651721000671387
1745663536.5879893,-0.13823220133781433,0.03084436058998108,0.21876628696918488,0.5527687668800354,-0.04280555248260498,-9.76926326751709
1745663536.6179953,-0.15051278471946716,0.02088938280940056,0.22116772830486298,0.49234557151794434,0.056793712079524994,-9.791497230529785
1745663536.6211467,-0.1450372040271759,0.030583221465349197,0.22215259075164795,0.46895918250083923,-0.021646346896886826,-9.71617317199707
1745663536.6214902,-0.15798047184944153,0.022382838651537895,0.22652176022529602,0.6042002439498901,0.029267579317092896,-9.58885669708252
1745663536.622723,-0.13258203864097595,-0.0240133348852396,0.2826177179813385,0.4064708650112152,0.39700356125831604,-9.82302474975586
1745663536.6595075,-0.14226219058036804,-0.018426889553666115,0.28282514214515686,0.5285733342170715,0.22917795181274414,-9.758050918579102
1745663536.6616156,-0.14647433161735535,-0.03109004534780979,0.28478991985321045,0.4320163130760193,0.4116702079772949,-9.783112525939941
1745663536.6621041,-0.14331232011318207,-0.020755818113684654,0.28592637181282043,0.3898956775665283,0.2110980749130249,-9.785565376281738
1745663536.6692965,-0.15153396129608154,-0.023710206151008606,0.28553467988967896,0.4986342787742615,0.3025067448616028,-9.675628662109375
1745663536.6699107,-0.1405697762966156,-0.023086944594979286,0.2917185127735138,0.3129348158836365,0.352851927280426,-9.784704208374023
1745663536.7044165,-0.1516365110874176,-0.025936802849173546,0.29265356063842773,0.5813103914260864,0.4100850224494934,-9.758831977844238
1745663536.7076442,-0.13548263907432556,-0.029405463486909866,0.2915767729282379,0.39472663402557373,0.5541863441467285,-9.904223442077637
1745663536.708274,-0.1392059475183487,-0.021604755893349648,0.2945709228515625,0.4805305600166321,0.4228186011314392,-9.848962783813477
1745663536.7447324,-0.1388537436723709,-0.03344723954796791,0.2939767837524414,0.43406742811203003,0.503978431224823,-9.710278511047363
1745663536.7486372,-0.12612035870552063,-0.02590603195130825,0.29138845205307007,0.423483669757843,0.3955833911895752,-9.732111930847168
1745663536.7528872,-0.14301420748233795,-0.03225690498948097,0.2961524426937103,0.4662739634513855,0.47279804944992065,-9.858858108520508
1745663536.7557094,-0.12897220253944397,-0.03039751574397087,0.29525116086006165,0.3386627435684204,0.46222734451293945,-9.928715705871582
1745663536.7586157,-0.1362263560295105,-0.030541161075234413,0.2971283793449402,0.5303825736045837,0.3495914936065674,-9.663373947143555
1745663536.7911558,-0.13009630143642426,-0.030260423198342323,0.29760509729385376,0.2993389964103699,0.5261514186859131,-9.704919815063477
1745663536.794182,-0.12730085849761963,-0.030604109168052673,0.29974842071533203,0.47996950149536133,0.3211269974708557,-9.863313674926758
1745663536.7977426,-0.13242758810520172,-0.03245003893971443,0.3018049895763397,0.4643479883670807,0.5524406433105469,-9.83080768585205
1745663536.8056633,-0.12160877883434296,-0.02505698800086975,0.3000129461288452,0.3587539494037628,0.38164928555488586,-9.856806755065918
1745663536.830921,-0.13594532012939453,-0.034922659397125244,0.3034641146659851,0.38010114431381226,0.46971988677978516,-9.72580337524414
1745663536.833443,-0.13018375635147095,-0.03160223364830017,0.2997540831565857,0.3424534201622009,0.396190345287323,-9.820772171020508
1745663536.834862,-0.1391448676586151,-0.02931370958685875,0.30274882912635803,0.49858707189559937,0.4033493101596832,-9.762154579162598
1745663536.8371923,-0.13323874771595,-0.03103787638247013,0.3088947534561157,0.48469609022140503,0.5808512568473816,-9.68004035949707
1745663536.888623,-0.13844186067581177,-0.03744641691446304,0.3078363239765167,0.2838910222053528,0.6710799932479858,-10.010025978088379
1745663536.8887599,-0.12320313602685928,-0.02390534058213234,0.3103933334350586,0.49431705474853516,0.45651230216026306,-9.889650344848633
1745663536.8888426,-0.137046679854393,-0.030196592211723328,0.31008410453796387,0.37065932154655457,0.7513789534568787,-9.613532066345215
1745663536.8889465,-0.13060462474822998,-0.0328308567404747,0.30957111716270447,0.4192378520965576,0.41941189765930176,-9.786714553833008
1745663536.889028,-0.1312619000673294,-0.03322257474064827,0.3094431757926941,0.523313581943512,0.5363682508468628,-9.94537353515625
1745663536.9203684,-0.13937664031982422,-0.02087297849357128,0.31101104617118835,0.2947068214416504,0.5241711735725403,-9.903295516967773
1745663536.923611,-0.13830499351024628,-0.0322759710252285,0.3132108151912689,0.4788816571235657,0.38943472504615784,-9.510185241699219
1745663536.929266,-0.14152148365974426,-0.03319201618432999,0.31412678956985474,0.34678974747657776,0.6406813263893127,-9.671976089477539
1745663536.930909,-0.14141061902046204,-0.01946939527988434,0.3167058527469635,0.49257922172546387,0.48323822021484375,-10.11418342590332
1745663536.960447,-0.13673488795757294,-0.029997805133461952,0.31654709577560425,0.40012574195861816,0.8207094073295593,-9.920863151550293
1745663536.9651947,-0.1329658478498459,-0.02748531475663185,0.31521397829055786,0.36386141180992126,0.6500188112258911,-9.651700973510742
1745663536.973307,-0.13280513882637024,-0.029673447832465172,0.3158996105194092,0.44605356454849243,0.5804520845413208,-9.684231758117676
1745663536.9748945,-0.13321301341056824,-0.023136915639042854,0.3165811002254486,0.2569918632507324,0.732354998588562,-9.901620864868164
1745663537.007187,-0.1129494458436966,-0.023222601041197777,0.32492274045944214,0.32485345005989075,0.788909912109375,-9.713480949401855
1745663537.0079386,-0.10533930361270905,-0.02271750196814537,0.3263171911239624,0.5310215950012207,0.7761746644973755,-9.58587646484375
1745663537.0106852,-0.12627434730529785,-0.025926297530531883,0.3275705873966217,0.2601063549518585,0.879107654094696,-9.862977981567383
1745663537.0128868,-0.10912301391363144,-0.024372324347496033,0.3265981078147888,0.513519287109375,0.7082725763320923,-9.837326049804688
1745663537.0465074,-0.122919000685215,-0.021868068724870682,0.32764893770217896,0.4266623854637146,0.8572446703910828,-9.648031234741211
1745663537.0491726,-0.10927192866802216,-0.019744062796235085,0.3294209837913513,0.2605248987674713,0.9060676693916321,-9.673257827758789
1745663537.053599,-0.1141405925154686,-0.03341302275657654,0.32825520634651184,0.49236243963241577,0.8674332499504089,-9.72614574432373
1745663537.055625,-0.10860898345708847,-0.018663261085748672,0.33021652698516846,0.3624975085258484,0.9816917181015015,-9.846123695373535
1745663537.0592759,-0.09418588131666183,-0.022292938083410263,0.328715443611145,0.5014116168022156,0.8943696022033691,-9.698999404907227
