timestamp,angular_vel_x,angular_vel_y,angular_vel_z,linear_acc_x,linear_acc_y,linear_acc_z
1745659859.6474998,-0.0028209607116878033,-0.0035685941111296415,-0.002376427175477147,0.211732417345047,0.17623212933540344,-9.80415153503418
1745659859.649798,0.007643663324415684,0.003311198903247714,0.0009735618950799108,0.2637236714363098,0.17502495646476746,-9.803086280822754
1745659859.657575,-0.002864703768864274,-0.005996351130306721,-0.0013873014831915498,0.2933710217475891,0.10310498625040054,-9.762331008911133
1745659859.6599467,0.004686498083174229,0.005216313526034355,-0.0013355219271034002,0.1883677840232849,0.21373531222343445,-9.765634536743164
1745659859.6911962,0.0006272426107898355,-0.0033752829767763615,0.0008155641844496131,0.37223172187805176,0.06313583254814148,-9.768964767456055
1745659859.696026,0.0003422420413699001,0.0003974493592977524,-0.001335852430202067,0.15157417953014374,0.22921302914619446,-9.838468551635742
1745659859.7006087,0.0047539714723825455,-0.0004309801443014294,0.0005122492439113557,0.36322909593582153,0.09570201486349106,-9.722939491271973
1745659859.7044969,-0.0006364829605445266,-0.0036297712940722704,-0.0022877263836562634,0.17979496717453003,0.17902736365795135,-9.801423072814941
1745659859.7081234,0.006271959748119116,0.00446183979511261,-0.0010407535592094064,0.28336432576179504,0.1397571712732315,-9.78009033203125
1745659859.732844,-0.0037103586364537477,-0.0037343353033065796,0.0004248677287250757,0.31208381056785583,0.115406334400177,-9.77824878692627
1745659859.7348795,0.00442212400957942,0.004049059934914112,0.000614818767644465,0.18152987957000732,0.20749041438102722,-9.780315399169922
1745659859.7383928,-0.0006741223041899502,-0.004070843104273081,-0.002122612437233329,0.36260515451431274,0.07409310340881348,-9.757220268249512
1745659859.7399738,0.0017699834425002337,0.0018569979583844543,-0.00034848423092626035,0.13340356945991516,0.24032756686210632,-9.831094741821289
1745659859.772856,0.0036127567291259766,-2.031531221291516e-05,0.0020336147863417864,0.3839331269264221,0.061252184212207794,-9.749486923217773
1745659859.7766776,-0.0015027595218271017,-0.0037051639519631863,-0.0014250657986849546,0.1898169219493866,0.19373707473278046,-9.776272773742676
1745659859.780098,0.007597964257001877,0.002492818981409073,8.402569073950872e-05,0.29724615812301636,0.14818276464939117,-9.782390594482422
1745659859.7813141,-0.0027980462182313204,-0.004897439386695623,0.0002950166235677898,0.28977519273757935,0.11776520311832428,-9.800871849060059
1745659859.7851388,0.004030514508485794,0.004627621732652187,0.00020992555073462427,0.20341172814369202,0.22343608736991882,-9.784849166870117
1745659859.8186698,0.0003935924614779651,-0.005953099112957716,-0.0007868573884479702,0.3688102066516876,0.05335639789700508,-9.736052513122559
1745659859.8213222,0.0009412469225935638,0.0006488944054581225,-6.903721077833325e-05,0.15355439484119415,0.23492030799388885,-9.829130172729492
1745659859.8228552,0.004202502314001322,-0.001157193910330534,0.001140326028689742,0.37886181473731995,0.09342566877603531,-9.764223098754883
1745659859.8612242,0.06021828576922417,0.03249800205230713,-0.005947384051978588,-0.08124838024377823,0.8714399337768555,-8.681968688964844
1745659859.8635018,-0.048278797417879105,-0.023373175412416458,-0.003277180017903447,0.34552088379859924,-0.3728477954864502,-8.526535034179688
1745659859.873145,0.041138600558042526,-0.009362995624542236,-0.0012358395615592599,0.625052273273468,0.06516070663928986,-10.740091323852539
1745659859.8755481,-0.015619060024619102,0.030075252056121826,0.0027995663695037365,-0.026769060641527176,-0.37686285376548767,-11.196938514709473
1745659859.9028363,-0.026038091629743576,0.017536453902721405,0.009142227470874786,0.49408188462257385,-0.08349107950925827,-8.195352554321289
1745659859.9051507,-0.00040445924969390035,-0.004673127084970474,0.015162062831223011,0.8173519372940063,0.3480099141597748,-8.269266128540039
1745659859.9069827,-0.026781272143125534,-0.009997181594371796,0.0149387177079916,0.5539877414703369,0.44585877656936646,-11.822328567504883
1745659859.9090316,0.014718981459736824,0.024340441450476646,0.015416836366057396,0.4034133851528168,0.007160908076912165,-11.263246536254883
1745659859.9106455,-0.02156270295381546,0.014477993361651897,0.016206491738557816,0.43474116921424866,0.1629544198513031,-7.654850006103516
1745659859.9513047,-0.016646329313516617,-0.02043222263455391,0.024289622902870178,0.5965782403945923,-0.009979208931326866,-8.547143936157227
1745659859.9513898,-0.02594902738928795,0.0014141404535621405,0.02647833153605461,0.495042622089386,0.2808030843734741,-11.898452758789062
1745659859.954258,-0.009945498779416084,0.024612993001937866,0.029656490311026573,0.23531730473041534,0.03140409663319588,-10.871236801147461
1745659859.9545352,-0.015999553725123405,0.026243645697832108,0.030793974176049232,0.38089853525161743,0.4235648214817047,-7.225965976715088
1745659859.989546,-0.03280702978372574,-0.01536525972187519,0.03341490775346756,0.665016770362854,0.04331798478960991,-9.016758918762207
1745659859.9947684,-0.10435090959072113,0.08796168118715286,0.16827037930488586,0.7680865526199341,-0.3745412230491638,-9.098363876342773
1745659859.9969532,-0.13880887627601624,0.07841669768095016,0.1750372350215912,0.8385039567947388,-0.23555783927440643,-9.396299362182617
1745659860.0002856,-0.15569964051246643,0.09191039949655533,0.1781613975763321,0.7435303926467896,-0.1807992160320282,-10.410253524780273
1745659860.033164,-0.16832208633422852,0.0913906991481781,0.1845521181821823,0.8042231798171997,0.3445001244544983,-9.846864700317383
1745659860.0352418,-0.14604583382606506,0.09521304816007614,0.19087861478328705,0.6913233995437622,0.36673665046691895,-9.204198837280273
1745659860.0374916,-0.12690913677215576,0.08593190461397171,0.1993589550256729,0.8299331665039062,0.7407968044281006,-9.615423202514648
1745659860.0380242,-0.09948103129863739,0.09114835411310196,0.20533671975135803,0.5559920072555542,0.8062318563461304,-10.316576957702637
1745659860.0394228,-0.057206250727176666,0.09763021767139435,0.2090032547712326,0.6971197128295898,0.6826187968254089,-9.686994552612305
1745659860.0823834,-0.04913239926099777,0.09182523190975189,0.21303324401378632,0.5296300649642944,0.8584015965461731,-9.245760917663574
1745659860.0872698,-0.03587421029806137,0.08662694692611694,0.21431300044059753,0.8514739274978638,0.3588162958621979,-9.833414077758789
1745659860.090409,-0.03486589714884758,0.08789829164743423,0.21613064408302307,0.9270946383476257,0.44885820150375366,-10.243871688842773
1745659860.0942795,-0.046164896339178085,0.09361095726490021,0.217014878988266,0.8448384404182434,0.019862361252307892,-9.829824447631836
1745659860.1179075,-0.07760457694530487,0.07500724494457245,0.22378651797771454,1.070778250694275,-0.0810626894235611,-9.188009262084961
1745659860.12039,-0.09589498490095139,0.08379248529672623,0.2276386320590973,0.8225622177124023,-0.16093257069587708,-9.870195388793945
1745659860.1229095,-0.11017128080129623,0.08328038454055786,0.23441126942634583,0.9994685053825378,0.012076135724782944,-10.0735445022583
1745659860.1251533,-0.12257714569568634,0.08100255578756332,0.24044832587242126,0.638795793056488,0.2316836416721344,-9.687498092651367
1745659860.128044,-0.09921624511480331,0.0907236710190773,0.24903389811515808,0.7313448786735535,0.3402678072452545,-9.3170166015625
1745659860.1646194,-0.10377796739339828,0.07826307415962219,0.252512663602829,0.6781624555587769,0.8056389093399048,-9.668123245239258
1745659860.166536,-0.0665992945432663,0.08371211588382721,0.2550903856754303,0.6533549427986145,0.5029498934745789,-10.087629318237305
1745659860.1672606,-0.05129612609744072,0.08758117258548737,0.25695767998695374,0.9072567224502563,0.7987974882125854,-9.612650871276855
1745659860.170528,-0.04988992214202881,0.07881002128124237,0.2589847147464752,0.6423977017402649,0.4646236300468445,-9.603461265563965
1745659860.2060769,-0.04611293971538544,0.07576140016317368,0.26421892642974854,1.0542922019958496,0.2598847448825836,-9.73188304901123
1745659860.2067394,-0.030980775132775307,0.05475770682096481,0.28929322957992554,0.9479423761367798,0.6250418424606323,-9.606183052062988
1745659860.2082734,-0.03021722100675106,0.05305701494216919,0.2914915680885315,0.7020896673202515,0.6438818573951721,-9.978605270385742
1745659860.2106245,-0.012282350100576878,0.04964260756969452,0.29910293221473694,0.906271755695343,0.35336464643478394,-9.853232383728027
1745659860.2471066,-0.01139061339199543,0.045807845890522,0.29835498332977295,0.9038293957710266,0.5010713934898376,-9.569963455200195
1745659860.2507336,-0.017487462610006332,0.047675590962171555,0.3003639578819275,0.9393473863601685,0.1685904860496521,-9.751087188720703
1745659860.2531016,-0.03732829540967941,0.034020837396383286,0.30502548813819885,1.0270941257476807,0.18862947821617126,-9.87423038482666
1745659860.2540333,-0.04746028408408165,0.04470417648553848,0.3078823685646057,0.8730387687683105,0.08022268861532211,-9.771501541137695
1745659860.2555666,-0.06379561126232147,0.03571430593729019,0.3094772696495056,1.067069172859192,0.20293238759040833,-9.460360527038574
1745659860.2936122,-0.08349259197711945,0.028355225920677185,0.3145182430744171,0.7405661344528198,0.3844330310821533,-9.803796768188477
1745659860.297522,-0.0628039613366127,0.03505188599228859,0.31753724813461304,1.011475920677185,0.33557575941085815,-9.802083015441895
1745659860.2988408,-0.0620943121612072,0.031157970428466797,0.32178795337677,0.7816241383552551,0.9191251993179321,-9.673165321350098
1745659860.299745,-0.041253238916397095,0.02912018820643425,0.3232245445251465,0.7888926863670349,0.4919390082359314,-9.757380485534668
1745659860.3343942,-0.01397872157394886,0.019609564915299416,0.32721108198165894,1.0148189067840576,0.875969409942627,-9.664246559143066
1745659860.338195,-0.011301867663860321,0.02464703842997551,0.3287345767021179,0.6592192053794861,0.5215147137641907,-10.026813507080078
1745659860.3414295,-0.036410264670848846,-0.06953932344913483,0.398581326007843,0.9067218899726868,0.5074865221977234,-9.567773818969727
1745659860.3424163,-0.04791846126317978,-0.05905633419752121,0.3983711898326874,0.6167061924934387,0.7521220445632935,-9.78844928741455
1745659860.3787608,-0.043469686061143875,-0.07006116211414337,0.39871731400489807,0.8260793685913086,0.35897108912467957,-9.927431106567383
1745659860.3811097,-0.031141171231865883,-0.06448692828416824,0.4013468623161316,0.6661794781684875,0.7032040953636169,-9.69899845123291
1745659860.3854523,-0.04214996099472046,-0.05984310433268547,0.40101367235183716,0.7755785584449768,0.2410293072462082,-9.656082153320312
1745659860.3856063,-0.040608152747154236,-0.07602216303348541,0.4021868109703064,0.85722815990448,0.5612043142318726,-9.735605239868164
1745659860.3856459,-0.05237077549099922,-0.06187749654054642,0.40386947989463806,0.8155906796455383,0.27705124020576477,-9.968555450439453
1745659860.422546,-0.0443599596619606,-0.07501456886529922,0.4062921404838562,0.9055234789848328,0.4585930407047272,-9.703279495239258
1745659860.4244626,-0.06112071871757507,-0.0652569979429245,0.41376423835754395,0.6362819671630859,0.4860401749610901,-9.692022323608398
1745659860.4262009,-0.03518364951014519,-0.0788140743970871,0.42331090569496155,0.643821120262146,0.11961275339126587,-9.761828422546387
1745659860.4278374,-0.011364303529262543,-0.07148639112710953,0.41389402747154236,0.27757787704467773,1.58660089969635,-9.785538673400879
1745659860.4670813,-0.0641794428229332,-0.11696095764636993,0.3895995318889618,0.4104108214378357,0.6336763501167297,-10.320335388183594
1745659860.467278,-0.013849486596882343,-0.09871339797973633,0.37862205505371094,-0.1914619654417038,1.0624068975448608,-10.168055534362793
1745659860.4690838,-0.004486170597374439,-0.09743331372737885,0.36916384100914,-0.5671488642692566,0.8550727963447571,-9.352605819702148
1745659860.4710526,0.02279486320912838,-0.08635498583316803,0.3561990559101105,-0.6172274947166443,1.3059682846069336,-8.882891654968262
1745659860.5075407,0.06348179280757904,-0.08724288642406464,0.35681790113449097,0.557835042476654,-1.017348289489746,-9.51236343383789
1745659860.5084417,0.004087315406650305,-0.1085914820432663,0.37050533294677734,0.4257572293281555,-0.686099112033844,-10.483217239379883
1745659860.5114589,-0.0876677855849266,-0.11608310788869858,0.38097643852233887,0.011787483468651772,-0.6720206141471863,-10.810495376586914
1745659860.513088,-0.0065661342814564705,-0.10307687520980835,0.3860853314399719,0.2733711302280426,-1.2044780254364014,-9.019760131835938
1745659860.5146973,-0.16417357325553894,-0.09970184415578842,0.3870841860771179,-0.07556021213531494,0.543244481086731,-9.13849925994873
1745659860.551807,-0.1837978959083557,-0.14876589179039001,0.365666925907135,0.6278095841407776,-0.07608729600906372,-10.20910930633545
1745659860.5569746,0.17307764291763306,-0.09333202987909317,0.3220767080783844,-0.5862584114074707,-1.1408976316452026,-9.609539031982422
1745659860.55948,0.1797904372215271,-0.09975090622901917,0.313558429479599,0.26511842012405396,1.5937879085540771,-8.640470504760742
1745659860.5615964,-0.021669048815965652,-0.17611666023731232,0.2911275327205658,0.17579229176044464,-1.2802115678787231,-10.92816162109375
1745659860.5953474,0.15179571509361267,-0.0649125948548317,0.2779599726200104,0.9379552602767944,0.36450403928756714,-10.37244987487793
1745659860.5984678,-0.19407959282398224,-0.17844025790691376,0.2670342028141022,0.4228348731994629,-1.2750837802886963,-9.578387260437012
1745659860.6040313,-0.04501494765281677,-0.059872664511203766,0.2647324204444885,0.9971877932548523,-0.6397164463996887,-9.02452278137207
1745659860.6072638,-0.07748635858297348,-0.1310689002275467,0.25083738565444946,1.7083320617675781,1.5126583576202393,-9.095487594604492
1745659860.6357791,-0.16625209152698517,-0.13196420669555664,0.25299128890037537,1.3312788009643555,-0.7294543981552124,-11.953877449035645
1745659860.6383913,0.08503635972738266,-0.07938367128372192,0.25234758853912354,1.0842711925506592,2.5511841773986816,-10.220712661743164
1745659860.6407528,0.0014578730333596468,-0.12337571382522583,0.24819836020469666,-0.15270063281059265,0.7076088190078735,-8.848907470703125
1745659860.6428297,0.17621418833732605,-0.07899818569421768,0.25051188468933105,-0.27254995703697205,1.4232075214385986,-8.550458908081055
1745659860.647221,0.07487378269433975,-0.08861805498600006,0.23124286532402039,0.14446485042572021,1.1299598217010498,-10.36568546295166
1745659860.6815758,0.23958811163902283,-0.06901481747627258,0.21034899353981018,0.3026983439922333,1.5551282167434692,-10.766544342041016
1745659860.6837652,0.07799984514713287,-0.04622826725244522,0.17493245005607605,0.6551100611686707,1.2092225551605225,-9.098909378051758
1745659860.6874275,0.19425079226493835,-0.07967386394739151,0.15388670563697815,1.529900312423706,-0.16316978633403778,-8.72581958770752
1745659860.6926367,0.07082481682300568,-0.012475298717617989,0.14932456612586975,-0.17300769686698914,0.9870417714118958,-8.882184982299805
1745659860.7237937,0.11756470054388046,-0.023317424580454826,0.15635471045970917,-0.16608473658561707,0.12592126429080963,-10.309309005737305
1745659860.7280893,0.2007845640182495,0.01695999503135681,0.16863998770713806,-0.019554590806365013,1.1845393180847168,-9.858002662658691
1745659860.7324007,0.16461281478405,-0.007269819732755423,0.16644731163978577,0.516182541847229,0.3605235517024994,-9.579337120056152
1745659860.734997,0.25664713978767395,-0.040129728615283966,0.14856627583503723,0.3978578448295593,1.2711254358291626,-9.735371589660645
1745659860.766646,0.18826745450496674,0.016825219616293907,0.1403493732213974,-0.755580723285675,0.0011629253858700395,-10.860530853271484
1745659860.7682633,0.1834927201271057,0.006406729109585285,0.148698091506958,0.5309551358222961,-0.754895031452179,-8.432828903198242
1745659860.7705932,0.12173338234424591,-0.018765050917863846,0.15850086510181427,0.7344427108764648,-0.6829085350036621,-8.975432395935059
1745659860.7723482,0.09748072922229767,-0.00439638365060091,0.15307489037513733,0.19706767797470093,-0.2945849299430847,-11.582761764526367
1745659860.807955,0.04412323608994484,0.023164156824350357,0.14977800846099854,0.10062699019908905,0.11595699936151505,-10.08665657043457
1745659860.8124273,0.08585108816623688,-0.011288798414170742,0.14031049609184265,0.797740638256073,0.4370284974575043,-7.654374122619629
1745659860.8150895,0.07878784835338593,-0.01087539829313755,0.13456158339977264,-0.13267484307289124,0.9630279541015625,-10.172731399536133
1745659860.8164089,0.10345274209976196,-0.02225080132484436,0.14364686608314514,-0.2123785763978958,-0.2307012528181076,-11.916098594665527
1745659860.8175232,0.15082494914531708,0.06478741765022278,0.15318553149700165,-0.5388684272766113,0.22498758137226105,-8.910785675048828
1745659860.8535075,0.16609571874141693,0.017699969932436943,0.16470566391944885,0.049516089260578156,0.49287453293800354,-6.763869285583496
1745659860.8547394,0.13016672432422638,-0.028962334617972374,0.16685518622398376,1.0025033950805664,-0.03858994320034981,-10.273256301879883
1745659860.8570948,0.21481847763061523,0.03957178816199303,0.1605650931596756,0.3357626795768738,0.8342217206954956,-13.232104301452637
1745659860.8591096,0.16204975545406342,0.03303354233503342,0.15036335587501526,0.27292683720588684,0.03718142583966255,-9.243073463439941
1745659860.8976085,0.14695467054843903,0.006249685771763325,0.15084215998649597,0.5962478518486023,-0.18139168620109558,-6.459389686584473
1745659860.9010706,0.08259022235870361,-0.008448934182524681,0.1544065773487091,1.0205433368682861,-0.8841891288757324,-10.428258895874023
1745659860.906587,0.17119403183460236,0.05119847506284714,0.16609731316566467,0.38770291209220886,-0.35185080766677856,-9.426076889038086
1745659860.909167,0.112693190574646,0.03442179411649704,0.16186068952083588,0.38874727487564087,-0.6971578598022461,-7.101615905761719
1745659860.9361181,0.047513045370578766,0.018830111250281334,0.16199585795402527,0.7217946648597717,-0.8036749958992004,-10.089345932006836
1745659860.939288,0.02883724309504032,0.05029106140136719,0.1644773930311203,0.6114078760147095,-0.7381272315979004,-12.184911727905273
1745659860.9410236,0.011136267334222794,0.05992680788040161,0.1754821091890335,0.5926088094711304,-0.561863124370575,-9.481494903564453
1745659860.9445786,-0.012798057869076729,0.04057376831769943,0.18561680614948273,0.20452217757701874,-0.07716671377420425,-7.4980292320251465
1745659860.981643,-7.60734110372141e-05,0.043891798704862595,0.19867916405200958,0.6880649328231812,0.0531901940703392,-9.606170654296875
1745659860.9857497,0.04613738879561424,0.05844992399215698,0.20140603184700012,0.8599478006362915,0.8701268434524536,-11.631372451782227
1745659860.988602,0.08568084985017776,0.05725207179784775,0.20524337887763977,0.6978945136070251,0.6819201707839966,-10.160594940185547
1745659860.990844,0.09936641901731491,0.05659390240907669,0.20787203311920166,0.6879842877388,0.4833304286003113,-8.19189739227295
1745659860.994325,0.11949127912521362,0.05422978475689888,0.21502670645713806,0.6010249257087708,0.28654003143310547,-9.283933639526367
1745659861.0244384,0.10162148624658585,0.05905194953083992,0.21495023369789124,1.0140107870101929,0.17719557881355286,-10.820086479187012
1745659861.026684,0.1187870055437088,0.06504679471254349,0.21760615706443787,0.7789222002029419,0.1297915279865265,-10.271265029907227
1745659861.0281878,0.1079421415925026,0.07168209552764893,0.2218974083662033,0.6669661998748779,0.09393849968910217,-8.834434509277344
1745659861.0299103,0.08762215077877045,0.05920853465795517,0.2227960079908371,0.5989115238189697,0.04098742455244064,-9.09215259552002
1745659861.0673947,-0.08254201710224152,0.07732316851615906,0.3142031729221344,0.7901836633682251,-0.018679575994610786,-10.384215354919434
1745659861.0701447,-0.06621836870908737,0.07480331510305405,0.31494608521461487,0.49840983748435974,0.5093879103660583,-9.327993392944336
1745659861.073529,-0.0655004009604454,0.06835546344518661,0.31665128469467163,0.6544218063354492,0.026181599125266075,-9.178057670593262
1745659861.0761733,-0.0385885052382946,0.05861406773328781,0.3213210999965668,0.8323225975036621,0.3549627959728241,-9.947572708129883
1745659861.1083999,-0.040381453931331635,0.07264455407857895,0.3220149874687195,0.7415078282356262,0.07964485883712769,-10.470105171203613
1745659861.1106746,-0.029957517981529236,0.05531156808137894,0.32580098509788513,0.8640362024307251,0.09728921949863434,-9.572042465209961
1745659861.1127224,-0.04051028564572334,0.05693291872739792,0.3245597779750824,0.6574773788452148,0.06546548008918762,-9.213541984558105
1745659861.113638,-0.047703877091407776,0.053790561854839325,0.32728132605552673,0.933392345905304,-0.17229101061820984,-9.834814071655273
1745659861.1166,-0.05234096571803093,0.04722454398870468,0.3254143297672272,0.7895103096961975,0.11934473365545273,-10.289641380310059
1745659861.1522593,-0.06667747348546982,0.05184826999902725,0.32652366161346436,0.8303095698356628,-0.3460949659347534,-9.814112663269043
1745659861.154632,-0.0632433295249939,0.04069603979587555,0.3341580033302307,0.6724467277526855,-0.033018629997968674,-9.193684577941895
1745659861.1583354,-0.08457973599433899,0.0461941659450531,0.3360835015773773,0.6323648691177368,-0.2344735562801361,-9.707013130187988
1745659861.1621919,-0.07626526057720184,0.03699209913611412,0.3416022062301636,0.853683590888977,-0.05714359134435654,-10.068680763244629
1745659861.19554,-0.07135006040334702,0.049689315259456635,0.3422916829586029,0.6090444922447205,0.09682419151067734,-9.844780921936035
1745659861.1972394,-0.08154241740703583,0.03524135798215866,0.3444023132324219,0.7291430234909058,-0.03142205625772476,-9.422536849975586
1745659861.1984475,-0.07239773124456406,0.03058953583240509,0.34497377276420593,0.6712649464607239,0.18898087739944458,-9.634440422058105
1745659861.2000613,-0.08171918243169785,0.038862038403749466,0.3436506390571594,0.8104436993598938,-0.11543554067611694,-10.114007949829102
1745659861.2371385,-0.08430531620979309,0.026759574189782143,0.3444845676422119,0.6608323454856873,0.085858054459095,-9.867491722106934
1745659861.2417533,-0.09725930541753769,0.030321231111884117,0.34395235776901245,0.7193222045898438,-0.1956254541873932,-9.432415962219238
1745659861.2418325,-0.1066407784819603,0.02269880473613739,0.3467593789100647,0.8747149705886841,-0.010669050738215446,-9.560165405273438
1745659861.2443807,-0.10564985126256943,0.02311098575592041,0.34769415855407715,0.7838200330734253,0.1328229010105133,-10.14992618560791
1745659861.2489846,-0.11764059215784073,-0.006492236163467169,0.361456960439682,0.8310842514038086,-0.26467618346214294,-9.796741485595703
1745659861.2851002,-0.11031041294336319,-0.01366664469242096,0.3639264702796936,0.6343065500259399,-0.06179269403219223,-9.331292152404785
1745659861.29076,-0.13047611713409424,-0.006675952114164829,0.36931565403938293,0.7220839262008667,-0.07399506866931915,-9.672370910644531
1745659861.2954295,-0.1319344937801361,-0.01987074315547943,0.3708297908306122,0.7764876484870911,0.018149521201848984,-10.095341682434082
1745659861.2969105,-0.10941381752490997,-0.005984642542898655,0.3722473978996277,0.6808608770370483,0.30723753571510315,-9.812171936035156
1745659861.3253183,-0.13231799006462097,-0.021258724853396416,0.37221360206604004,0.6967633366584778,0.21159911155700684,-9.51984977722168
1745659861.3272781,-0.1032831072807312,-0.021345756947994232,0.3700249195098877,0.6388691663742065,0.3465119004249573,-9.736465454101562
1745659861.3293624,-0.11910729110240936,-0.016514331102371216,0.37220287322998047,0.831859290599823,0.15720270574092865,-10.00782299041748
1745659861.3320072,-0.1104656457901001,-0.026111334562301636,0.37047284841537476,0.6183305978775024,0.225645512342453,-9.84206485748291
1745659861.3345494,-0.11988136917352676,-0.023677458986639977,0.3737364113330841,0.8209689855575562,0.03358224779367447,-9.535392761230469
1745659861.3681905,-0.1262836754322052,-0.03331710770726204,0.3753584623336792,0.8365222811698914,0.1820754110813141,-9.751884460449219
1745659861.3741004,-0.11555235087871552,-0.029437731951475143,0.37309902906417847,0.8091844320297241,0.2529906630516052,-10.0429105758667
1745659861.37803,-0.13257786631584167,-0.04034232720732689,0.3738565742969513,0.7726711630821228,0.19752614200115204,-9.931877136230469
1745659861.3820946,-0.10136710107326508,-0.03190011903643608,0.3760356307029724,0.5365041494369507,0.28607162833213806,-9.593192100524902
1745659861.4099689,-0.12555167078971863,-0.03832600265741348,0.37912195920944214,0.6681001782417297,0.22327479720115662,-9.543044090270996
1745659861.4145968,-0.11419876664876938,-0.047723736613988876,0.38476842641830444,0.5434972643852234,0.3942400813102722,-9.943196296691895
1745659861.4186175,-0.1345936805009842,-0.05768655985593796,0.38548973202705383,0.6680183410644531,0.4987103343009949,-9.693937301635742
1745659861.4217923,-0.11697693914175034,-0.052879005670547485,0.3866046965122223,0.47245439887046814,0.32951799035072327,-9.71069622039795
1745659861.45312,-0.116091288626194,-0.048420898616313934,0.38717761635780334,0.6993347406387329,0.4969821870326996,-9.691289901733398
1745659861.456844,-0.12619443237781525,-0.056059062480926514,0.38734209537506104,0.4883754253387451,0.4769172668457031,-9.983348846435547
1745659861.4601285,-0.09907253086566925,-0.05062244087457657,0.3880741000175476,0.6904429197311401,0.3634701073169708,-9.776516914367676
1745659861.4637322,-0.11374352872371674,-0.0521211251616478,0.38721412420272827,0.4973120093345642,0.6037541627883911,-9.712237358093262
1745659861.4974418,-0.10892198979854584,-0.05142969638109207,0.3877681791782379,0.5056487321853638,0.30066031217575073,-9.891292572021484
1745659861.5027943,-0.11730655282735825,-0.054069191217422485,0.3895598351955414,0.6546624898910522,0.3866282105445862,-9.775856018066406
1745659861.5063343,-0.11153167486190796,-0.046836234629154205,0.38606196641921997,0.4472421109676361,0.35791337490081787,-9.811395645141602
1745659861.5083532,-0.13030172884464264,-0.051108550280332565,0.38814693689346313,0.7059250473976135,0.35334354639053345,-9.693670272827148
1745659861.5122797,-0.12901535630226135,-0.051721833646297455,0.3889354169368744,0.5443438291549683,0.47444215416908264,-9.852295875549316
1745659861.5417643,-0.11576549708843231,-0.04991286247968674,0.3877103924751282,0.679634153842926,0.41207021474838257,-9.866202354431152
1745659861.544187,-0.1342604011297226,-0.05093890428543091,0.38751959800720215,0.4429784417152405,0.6676727533340454,-9.80781078338623
1745659861.5489705,-0.11183255910873413,-0.0456794872879982,0.3905329406261444,0.47096332907676697,0.28685858845710754,-9.67981243133545
1745659861.550682,-0.10844055563211441,-0.04681814834475517,0.39047032594680786,0.6141431927680969,0.8052071332931519,-9.52763557434082
1745659861.583315,-0.1056865006685257,-0.04464225471019745,0.39116981625556946,0.3799033761024475,0.5536563992500305,-10.054158210754395
1745659861.5880673,-0.08943597227334976,-0.049221836030483246,0.3895130753517151,0.6821249723434448,0.6216254830360413,-9.860893249511719
1745659861.590817,-0.08649339526891708,-0.038566555827856064,0.3893943130970001,0.3850240409374237,0.661322832107544,-9.685335159301758
1745659861.595475,-0.09104987233877182,-0.0405508354306221,0.38694924116134644,0.5858868360519409,0.4161387085914612,-9.573667526245117
1745659861.624689,-0.07823285460472107,-0.027444202452898026,0.3927235007286072,0.47063153982162476,0.5264105200767517,-9.67152214050293
1745659861.6270893,-0.08620879799127579,-0.03723303601145744,0.3917953670024872,0.6343192458152771,0.5747072696685791,-9.642145156860352
1745659861.6292524,-0.08920101821422577,-0.0349908247590065,0.390076220035553,0.4415956437587738,0.7106754779815674,-9.923064231872559
1745659861.6310372,-0.07719991356134415,-0.029816344380378723,0.39169183373451233,0.6064737439155579,0.37978896498680115,-9.878042221069336
1745659861.6327937,-0.069422148168087,-0.029179329052567482,0.3923267722129822,0.34080255031585693,0.8477733731269836,-9.550068855285645
1745659861.6731434,-0.08474886417388916,-0.026711279526352882,0.39262664318084717,0.42045196890830994,0.2966906428337097,-9.667577743530273
1745659861.6781797,-0.05754886940121651,-0.03154720738530159,0.3942231833934784,0.5234629511833191,0.7251935005187988,-9.715270042419434
1745659861.6800592,-0.06910458952188492,-0.012827699072659016,0.39715346693992615,0.36095482110977173,0.5900759696960449,-9.966218948364258
1745659861.6839373,-0.06777499616146088,-0.03123559057712555,0.3960767090320587,0.5847233533859253,0.5444241166114807,-9.733175277709961
1745659861.7131116,-0.06337076425552368,-0.019159501418471336,0.39251360297203064,0.42990684509277344,0.5952335596084595,-9.654077529907227
1745659861.7168102,-0.0744875967502594,-0.02009386010468006,0.3931443393230438,0.6285422444343567,0.3795233368873596,-9.757303237915039
1745659861.7194026,-0.08188546448945999,-0.025664037093520164,0.3928425908088684,0.4708705544471741,0.603938102722168,-9.895432472229004
1745659861.7279367,-0.09290306270122528,-0.01652943715453148,0.3919600248336792,0.5910958647727966,0.37774163484573364,-9.799710273742676
1745659861.7550118,-0.07978185266256332,-0.023356854915618896,0.39373356103897095,0.5115589499473572,0.818560004234314,-9.545366287231445
1745659861.7583733,-0.09381599724292755,-0.015454838052392006,0.3898661434650421,0.39266613125801086,0.6230839490890503,-9.854372024536133
1745659861.7612038,-0.010125622153282166,-0.0013876348966732621,0.3983011841773987,0.5716922879219055,0.6462128758430481,-9.739336013793945
1745659861.7656918,-0.0084640858694911,-0.007984967902302742,0.3987779915332794,0.38916075229644775,0.7420123815536499,-9.732337951660156
1745659861.7982154,-0.019839107990264893,-0.010385990142822266,0.3976588249206543,0.591914176940918,0.3618554174900055,-9.737855911254883
1745659861.8012433,-0.027510151267051697,-0.009304873645305634,0.4006101191043854,0.5957111120223999,0.4528924822807312,-9.757956504821777
1745659861.8039846,-0.02687898278236389,-0.0011741260532289743,0.4003920555114746,0.5143290162086487,0.5680774450302124,-9.726177215576172
1745659861.8080177,-0.06178758665919304,-0.014957703649997711,0.4015347957611084,0.6062156558036804,0.5234395265579224,-9.75709056854248
1745659861.8406193,-0.027329817414283752,-0.009032540023326874,0.40032505989074707,0.4427085518836975,0.6846288442611694,-9.789484024047852
1745659861.843977,-0.05018779635429382,-0.0009900403674691916,0.40021413564682007,0.49377116560935974,0.8840185403823853,-9.70311164855957
1745659861.8478432,-0.03303927183151245,-0.01760859414935112,0.397346168756485,0.3349856734275818,0.7774733901023865,-9.760965347290039
1745659861.850915,-0.010088401846587658,-0.00200100801885128,0.39937353134155273,0.5642069578170776,0.8514971733093262,-9.662749290466309
1745659861.8535814,-0.018483204767107964,-0.010740961879491806,0.39849111437797546,0.38223662972450256,0.8377550840377808,-9.866482734680176
1745659861.8836472,0.002132859779521823,-0.007388214580714703,0.3997315764427185,0.4143608510494232,0.6635024547576904,-9.80385684967041
1745659861.8872435,-0.00983547791838646,-0.00682119932025671,0.40071654319763184,0.6015470027923584,0.6078386306762695,-9.551037788391113
1745659861.8912253,0.0007662962889298797,-0.00899957399815321,0.3985185921192169,0.4684862196445465,0.63591468334198,-9.798209190368652
1745659861.8964489,-0.026943137869238853,-0.010753042064607143,0.39960289001464844,0.6857782602310181,0.5592891573905945,-9.929126739501953
1745659861.925119,-0.016710206866264343,-0.012111557647585869,0.3982735574245453,0.40792685747146606,0.44064435362815857,-9.866143226623535
1745659861.9276092,-0.0236041322350502,-0.003051024628803134,0.4019690155982971,0.5511147379875183,0.6274840831756592,-9.458829879760742
1745659861.9295082,-0.04866578429937363,-0.01623772270977497,0.39963242411613464,0.4368198812007904,0.6009600758552551,-9.712675094604492
1745659861.9308372,-0.01913234032690525,-0.008806878700852394,0.3999992609024048,0.4793131351470947,0.6706646680831909,-9.843175888061523
1745659861.9341383,-0.03531136363744736,-0.009226890280842781,0.3995569348335266,0.5253241658210754,0.9221959114074707,-9.799150466918945
1745659861.9724927,-0.00907022226601839,-0.012048682197928429,0.4049742817878723,0.4151710867881775,0.8748675584793091,-9.835740089416504
1745659861.9750216,-0.005653806030750275,-0.009553233161568642,0.40179914236068726,0.4161447584629059,0.6677957773208618,-9.772478103637695
1745659861.9789686,-0.01118181087076664,-0.025073740631341934,0.4038202166557312,0.5529903173446655,0.7491578459739685,-9.653108596801758
1745659861.9809988,0.003071561921387911,-0.011926292441785336,0.40141454339027405,0.4153261184692383,0.5794776678085327,-9.844971656799316
1745659862.0148263,-0.012045291252434254,-0.018203964456915855,0.40292900800704956,0.5837007761001587,0.674812912940979,-9.73372745513916
1745659862.0204208,-0.019347388297319412,-0.01859442889690399,0.40450429916381836,0.35299253463745117,0.4261719286441803,-9.809149742126465
1745659862.025102,-0.006968098692595959,-0.012078900821506977,0.4066823124885559,0.5947270393371582,0.4571709632873535,-9.591659545898438
1745659862.0269878,-0.0346587635576725,-0.015820307657122612,0.40629997849464417,0.4071563184261322,0.7478852272033691,-9.709831237792969
1745659862.0589306,-0.022128280252218246,-0.018091503530740738,0.4075087904930115,0.5615536570549011,0.4426019787788391,-9.869751930236816
1745659862.0630333,-0.020321300253272057,-0.01577117294073105,0.40734201669692993,0.5845589637756348,0.9456195831298828,-9.75391960144043
1745659862.0647318,-0.019475135952234268,-0.01574910618364811,0.40491899847984314,0.3292732238769531,0.6570471525192261,-9.864362716674805
1745659862.065859,-0.02252333238720894,-0.024285953491926193,0.4029545187950134,0.5631667375564575,0.6756106615066528,-9.6405668258667
1745659862.0989873,-0.01341867446899414,-0.01369430124759674,0.4050792157649994,0.3445033133029938,0.6781795620918274,-9.707944869995117
1745659862.100389,-0.02425636537373066,-0.015237529762089252,0.4085654318332672,0.5774911642074585,0.5973173379898071,-9.768396377563477
1745659862.1026325,-0.020757552236318588,-0.023229775950312614,0.4065142571926117,0.4711199402809143,0.8597594499588013,-9.762105941772461
1745659862.1048503,-0.008467969484627247,-0.015916816890239716,0.40700310468673706,0.5350497961044312,0.5933904647827148,-9.822518348693848
1745659862.106626,0.043383050709962845,-0.04440072923898697,0.3610391616821289,-0.09478616714477539,0.661119282245636,-9.550840377807617
1745659862.145906,0.07799005508422852,-0.04471682384610176,0.3595264256000519,0.20548991858959198,0.7705950736999512,-9.559961318969727
1745659862.1472647,0.04966895282268524,-0.04090191051363945,0.3530804514884949,0.21797414124011993,0.6058678030967712,-9.9700345993042
1745659862.1473253,0.01292436569929123,-0.0470174103975296,0.34722039103507996,0.09999660402536392,0.12274175882339478,-10.248727798461914
1745659862.1494625,-0.0178082138299942,-0.05338332802057266,0.3432079553604126,0.32116326689720154,0.16795338690280914,-9.41743278503418
1745659862.1853962,-0.018525151535868645,-0.03255642578005791,0.34177497029304504,0.2929074764251709,0.32226940989494324,-9.536626815795898
1745659862.1878848,-0.07446222007274628,-0.056658077985048294,0.33505040407180786,0.6703816652297974,0.43041568994522095,-9.915616989135742
1745659862.190219,-0.02825038507580757,-0.04936952888965607,0.3337388336658478,0.6281492114067078,0.46729040145874023,-10.172273635864258
1745659862.192178,-0.027527328580617905,-0.048768237233161926,0.33580663800239563,0.1584743708372116,1.0331766605377197,-9.852380752563477
1745659862.1954508,-0.009909517131745815,-0.05226211994886398,0.33433961868286133,-0.21630749106407166,0.8812362551689148,-9.50941276550293
1745659862.228937,0.025509720668196678,-0.04383431375026703,0.33488327264785767,-0.026726186275482178,0.694743812084198,-9.460650444030762
1745659862.2308326,0.03932138904929161,-0.04061853140592575,0.32974904775619507,-0.18279725313186646,1.165506362915039,-9.802288055419922
1745659862.2329404,0.03172408789396286,-0.04491113871335983,0.3215288519859314,0.055631596595048904,1.0935933589935303,-9.976282119750977
1745659862.2364447,0.07226349413394928,-0.038284096866846085,0.3106613755226135,0.22703957557678223,0.6940852403640747,-9.555070877075195
1745659862.2752795,0.04301292821764946,-0.031353168189525604,0.30387604236602783,0.41118258237838745,0.7048512697219849,-9.510202407836914
1745659862.2764943,0.0007070004940032959,-0.05905629321932793,0.3029100000858307,0.7318075895309448,-0.2143656313419342,-10.140504837036133
1745659862.2768111,0.02489323727786541,-0.036668453365564346,0.3062540888786316,0.3303305506706238,0.31228089332580566,-10.22900676727295
1745659862.2792668,-0.029244501143693924,-0.042275380343198776,0.30768564343452454,0.3380339741706848,0.13381847739219666,-9.65983772277832
1745659862.280809,-0.012230957858264446,-0.04939595237374306,0.31137555837631226,0.2129935771226883,0.6245343089103699,-9.285407066345215
1745659862.3141525,-0.0072526708245277405,-0.04472412168979645,0.3056783676147461,0.17299723625183105,0.9933723211288452,-9.935566902160645
1745659862.316313,0.03598063439130783,-0.02707347273826599,0.24527370929718018,-0.08645447343587875,0.4284451901912689,-9.23553466796875
1745659862.3184752,0.05068530887365341,-0.0394296869635582,0.24129930138587952,0.23214001953601837,0.2758389115333557,-9.885193824768066
1745659862.3239849,0.06898549944162369,-0.015330573543906212,0.2397235929965973,0.425922691822052,0.5757024884223938,-10.345478057861328
1745659862.359201,0.03340448811650276,-0.029774870723485947,0.23103973269462585,0.11662723869085312,0.434631884098053,-9.964065551757812
1745659862.3626497,0.05785340070724487,-0.024767857044935226,0.2272581309080124,0.41384586691856384,0.43665918707847595,-9.16358470916748
1745659862.3668587,0.007808809634298086,-0.02844453789293766,0.21479114890098572,0.4578994810581207,0.37996798753738403,-9.851325988769531
1745659862.370601,0.0180817861109972,-0.03677374869585037,0.20770740509033203,0.5554432272911072,0.6300885677337646,-10.405915260314941
1745659862.4073417,0.008237289264798164,-0.009113050997257233,0.19164830446243286,0.354448139667511,0.9788374900817871,-9.948060035705566
1745659862.4108968,0.058433592319488525,-0.017818596214056015,0.17709246277809143,0.8190959095954895,1.2752134799957275,-8.701766967773438
1745659862.4147496,0.05688405781984329,-0.02841068245470524,0.1697283387184143,1.0098910331726074,0.8051042556762695,-9.959932327270508
1745659862.4178452,0.09615454077720642,-0.03355887532234192,0.16540560126304626,0.676864504814148,0.7208360433578491,-11.201050758361816
1745659862.4424133,0.1516280621290207,0.0021227621473371983,0.16711574792861938,0.3340720236301422,0.7100902795791626,-9.890401840209961
1745659862.4451568,0.11288326978683472,-0.01507914625108242,0.1661074459552765,0.032156310975551605,0.39438575506210327,-8.51197624206543
1745659862.446281,0.16881927847862244,-0.004483318421989679,0.15893545746803284,0.3716198205947876,0.5239297151565552,-9.081995964050293
1745659862.4485195,0.12248263508081436,0.0009102843469008803,0.14181722700595856,0.3338162302970886,1.0284183025360107,-10.71495532989502
1745659862.4509418,0.13664278388023376,0.01713346689939499,0.1237158551812172,0.31406375765800476,0.4307726323604584,-10.434791564941406
1745659862.4895594,0.1636030524969101,0.051454830914735794,-0.007106652949005365,0.3569144308567047,0.4442976117134094,-9.542801856994629
1745659862.4929554,0.16966333985328674,0.05491156503558159,-0.012637929990887642,0.5215383768081665,0.13138516247272491,-9.510175704956055
1745659862.4974597,0.15971362590789795,0.0476318821310997,-0.02104305475950241,0.4956335127353668,0.5781208872795105,-9.936153411865234
1745659862.4999225,0.1734498143196106,0.05258946493268013,-0.028358176350593567,0.4589553475379944,0.14590345323085785,-10.192224502563477
1745659862.5298276,0.18962189555168152,0.0517064705491066,-0.03169649839401245,0.5706080198287964,0.23617000877857208,-9.547873497009277
1745659862.532272,0.1677803099155426,0.050193559378385544,-0.03287182003259659,0.32495370507240295,0.09133418649435043,-9.485556602478027
1745659862.536287,0.19695112109184265,0.049472153186798096,-0.028641948476433754,0.6445983648300171,-0.18288299441337585,-9.751036643981934
1745659862.5363681,0.1720682829618454,0.05250852182507515,-0.032278064638376236,0.4097917973995209,0.23867182433605194,-9.99397087097168
1745659862.5373669,0.1831185519695282,0.05062376335263252,-0.03808628395199776,0.6694868803024292,-0.05277130752801895,-9.818690299987793
1745659862.5730362,0.1689048707485199,0.04635385423898697,-0.04356897994875908,0.49277910590171814,0.30174049735069275,-9.58812141418457
1745659862.5776603,0.16492415964603424,0.046235859394073486,-0.052773911505937576,0.5144770741462708,0.009218914434313774,-9.704618453979492
1745659862.577715,0.14708802103996277,0.04132387042045593,-0.058549851179122925,0.6198133230209351,0.021442856639623642,-9.770135879516602
1745659862.581444,0.13269774615764618,0.04945720359683037,-0.062358688563108444,0.40195927023887634,-0.13225725293159485,-9.81717586517334
1745659862.6147428,0.1391959935426712,0.04785124585032463,-0.06212949752807617,0.6567137241363525,0.04347900301218033,-9.397817611694336
1745659862.6182797,0.11688224226236343,0.045365843921899796,-0.06742788851261139,0.3809734582901001,0.23306164145469666,-9.665769577026367
1745659862.6205003,0.15672336518764496,0.0485643669962883,-0.06771674007177353,0.7107350826263428,0.04886212199926376,-9.983358383178711
1745659862.6238093,0.15257878601551056,0.03990967571735382,-0.07596000283956528,0.4978061318397522,0.5809451341629028,-9.874055862426758
1745659862.62861,0.1771179735660553,0.04474217817187309,-0.07564221322536469,0.45393484830856323,0.06778419762849808,-9.626991271972656
1745659862.6596336,0.19218817353248596,0.044508595019578934,-0.07804901897907257,0.4396997392177582,0.30085861682891846,-9.44250774383545
1745659862.6606593,0.1766836941242218,0.04206226021051407,-0.08218996226787567,0.3938809931278229,-0.04597645252943039,-9.77267837524414
1745659862.6648362,0.1574798822402954,0.021619947627186775,-0.12005593627691269,0.6872925162315369,-0.33717530965805054,-9.538992881774902
1745659862.6669848,0.1384195238351822,0.01920277811586857,-0.12013857066631317,0.6349949836730957,-0.17473572492599487,-9.81174087524414
1745659862.7018757,0.135551318526268,0.02397295832633972,-0.12280459702014923,0.5523910522460938,-0.45614203810691833,-9.950272560119629
1745659862.7044497,0.11894863843917847,0.01820562034845352,-0.12454626709222794,0.7267416715621948,-0.11081552505493164,-9.535324096679688
1745659862.7113914,0.10914276540279388,0.015935512259602547,-0.1296703815460205,0.4269595742225647,-0.20951128005981445,-9.681818008422852
1745659862.7168345,0.12478842586278915,0.010936756618320942,-0.13176745176315308,0.6485845446586609,-0.10901792347431183,-9.84736156463623
1745659862.744356,0.11041321605443954,0.014130559749901295,-0.13717004656791687,0.3561745285987854,0.12265554815530777,-9.913976669311523
1745659862.7462618,0.13209904730319977,0.01685181073844433,-0.1374453455209732,0.5007413625717163,-0.2920437157154083,-9.509817123413086
1745659862.7496297,0.12984323501586914,0.009503901936113834,-0.13804364204406738,0.35113397240638733,0.11302802711725235,-9.410441398620605
1745659862.7534487,0.13130894303321838,0.012890534475445747,-0.13972234725952148,0.5080068707466125,-0.2407694309949875,-9.944389343261719
1745659862.78662,0.13967779278755188,0.009843274019658566,-0.13932020962238312,0.6203109622001648,-0.13680985569953918,-10.029034614562988
1745659862.7904482,0.13893252611160278,0.009261772967875004,-0.1436367928981781,0.49236398935317993,-0.1327981799840927,-9.714627265930176
1745659862.793414,0.1348855346441269,0.0014236269053071737,-0.1461113691329956,0.73906409740448,-0.2584247887134552,-9.484382629394531
1745659862.7968829,0.11428838968276978,0.0011011691531166434,-0.15011219680309296,0.4563067555427551,-0.21371309459209442,-9.85112190246582
1745659862.7998238,0.12149012088775635,0.001961578382179141,-0.1527969390153885,0.7090219259262085,-0.42823606729507446,-9.835700988769531
1745659862.8316302,0.09132985025644302,0.002405857900157571,-0.15499188005924225,0.42448168992996216,-0.08555728942155838,-9.582077026367188
1745659862.8359494,0.09703195095062256,-0.015679163858294487,-0.20399534702301025,0.49075737595558167,-0.1437104493379593,-9.710687637329102
1745659862.837717,0.09879964590072632,-0.01138580497354269,-0.1998068243265152,0.35196512937545776,-0.32402855157852173,-9.679537773132324
1745659862.8391483,0.1148843988776207,-0.023375313729047775,-0.19013246893882751,0.20405378937721252,-0.5030854940414429,-9.795050621032715
1745659862.873658,0.12369227409362793,-0.012522798962891102,-0.18586744368076324,-0.30268603563308716,-0.3520340323448181,-9.98784351348877
1745659862.8761263,0.0990060418844223,-0.036291010677814484,-0.17665834724903107,0.35553890466690063,-1.05289626121521,-9.59030532836914
1745659862.8788762,0.06832826137542725,-0.03402630239725113,-0.17017844319343567,-0.7640672922134399,-0.5255258083343506,-10.187662124633789
1745659862.8803284,0.027191882953047752,-0.028365949168801308,-0.1739826649427414,-0.18517808616161346,-0.6916902661323547,-9.571895599365234
1745659862.9149663,0.03762536123394966,-0.016553133726119995,-0.1786121428012848,0.07379209250211716,-0.08525262027978897,-9.233813285827637
1745659862.9184692,-0.021315526217222214,-0.06474564969539642,-0.1765333116054535,0.4261409640312195,-0.8540467023849487,-10.096029281616211
1745659862.921243,0.02248850092291832,-0.046409379690885544,-0.16889342665672302,0.6282057166099548,-0.36752328276634216,-10.754899978637695
1745659862.9276986,-0.018724286928772926,-0.05767875164747238,-0.15400351583957672,-0.4160245954990387,-0.46577128767967224,-10.106863021850586
1745659862.9309025,0.0340009406208992,-0.04950985312461853,-0.14481496810913086,0.30237701535224915,-0.8657913208007812,-8.380938529968262
1745659862.9623506,0.00451233983039856,-0.043817222118377686,-0.13510724902153015,-0.13963398337364197,0.5697818994522095,-9.526463508605957
1745659862.9651744,0.06104670837521553,-0.08180496096611023,-0.13751545548439026,0.23319177329540253,-0.1159011572599411,-11.089520454406738
1745659862.965922,0.11187994480133057,-0.04403970390558243,-0.1377900242805481,0.034993015229701996,0.6905564665794373,-10.06297779083252
1745659862.9674425,0.07306494563817978,-0.06066621094942093,-0.13937170803546906,-0.5997599363327026,-0.5570682883262634,-9.142168045043945
1745659863.0019364,0.1070994958281517,-0.0837525725364685,-0.1399906873703003,0.3296439051628113,-0.6592916250228882,-8.723868370056152
1745659863.0033126,0.019420329481363297,-0.042211614549160004,-0.13754414021968842,-0.27907899022102356,-0.666128396987915,-10.806594848632812
1745659863.00704,0.03811005502939224,-0.0683845728635788,-0.13192810118198395,0.5184513330459595,-1.2553420066833496,-10.416120529174805
1745659863.010241,0.012292916886508465,-0.052282702177762985,-0.12379207462072372,0.4118732511997223,-0.406865656375885,-8.816307067871094
1745659863.0115826,-0.07681899517774582,-0.11763159930706024,-0.08533966541290283,0.43991971015930176,0.06086139753460884,-7.945329189300537
1745659863.0468833,-0.04633188247680664,-0.07227790355682373,-0.09339217841625214,0.4470958113670349,-0.19485895335674286,-11.20969009399414
1745659863.0485432,-0.04735751822590828,-0.08209876716136932,-0.09400168806314468,-0.3730573058128357,0.5755231976509094,-11.600451469421387
1745659863.0504086,-0.043795663863420486,-0.06697870045900345,-0.10020347684621811,-0.5343776941299438,-0.4823775887489319,-8.386393547058105
1745659863.0521264,-0.007137017790228128,-0.0561075322329998,-0.08936968445777893,0.1765194684267044,0.17408961057662964,-7.269976615905762
1745659863.0892391,-0.025309016928076744,-0.08576901257038116,-0.08083369582891464,0.1871398389339447,0.15684643387794495,-11.478503227233887
1745659863.091054,0.08602839708328247,-0.07277924567461014,-0.07699991762638092,0.8151772618293762,0.04550992324948311,-12.044336318969727
1745659863.0920432,0.0630081444978714,-0.018875835463404655,-0.06781461834907532,-0.03836305812001228,-0.02514786645770073,-8.701546669006348
1745659863.094585,0.0884939581155777,-0.08504093438386917,-0.05751146003603935,0.5862412452697754,-0.923494815826416,-7.76282262802124
1745659863.0974367,0.04939407855272293,-0.08408652245998383,-0.05330418795347214,0.566426694393158,-0.36028939485549927,-10.895308494567871
1745659863.133989,0.033271823078393936,-0.03888649120926857,-0.053654275834560394,-0.13071493804454803,-1.1498382091522217,-12.154030799865723
1745659863.1372557,-0.0036745474208146334,-0.04314308986067772,-0.05763920024037361,-0.1116035208106041,-0.2025364190340042,-8.441983222961426
1745659863.141636,-0.03241971135139465,-0.0653635710477829,-0.061380572617053986,0.39494800567626953,-0.5653083920478821,-7.764425754547119
1745659863.145858,-0.03611914440989494,-0.0885937437415123,-0.059700705111026764,-0.05718420818448067,-0.1813838630914688,-11.352100372314453
1745659863.1757905,0.001902005635201931,0.006228757090866566,-0.06138916686177254,-0.2870379090309143,-0.15856221318244934,-11.703153610229492
1745659863.1772504,-0.021262170746922493,-0.09391897916793823,-0.05268701910972595,0.3720983862876892,-0.7991706728935242,-8.096142768859863
1745659863.179691,-0.010247915983200073,0.10001204162836075,-0.023203779011964798,1.1345049142837524,1.2471078634262085,-9.523298263549805
1745659863.1827555,-0.024695027619600296,-0.06141189485788345,-0.02412310242652893,1.414379358291626,-1.5339518785476685,-8.107783317565918
1745659863.2201233,0.10328216850757599,0.027773309499025345,-0.021174998953938484,2.4422473907470703,0.5508407354354858,-9.560903549194336
1745659863.2242227,0.014416152611374855,-0.027742600068449974,-0.03933967649936676,0.2687341272830963,0.7062146067619324,-13.466967582702637
1745659863.2258298,0.1599457859992981,0.009116629138588905,-0.03720051050186157,0.01710832118988037,-0.9346492886543274,-9.569963455200195
1745659863.2278214,0.0949142724275589,0.049308352172374725,-0.0400032177567482,-0.8648217916488647,0.10340774059295654,-6.27827262878418
1745659863.2608922,0.0006484553450718522,-0.020306149497628212,-0.0564035102725029,-0.29336580634117126,-1.2239137887954712,-9.319543838500977
1745659863.2625287,0.07722369581460953,0.07117893546819687,-0.08306193351745605,0.5562659502029419,1.4240360260009766,-11.954435348510742
1745659863.2663722,-0.003792108502238989,0.06570877879858017,-0.11247887462377548,0.675868570804596,-0.6799231767654419,-10.533132553100586
1745659863.2714882,0.07620391249656677,0.05423213914036751,-0.11500223726034164,1.8733634948730469,-0.7747343182563782,-7.210594177246094
1745659863.275619,-0.07474726438522339,-0.001068434095941484,-0.10109899193048477,0.9093897938728333,-1.4839037656784058,-10.454858779907227
1745659863.3040514,-0.017546281218528748,0.041348110884428024,-0.07005856931209564,0.7239230871200562,-2.2443885803222656,-12.58679485321045
1745659863.3042014,-0.032748203724622726,0.10840432345867157,-0.06437414884567261,0.05428764969110489,0.34566861391067505,-9.15029239654541
1745659863.3070133,-0.027051884680986404,0.023271027952432632,-0.0735306367278099,0.45622530579566956,0.23665110766887665,-6.837281703948975
1745659863.3085318,0.04030923545360565,0.06738852709531784,-0.09562824666500092,0.41431641578674316,1.8402888774871826,-9.892511367797852
1745659863.3488042,0.07281812280416489,0.056567706167697906,-0.13438008725643158,0.08546815812587738,1.2937953472137451,-12.944442749023438
1745659863.3540485,0.12475056946277618,0.07527244091033936,-0.14671775698661804,0.468115895986557,-0.04490353539586067,-9.742213249206543
1745659863.3564758,0.09631159901618958,0.0783955380320549,-0.14433932304382324,-0.1647876501083374,-0.8887922167778015,-7.355740547180176
1745659863.358804,0.07809585332870483,0.045991089195013046,-0.12732857465744019,0.9332820177078247,-1.2163004875183105,-9.537199020385742
1745659863.360267,0.04956080764532089,0.09160260111093521,-0.118984654545784,0.9195892214775085,-0.721987247467041,-11.959176063537598
1745659863.3932674,0.07758070528507233,0.10706321895122528,-0.16055870056152344,0.32781854271888733,-0.47091206908226013,-10.81712818145752
1745659863.3965845,0.0637999027967453,0.09956765174865723,-0.16758553683757782,0.5056385397911072,-0.3125607669353485,-9.248053550720215
1745659863.399575,0.05086154863238335,0.09537170827388763,-0.17877177894115448,0.12607888877391815,0.056722939014434814,-8.675811767578125
1745659863.4319866,0.04741979017853737,0.0911891907453537,-0.18694956600666046,0.4844755232334137,-0.3518809676170349,-10.088537216186523
1745659863.435525,0.07893864810466766,0.09650970250368118,-0.1892455369234085,0.6051241755485535,-0.041804712265729904,-10.570341110229492
1745659863.4396935,0.07240505516529083,0.10073904693126678,-0.18635934591293335,0.8388162851333618,-0.6840389370918274,-9.713029861450195
1745659863.4433324,0.08520736545324326,0.07788104563951492,-0.18229086697101593,0.6538677215576172,-0.37688761949539185,-9.103899002075195
1745659863.4459987,0.08532251417636871,0.08900869637727737,-0.17562255263328552,0.5732396841049194,-0.6685423851013184,-9.857842445373535
1745659863.479218,0.09162451326847076,0.09085296839475632,-0.17527303099632263,0.7001704573631287,-0.3896790146827698,-10.002038955688477
1745659863.4792914,0.08726461976766586,0.08311813324689865,-0.1783631592988968,0.43744951486587524,-0.3238464295864105,-9.526467323303223
1745659863.483017,0.0833817645907402,0.07970664650201797,-0.18751472234725952,0.5108349919319153,-0.33163729310035706,-9.357900619506836
1745659863.4856029,0.06507463753223419,0.08530481904745102,-0.19836966693401337,0.29264768958091736,-0.05544211342930794,-9.81677532196045
1745659863.5182953,0.061097413301467896,0.08186344802379608,-0.20782630145549774,0.6387033462524414,-0.663611650466919,-9.852604866027832
1745659863.5194695,0.05225815623998642,0.08080942183732986,-0.20836296677589417,0.7349387407302856,-0.4445638656616211,-9.358430862426758
1745659863.5217597,0.030201558023691177,0.07715368270874023,-0.20637483894824982,0.671725869178772,-0.8644833564758301,-9.72335433959961
1745659863.5239866,0.04418502375483513,0.08001229912042618,-0.1991644948720932,0.6815625429153442,-0.5439238548278809,-9.689574241638184
1745659863.52652,0.050337355583906174,0.0026446839328855276,-0.2448216676712036,0.6807276606559753,-0.6502555012702942,-9.282812118530273
1745659863.5638542,0.046095188707113266,-0.0058327349834144115,-0.2423998862504959,0.5608829855918884,-0.5367037653923035,-9.600309371948242
1745659863.5667744,0.050721872597932816,-0.0009881156729534268,-0.24092626571655273,0.7497661709785461,-0.8376129269599915,-10.13027572631836
1745659863.5720294,0.04085103049874306,-0.007751543074846268,-0.24177172780036926,0.7483318448066711,-0.5050479769706726,-9.806206703186035
1745659863.5749228,0.03613891080021858,-0.008347162976861,-0.24315576255321503,0.5366179347038269,-0.6700577735900879,-9.538450241088867
1745659863.6070473,0.030744606629014015,-0.018675923347473145,-0.2480321228504181,0.6918234825134277,-0.46258974075317383,-9.629658699035645
1745659863.6103785,0.027985885739326477,-0.011730140075087547,-0.2527659237384796,0.4116113781929016,-0.3041432797908783,-9.937081336975098
1745659863.6111405,0.02491084113717079,-0.013186171650886536,-0.2545751631259918,0.6797710061073303,-0.6551173329353333,-9.75947093963623
1745659863.613553,0.03332534059882164,-0.020221522077918053,-0.25739726424217224,0.4836370050907135,-0.23936763405799866,-9.486761093139648
1745659863.6510334,0.03018907830119133,-0.02166726067662239,-0.2578774392604828,0.6494167447090149,-0.7511022686958313,-9.760072708129883
1745659863.6528263,0.04729536920785904,-0.019636521115899086,-0.24917849898338318,0.5955449342727661,-0.30203601717948914,-9.885862350463867
1745659863.6570332,0.06085915490984917,-0.030086755752563477,-0.24307236075401306,0.24502447247505188,-0.8387867212295532,-9.901803970336914
1745659863.6571376,0.06385678052902222,-0.02299216017127037,-0.2335907518863678,-0.002847266150638461,-0.5666877031326294,-9.58293628692627
1745659863.6592922,0.03588030859827995,-0.04406514763832092,-0.2269255667924881,0.1913340538740158,-1.1355745792388916,-9.498306274414062
1745659863.693627,0.010982898995280266,-0.04910119250416756,-0.21903502941131592,-0.6644089818000793,-0.8053643107414246,-10.294548034667969
1745659863.6979692,-0.01033712923526764,-0.03006548248231411,-0.22738055884838104,-0.14259792864322662,-0.5246893167495728,-9.37627124786377
1745659863.7028534,-0.022909056395292282,-0.02849463000893593,-0.23109367489814758,0.06276585906744003,-0.39627498388290405,-9.217142105102539
1745659863.7068315,-0.05319489911198616,-0.07892855256795883,-0.22815446555614471,0.5853073596954346,-0.7875014543533325,-9.996482849121094
1745659863.733327,-0.040940601378679276,-0.0561583936214447,-0.2185138761997223,0.4473361372947693,-0.7570363879203796,-11.000346183776855
1745659863.7406743,-0.04686441272497177,-0.07694374024868011,-0.20387764275074005,-0.1351422816514969,-0.9196087718009949,-10.068643569946289
1745659863.7407103,-0.07398732751607895,-0.0790766030550003,-0.16075070202350616,-0.2682688534259796,-0.44496479630470276,-10.425800323486328
1745659863.7422242,-0.06014522165060043,-0.07665808498859406,-0.1574041098356247,-0.13182111084461212,-0.3362772464752197,-8.847606658935547
1745659863.7762024,-0.06734783202409744,-0.10443221032619476,-0.1561509072780609,0.013871300034224987,-0.17133353650569916,-9.346150398254395
1745659863.7782602,-0.029099006205797195,-0.08651046454906464,-0.15547530353069305,-0.07399950176477432,-0.09217704087495804,-10.787054061889648
1745659863.780419,-0.04142479971051216,-0.08404044061899185,-0.15638378262519836,0.17451682686805725,-0.4327302575111389,-10.235967636108398
1745659863.7819903,-0.014351879246532917,-0.08530820906162262,-0.15363529324531555,0.09264074265956879,-0.39554208517074585,-9.010502815246582
1745659863.7830715,-0.05328882485628128,-0.09879932552576065,-0.14879414439201355,0.4795849323272705,-0.7445235848426819,-9.536012649536133
1745659863.8205543,-0.037170350551605225,-0.10313548147678375,-0.14212878048419952,0.3410983979701996,-0.6599951982498169,-10.938944816589355
1745659863.8234093,-0.05672001838684082,-0.08385182917118073,-0.13934890925884247,0.22714976966381073,-0.6865809559822083,-10.366520881652832
1745659863.8257124,-0.06462530791759491,-0.09993571043014526,-0.13843336701393127,-0.003418958280235529,-0.55443274974823,-8.955060958862305
1745659863.8275476,-0.07369693368673325,-0.0972214788198471,-0.1375349909067154,-0.12534108757972717,-0.3776381015777588,-9.237154006958008
1745659863.8635395,-0.08012371510267258,-0.09588690102100372,-0.13963092863559723,0.10023243725299835,-0.35158056020736694,-10.602070808410645
1745659863.8685148,-0.05683881789445877,-0.08502764254808426,-0.14182768762111664,-0.09871349483728409,-0.13590048253536224,-10.344566345214844
1745659863.8686244,-0.06498625129461288,-0.08830104023218155,-0.14192946255207062,0.11023686081171036,-0.6066498756408691,-9.221270561218262
1745659863.8714163,-0.05874078348278999,-0.09185198694467545,-0.13336727023124695,-0.03718610852956772,-0.4152633547782898,-9.319811820983887
1745659863.908394,-0.08385704457759857,-0.11684821546077728,-0.04795447736978531,0.9289727210998535,0.5981365442276001,-10.948688507080078
1745659863.9100049,0.08347566425800323,0.08776228129863739,-0.045935917645692825,-0.6983423829078674,-0.06694111973047256,-10.653596878051758
1745659863.9124043,-0.10847525298595428,-0.15357378125190735,-0.047237545251846313,-0.6762055158615112,-1.4289631843566895,-7.628787040710449
1745659863.9135442,-0.0009868026245385408,0.04419062286615372,-0.04164113849401474,2.102964401245117,-1.3491483926773071,-8.35960578918457
1745659863.951102,-0.13964484632015228,-0.043514855206012726,-0.02905295230448246,-1.3571640253067017,1.0001323223114014,-13.765562057495117
1745659863.952817,-0.028020884841680527,-0.04019302502274513,-0.04574451595544815,2.1318793296813965,-1.6777832508087158,-8.843777656555176
1745659863.9554334,0.019154638051986694,0.06934952735900879,-0.049440912902355194,-0.6816481351852417,1.5110502243041992,-7.987311363220215
1745659863.9573004,-0.2968004643917084,-0.1771419793367386,-0.0589364692568779,1.0876433849334717,-2.940263509750366,-10.158493995666504
1745659863.9925036,0.07799126207828522,0.060394834727048874,-0.04716014117002487,-0.351850301027298,0.9946210980415344,-12.76396369934082
1745659863.9951289,-0.2545909285545349,0.031125158071517944,-0.07864855974912643,-0.6596347093582153,0.36875271797180176,-8.983840942382812
1745659863.9982688,0.06831619143486023,-0.025105152279138565,-0.08605700731277466,2.6423332691192627,0.10754112899303436,-5.61699914932251
1745659864.000415,-0.08779583126306534,0.001973486039787531,-0.09778832644224167,1.1589829921722412,0.5959262251853943,-12.019235610961914
1745659864.0027401,0.018926111981272697,-0.035749275237321854,-0.10581009089946747,0.8006467819213867,-0.37904855608940125,-14.422704696655273
1745659864.038658,0.08457251638174057,0.07807411998510361,-0.0941694974899292,0.4604705274105072,-0.3519260287284851,-7.759859561920166
1745659864.0402262,-0.029216712340712547,-0.01206192933022976,-0.07988293468952179,0.099691241979599,-1.4785423278808594,-6.099301815032959
1745659864.0436387,-0.026017487049102783,0.0064629316329956055,-0.08250036090612411,0.7917032241821289,-0.4288455545902252,-11.05980110168457
1745659864.0478516,-0.015220306813716888,0.016620764508843422,-0.11402291059494019,0.25886955857276917,1.1990078687667847,-13.43303394317627
1745659864.0814245,-0.0046266526915133,0.10005700588226318,-0.14607277512550354,0.0991949588060379,0.28012436628341675,-8.53956413269043
1745659864.0835772,-0.026548173278570175,0.017273200675845146,-0.15988372266292572,0.8417844772338867,-0.2617875039577484,-5.820291042327881
1745659864.088375,-0.08838298171758652,-0.015195369720458984,-0.1593414694070816,1.1487656831741333,-1.021864652633667,-11.417424201965332
1745659864.0918243,-0.000556318904273212,0.08537828922271729,-0.18541081249713898,0.2812848687171936,-0.4933260381221771,-13.228605270385742
1745659864.0953643,0.09526865184307098,0.08854718506336212,-0.18367619812488556,0.1970941126346588,0.11305743455886841,-9.365965843200684
1745659864.1225443,0.022278228774666786,0.09579595178365707,-0.18711085617542267,-0.055293817073106766,0.03896446153521538,-6.55863094329834
1745659864.1237898,0.07562517374753952,0.05046416446566582,-0.1909504234790802,0.2764875292778015,0.13396301865577698,-9.216772079467773
1745659864.1260881,0.10424089431762695,0.11170591413974762,-0.2004512995481491,0.5268493890762329,0.3942432105541229,-12.13255786895752
1745659864.1271458,0.0876593217253685,0.10153720527887344,-0.20758052170276642,0.7652471661567688,-0.3676251769065857,-10.423602104187012
1745659864.1659765,0.11803209781646729,0.09252238273620605,-0.2068507969379425,0.7271704077720642,-0.5798010230064392,-7.6513166427612305
1745659864.1671104,0.04699460417032242,0.06967483460903168,-0.20537468791007996,0.7491675615310669,-0.6527255773544312,-9.362504959106445
1745659864.1691203,0.0777321308851242,0.08706498146057129,-0.20123882591724396,0.8480895757675171,-0.61951744556427,-11.452850341796875
1745659864.1714575,0.050168246030807495,0.11287303268909454,-0.2017628699541092,0.580444872379303,-0.4535570740699768,-10.232563018798828
1745659864.2178285,0.05399879068136215,0.07054921239614487,-0.20662638545036316,0.6051167249679565,-0.10500483214855194,-7.871016025543213
1745659864.221194,0.04330107942223549,0.08463245630264282,-0.2129850834608078,0.34002751111984253,0.13514885306358337,-9.320127487182617
1745659864.2259939,0.06412200629711151,0.06712187826633453,-0.2201688587665558,0.5277474522590637,-0.12046078592538834,-11.311182975769043
1745659864.2304428,0.10219793021678925,0.09534429758787155,-0.22460666298866272,0.6083648800849915,0.11506442725658417,-10.236681938171387
1745659864.2337978,0.0778534784913063,0.07103191316127777,-0.22475750744342804,0.4171920418739319,-0.43719130754470825,-8.70729923248291
1745659864.2512538,0.12057282030582428,0.0678177997469902,-0.21965911984443665,0.555125892162323,-0.25338906049728394,-8.794095039367676
1745659864.2538335,0.11265772581100464,0.026997435837984085,-0.2562551498413086,0.5064338445663452,-0.19435489177703857,-9.6480131149292
1745659864.2542453,0.10326837003231049,0.008805317804217339,-0.25821250677108765,0.5719239115715027,-0.41194063425064087,-8.861320495605469
1745659864.255309,0.11309248208999634,0.01653299108147621,-0.26070815324783325,0.7384468913078308,-0.4045714735984802,-9.617753028869629
1745659864.293768,0.08546935021877289,0.005255894269794226,-0.26017260551452637,0.8011071085929871,-0.6916042566299438,-10.457189559936523
1745659864.2963796,0.10017897188663483,0.015480084344744682,-0.26077431440353394,0.6546031832695007,-0.602630615234375,-9.77231216430664
1745659864.2975206,0.06976781040430069,0.006123257800936699,-0.2584289610385895,0.7229244112968445,-0.786908745765686,-9.029973983764648
1745659864.2996118,0.08539313077926636,-0.004069610498845577,-0.2575315833091736,0.5886812806129456,-0.40340352058410645,-9.702523231506348
1745659864.336825,0.06828335672616959,0.0019145343685522676,-0.26057788729667664,0.6950480341911316,-0.4489234387874603,-10.402824401855469
1745659864.338757,0.0897621437907219,-0.004669533111155033,-0.26424509286880493,0.5025838017463684,-0.2753714919090271,-9.850613594055176
1745659864.3415344,0.10158950090408325,0.003065710887312889,-0.26550763845443726,0.4332138001918793,-0.34353506565093994,-9.071393013000488
1745659864.3432355,0.08568187803030014,-0.018223080784082413,-0.2652007043361664,0.6529262065887451,-0.4074071943759918,-9.563563346862793
1745659864.3452585,0.1135532408952713,-0.006308035459369421,-0.2656351923942566,0.6243287920951843,-0.5772998332977295,-10.34542179107666
1745659864.3888535,0.08972731232643127,-0.007318021263927221,-0.263782799243927,0.7226085066795349,-0.6665363907814026,-9.988493919372559
1745659864.393971,0.10326212644577026,-0.019022110849618912,-0.26481419801712036,0.5661771297454834,-0.5526286363601685,-9.296907424926758
1745659864.396145,0.08348937332630157,-0.017015952616930008,-0.26198095083236694,0.7541794776916504,-0.6840173602104187,-9.529022216796875
1745659864.3961868,0.08317288756370544,-0.02714654430747032,-0.26589033007621765,0.6974774599075317,-0.42965245246887207,-10.156660079956055
1745659864.4241393,0.07483907043933868,-0.016318565234541893,-0.2700091004371643,0.5654060244560242,-0.6050767302513123,-10.029351234436035
1745659864.4291484,0.07259541004896164,-0.027568280696868896,-0.2693977952003479,0.5735594630241394,-0.5274122357368469,-9.285062789916992
1745659864.4327981,0.0829254686832428,-0.02185533195734024,-0.271441787481308,0.4865327775478363,-0.38127967715263367,-9.408590316772461
1745659864.4351637,0.06734290719032288,-0.029825370758771896,-0.2720508873462677,0.6567682027816772,-0.4813007712364197,-10.174677848815918
1745659864.4390552,0.08199837803840637,-0.03665290027856827,-0.2789333462715149,0.47194820642471313,-0.5113153457641602,-10.147216796875
1745659864.4664884,0.07220305502414703,-0.03953519091010094,-0.27839186787605286,0.570245623588562,-0.46735715866088867,-9.821032524108887
1745659864.468597,0.09425975382328033,-0.03981979936361313,-0.28176581859588623,0.3906087279319763,-0.46472686529159546,-9.533365249633789
1745659864.4712129,0.07533343136310577,-0.04379456862807274,-0.27991023659706116,0.5874160528182983,-0.6219578981399536,-9.72612190246582
1745659864.4723823,0.08577968925237656,-0.045339033007621765,-0.2803940176963806,0.5476246476173401,-0.4898970127105713,-10.01171588897705
1745659864.5102754,0.07425347715616226,-0.03724424168467522,-0.2845098078250885,0.5672998428344727,-0.7716983556747437,-9.947320938110352
1745659864.5108185,0.0668162852525711,-0.04768287017941475,-0.2833385467529297,0.5331171751022339,-0.7177447080612183,-9.573837280273438
1745659864.5138583,0.06824290007352829,-0.03895508870482445,-0.2839727997779846,0.520362377166748,-0.7115563154220581,-9.67201042175293
1745659864.519763,0.046450406312942505,-0.045350052416324615,-0.28366920351982117,0.5758121609687805,-0.715208113193512,-10.035717964172363
1745659864.5518003,0.07114952802658081,-0.038839392364025116,-0.2844966948032379,0.41939663887023926,-0.6052774786949158,-9.956480979919434
1745659864.5547683,0.05685463547706604,-0.041585516184568405,-0.28486552834510803,0.5206188559532166,-0.5677933096885681,-9.532852172851562
1745659864.5591214,0.06880028545856476,-0.04221712797880173,-0.28398022055625916,0.3604966700077057,-0.4935118556022644,-9.653090476989746
1745659864.561809,0.07569558173418045,-0.033383507281541824,-0.2881084978580475,0.46738529205322266,-0.5247611403465271,-9.9673433303833
1745659864.5651991,0.070557601749897,-0.04421677812933922,-0.2883031964302063,0.5457346439361572,-0.66527259349823,-9.932241439819336
1745659864.5972185,0.0777602344751358,-0.029602736234664917,-0.28782233595848083,0.461497962474823,-0.6983132362365723,-9.755544662475586
1745659864.6008174,0.056636612862348557,-0.04787435382604599,-0.28888437151908875,0.6650342345237732,-0.8529893159866333,-9.747641563415527
1745659864.6029253,0.0362982302904129,-0.02839849330484867,-0.2944774031639099,0.5792268514633179,-0.8802347183227539,-9.86333179473877
1745659864.6052732,0.049867548048496246,-0.02753554843366146,-0.2952697277069092,0.3611327111721039,-0.7138257026672363,-9.73627758026123
1745659864.640265,0.034327320754528046,-0.01940818503499031,-0.29609712958335876,0.5353960394859314,-0.8347053527832031,-9.632195472717285
1745659864.6410773,0.026747995987534523,-0.028347542509436607,-0.2949558198451996,0.5601237416267395,-0.6899005174636841,-9.81755256652832
1745659864.6437235,0.04442727565765381,-0.017322052270174026,-0.29709380865097046,0.4518418312072754,-0.6954166889190674,-9.933279037475586
1745659864.6458502,0.03125646337866783,-0.026157651096582413,-0.2942928969860077,0.4635612964630127,-0.6063092947006226,-9.779897689819336
1745659864.682338,0.05753982067108154,-0.013075416907668114,-0.2955232262611389,0.34616878628730774,-0.61253422498703,-9.654474258422852
1745659864.6858857,0.03883368521928787,-0.02218608930706978,-0.2950141429901123,0.5326687097549438,-0.6875271201133728,-9.714770317077637
1745659864.6890867,0.05700946971774101,-0.022961067035794258,-0.2964931130409241,0.47289595007896423,-0.6208226084709167,-9.895617485046387
1745659864.6921523,0.04391249269247055,-0.015038743615150452,-0.29698455333709717,0.5275056958198547,-0.8668195009231567,-9.858829498291016
1745659864.6952674,0.049820877611637115,-0.021230239421129227,-0.29521244764328003,0.42116594314575195,-0.6856555938720703,-9.614545822143555
1745659864.7265482,0.03954476863145828,-0.012725912034511566,-0.29577401280403137,0.5737282037734985,-0.7668570280075073,-9.577095031738281
1745659864.7290921,0.025892674922943115,-0.023343821987509727,-0.2975310683250427,0.5815533399581909,-0.7334009408950806,-9.964475631713867
1745659864.7326505,0.042667828500270844,-0.01339404284954071,-0.29667219519615173,0.49499478936195374,-0.7400844097137451,-10.062616348266602
1745659864.7354007,0.031346458941698074,-0.018569013103842735,-0.2985484004020691,0.5117189288139343,-0.679137647151947,-9.569181442260742
1745659864.7705052,0.04220079630613327,-0.01912676729261875,-0.2973375916481018,0.36932921409606934,-0.6913090944290161,-9.549382209777832
1745659864.7724495,0.04035058617591858,-0.014960652217268944,-0.295604407787323,0.5311373472213745,-0.6382025480270386,-9.804449081420898
1745659864.7744775,0.04352014884352684,-0.021571699529886246,-0.2968223989009857,0.4501677453517914,-0.6675896048545837,-9.995080947875977
1745659864.7762856,0.05650465562939644,-0.007986808195710182,-0.29422467947006226,0.46457934379577637,-0.7447096109390259,-9.736943244934082
1745659864.8122945,0.028932884335517883,-0.021055644378066063,-0.29996198415756226,0.556706964969635,-0.7154023051261902,-9.976959228515625
1745659864.8161583,0.03658825159072876,-0.009833399206399918,-0.29951047897338867,0.5329915881156921,-0.8431791067123413,-9.902350425720215
1745659864.8194823,0.02318047359585762,-0.02144157700240612,-0.30104872584342957,0.554241955280304,-0.7484663128852844,-9.494935989379883
1745659864.8214421,0.0289628803730011,-0.014550665393471718,-0.2995911240577698,0.3974945545196533,-0.8244439363479614,-9.622408866882324
1745659864.8568032,0.02113223448395729,-0.014970054849982262,-0.2990993857383728,0.584463894367218,-0.756761908531189,-9.795780181884766
1745659864.8619542,0.02748635783791542,-0.019005266949534416,-0.2992081642150879,0.4523013234138489,-0.6896685361862183,-9.813499450683594
1745659864.8644338,0.03571850806474686,-0.008931557647883892,-0.297854483127594,0.49811655282974243,-0.7528368234634399,-9.630988121032715
1745659864.8669634,0.029316473752260208,-0.02163582853972912,-0.29816675186157227,0.4270169734954834,-0.6299530863761902,-9.65910530090332
1745659864.8959389,0.03784887492656708,-0.014892068691551685,-0.2997191846370697,0.4277323782444,-0.7166107892990112,-9.831260681152344
1745659864.8991215,0.02405291050672531,-0.01687992736697197,-0.3001781105995178,0.5469624996185303,-0.7691624164581299,-9.786834716796875
1745659864.9042864,0.04022211581468582,-0.015655750408768654,-0.30041152238845825,0.3942875266075134,-0.7388890981674194,-9.63225269317627
1745659864.906614,0.0248099397867918,-0.016260270029306412,-0.30010324716567993,0.5880517959594727,-0.8593463897705078,-9.533777236938477
1745659864.9100122,0.020971283316612244,-0.017308158800005913,-0.29967817664146423,0.4930895268917084,-0.6924273371696472,-9.817817687988281
1745659864.9406977,0.028444752097129822,-0.009957198984920979,-0.3005674481391907,0.5765714049339294,-0.845844566822052,-9.834981918334961
1745659864.9440823,0.0195904653519392,-0.021040068939328194,-0.3004261553287506,0.4888734221458435,-0.6131475567817688,-9.695276260375977
1745659864.9467628,0.033987775444984436,-0.013861129060387611,-0.30060410499572754,0.4719994068145752,-0.7893248200416565,-9.672028541564941
1745659864.951548,0.016757691279053688,-0.019715558737516403,-0.3013221323490143,0.4290273189544678,-0.7755614519119263,-9.867769241333008
1745659864.9844031,-0.0012901081936433911,-0.022666085511446,-0.2982099652290344,0.49647316336631775,-0.8191474676132202,-9.505561828613281
1745659864.9873936,0.01528218388557434,-0.023800181224942207,-0.29996639490127563,0.3642008900642395,-0.7111057639122009,-9.596318244934082
1745659864.9903514,0.004170596599578857,-0.021725986152887344,-0.29967254400253296,0.6431713700294495,-0.7676969766616821,-9.867345809936523
1745659864.9904854,0.009820206090807915,-0.023291025310754776,-0.29836034774780273,0.3896726369857788,-0.627846896648407,-9.999582290649414
1745659865.0252454,0.015690049156546593,-0.017783042043447495,-0.29621022939682007,0.4443654417991638,-0.9035126566886902,-9.649608612060547
1745659865.0296667,0.009137481451034546,-0.029005900025367737,-0.2984922528266907,0.4537143111228943,-0.5614992380142212,-9.475732803344727
1745659865.0302732,0.016022134572267532,-0.019135665148496628,-0.29930397868156433,0.4503501355648041,-0.8303055763244629,-9.831357955932617
1745659865.0328846,0.012201336212456226,-0.021970294415950775,-0.2978816330432892,0.539151132106781,-0.622239887714386,-9.896013259887695
1745659865.0347643,0.017554448917508125,-0.022351838648319244,-0.3005349040031433,0.38595980405807495,-0.7767593860626221,-9.66387939453125
1745659865.069519,0.01085473783314228,-0.020229879766702652,-0.29854077100753784,0.5318166017532349,-0.827055811882019,-9.56282901763916
1745659865.0717235,0.012417806312441826,-0.025431405752897263,-0.29922720789909363,0.38820725679397583,-0.7448030114173889,-9.87005615234375
1745659865.074128,0.00895782746374607,-0.020383095368742943,-0.29648977518081665,0.48612433671951294,-0.8692512512207031,-9.94701862335205
1745659865.079488,0.0027886549942195415,-0.023039821535348892,-0.29713115096092224,0.4198046624660492,-0.6825430393218994,-9.675973892211914
1745659865.1162648,0.01554037444293499,-0.020133748650550842,-0.2980141043663025,0.39399582147598267,-0.7589541673660278,-9.5762939453125
1745659865.1210005,0.010789433494210243,-0.025679979473352432,-0.2990451455116272,0.505938708782196,-0.6859198808670044,-9.68922233581543
1745659865.1229088,0.010064132511615753,-0.019297147169709206,-0.29796406626701355,0.4618629813194275,-0.7453882694244385,-9.974621772766113
1745659865.1275547,0.01561024785041809,-0.01876741088926792,-0.2987566888332367,0.5463343858718872,-0.8075410723686218,-9.76442813873291
1745659865.1557212,0.010132468305528164,-0.024376943707466125,-0.29789015650749207,0.35218143463134766,-0.6907440423965454,-9.637821197509766
1745659865.1593595,0.003021517302840948,-0.015497560612857342,-0.2935439646244049,0.5002660155296326,-0.9110849499702454,-9.76900863647461
1745659865.1615663,-0.0060828616842627525,-0.02092759497463703,-0.29232215881347656,0.425314337015152,-0.6699733138084412,-9.687149047851562
1745659865.163745,0.0021530254743993282,-0.01753491908311844,-0.2937878370285034,0.4404156804084778,-0.8552626371383667,-9.812910079956055
1745659865.1987648,0.0038905523251742125,-0.020480573177337646,-0.2936747670173645,0.42560434341430664,-0.6108337640762329,-9.751099586486816
1745659865.2009492,0.002261612331494689,-0.01620296575129032,-0.29321321845054626,0.39037102460861206,-0.7237017750740051,-9.777312278747559
1745659865.2044263,0.009555148892104626,-0.01880396530032158,-0.29484400153160095,0.5196200013160706,-0.7731250524520874,-9.652048110961914
1745659865.2049325,0.01079849898815155,-0.018755294382572174,-0.2919479012489319,0.28632989525794983,-0.5819495916366577,-9.786030769348145
1745659865.207053,0.015094292350113392,-0.014026572927832603,-0.29466545581817627,0.5559932589530945,-0.8397040367126465,-9.843976020812988
1745659865.2412996,0.012585560791194439,-0.021716544404625893,-0.29204869270324707,0.3875601887702942,-0.5920466184616089,-9.792478561401367
1745659865.2433197,0.01716011017560959,-0.01791742444038391,-0.2936234474182129,0.5052588582038879,-0.860293984413147,-9.76796817779541
1745659865.2470534,0.0032552178017795086,-0.025022495537996292,-0.29246485233306885,0.4693351686000824,-0.7516343593597412,-9.78911304473877
1745659865.2483728,0.011831677518785,-0.013630511239171028,-0.2913966774940491,0.3186398148536682,-0.8506468534469604,-9.808629035949707
1745659865.2848427,0.002294988604262471,-0.02061476744711399,-0.2925003468990326,0.5910049676895142,-0.7448471188545227,-9.555719375610352
1745659865.2874596,0.002177205868065357,-0.017659874632954597,-0.2933509945869446,0.32614943385124207,-0.6350741386413574,-9.712267875671387
1745659865.2891705,0.004516189452260733,-0.014375099912285805,-0.2926783561706543,0.5289490222930908,-0.8580480813980103,-9.929871559143066
1745659865.290596,0.014929980039596558,-0.020288053900003433,-0.2939961552619934,0.3285321295261383,-0.497077614068985,-9.800971984863281
1745659865.293853,0.013767918571829796,-0.013895198702812195,-0.29273372888565063,0.40594735741615295,-0.8592067956924438,-9.684645652770996
1745659865.32867,0.02937241457402706,-0.011733749881386757,-0.29174596071243286,0.4241538941860199,-0.5525606870651245,-9.805773735046387
1745659865.3317657,0.030472036451101303,-0.00868820957839489,-0.2887195944786072,0.319830060005188,-0.8411318063735962,-9.802814483642578
1745659865.3332183,0.02680203877389431,-0.010847416706383228,-0.28758561611175537,0.5187810659408569,-0.6781136393547058,-9.544390678405762
1745659865.3359923,0.028276752680540085,-0.010143828578293324,-0.2919934391975403,0.36860528588294983,-0.7859640717506409,-9.800354957580566
1745659865.3702655,0.023806829005479813,-0.013107572682201862,-0.28883281350135803,0.5417415499687195,-0.8322988748550415,-9.947839736938477
1745659865.3722465,0.01956501230597496,-0.011419075541198254,-0.2938579022884369,0.382543683052063,-0.6524319052696228,-9.821017265319824
1745659865.373554,0.012213492766022682,-0.009850231930613518,-0.291776567697525,0.5213035941123962,-1.0206654071807861,-9.665982246398926
1745659865.3766828,0.014804571866989136,-0.017186259850859642,-0.29042381048202515,0.4306049942970276,-0.7684251666069031,-9.694234848022461
1745659865.412122,0.005850513465702534,-0.011502630077302456,-0.2903401553630829,0.4495084881782532,-0.7928389310836792,-9.841944694519043
1745659865.418086,0.01066533476114273,-0.01290048100054264,-0.2896232008934021,0.47940558195114136,-0.7580422163009644,-9.783345222473145
1745659865.4181404,0.018586495891213417,-0.00875239446759224,-0.2907792925834656,0.2781028747558594,-0.5430524945259094,-9.630319595336914
1745659865.419132,0.012834301218390465,-0.014803986065089703,-0.28938764333724976,0.6085678339004517,-0.797723650932312,-9.688360214233398
1745659865.4219856,0.02733084186911583,-0.012972411699593067,-0.2909226715564728,0.30850186944007874,-0.5308252573013306,-9.96650505065918
1745659865.4569154,0.024394143372774124,-0.009941643103957176,-0.2911931276321411,0.4616849422454834,-0.8676443099975586,-9.858231544494629
1745659865.4615433,0.020013075321912766,-0.01628151163458824,-0.28908342123031616,0.41271406412124634,-0.7095637917518616,-9.527510643005371
1745659865.4636872,0.016653161495923996,-0.011960233561694622,-0.290701687335968,0.4676750600337982,-0.9338558316230774,-9.696606636047363
1745659865.4760537,0.013616743497550488,-0.018243733793497086,-0.2892494201660156,0.526250958442688,-0.750669538974762,-9.84730339050293
1745659865.500581,0.013886633329093456,-0.00907947774976492,-0.29106229543685913,0.3270265460014343,-0.6864928007125854,-9.816953659057617
1745659865.5047708,0.0017701750621199608,-0.010095365345478058,-0.2919311821460724,0.6069300174713135,-0.843650221824646,-9.541779518127441
1745659865.5066557,0.008803118020296097,-0.014330359175801277,-0.2899027466773987,0.3065078556537628,-0.6100410223007202,-10.110883712768555
1745659865.509722,0.0022648139856755733,-0.013009217567741871,-0.2895929217338562,0.5247358083724976,-0.940586268901825,-9.67045783996582
1745659865.5416405,0.003923989366739988,-0.022237936034798622,-0.2873399555683136,0.3420260548591614,-0.6449700593948364,-9.470118522644043
1745659865.5464818,-0.0016105541726574302,-0.015576064586639404,-0.28816351294517517,0.4405192732810974,-0.903936505317688,-9.867850303649902
1745659865.5472252,0.005222213454544544,-0.02125920169055462,-0.28535106778144836,0.48538485169410706,-0.6674641370773315,-9.866201400756836
1745659865.550781,0.012362388893961906,-0.01044399756938219,-0.28914394974708557,0.30066174268722534,-0.6600320339202881,-9.683682441711426
1745659865.5525389,-0.007002263329923153,-0.01880905032157898,-0.2894567847251892,0.6128930449485779,-0.7932131886482239,-9.514135360717773
1745659865.587301,0.015173658728599548,-0.018563920632004738,-0.2882562577724457,0.33078017830848694,-0.6228953003883362,-9.86484146118164
1745659865.5922992,-0.001810437417589128,-0.017058193683624268,-0.28962111473083496,0.5437831878662109,-0.8457881212234497,-10.029447555541992
1745659865.5990758,0.012539309449493885,-0.019109589979052544,-0.28859296441078186,0.3730911612510681,-0.6008560061454773,-9.70984935760498
1745659865.6010318,0.007157673593610525,-0.015023201704025269,-0.28737956285476685,0.4146769642829895,-0.8352398872375488,-9.543889045715332
1745659865.6294856,0.008785742335021496,-0.025446530431509018,-0.28724539279937744,0.5130523443222046,-0.6536351442337036,-9.663458824157715
1745659865.6317399,0.008500169962644577,-0.014720061793923378,-0.2877565026283264,0.3562150001525879,-0.7728670835494995,-9.972478866577148
1745659865.6330013,0.010120270773768425,-0.017801156267523766,-0.2882319390773773,0.46548500657081604,-0.7651416063308716,-9.747590065002441
1745659865.6350296,0.014363202266395092,-0.018522150814533234,-0.2882985472679138,0.30858850479125977,-0.5563691854476929,-9.51448917388916
1745659865.6374846,0.001666093012318015,-0.01755855791270733,-0.28927403688430786,0.5437766909599304,-0.8761582374572754,-9.785932540893555
1745659865.672041,0.013658791780471802,-0.02039111778140068,-0.2883968949317932,0.4064565598964691,-0.7273708581924438,-10.007673263549805
1745659865.675211,0.00018767845176625997,-0.025616833940148354,-0.2893088757991791,0.36391788721084595,-0.6613823175430298,-9.90046501159668
1745659865.6775138,-0.0022573755122721195,-0.016759639605879784,-0.29357853531837463,0.4196421205997467,-0.6779834032058716,-9.865805625915527
1745659865.6796434,-0.00014508394815493375,-0.025520876049995422,-0.2919745445251465,0.36253148317337036,-0.6151177883148193,-9.578573226928711
1745659865.7158186,0.0075905038975179195,-0.014355799183249474,-0.29310905933380127,0.3566904664039612,-0.632326066493988,-9.617203712463379
1745659865.7171736,-0.00834009051322937,-0.02776857651770115,-0.2921311557292938,0.5640222430229187,-0.8147264719009399,-9.828099250793457
1745659865.7210205,0.007523725740611553,-0.01837940141558647,-0.2912655472755432,0.3480307161808014,-0.6824568510055542,-9.955108642578125
1745659865.722132,-0.010652286931872368,-0.020240386947989464,-0.2909439504146576,0.507046639919281,-0.8941124677658081,-9.733182907104492
1745659865.759196,-0.0005327619728632271,-0.027304207906126976,-0.2892562747001648,0.3023880124092102,-0.6093637347221375,-9.642661094665527
1745659865.7614765,-0.010322889313101768,-0.01656317710876465,-0.2899513244628906,0.4683471620082855,-0.7485154271125793,-9.812171936035156
1745659865.7635958,-0.0033035357482731342,-0.026333853602409363,-0.2885933816432953,0.43921011686325073,-0.6039413213729858,-9.839873313903809
1745659865.7671905,0.014083260670304298,-0.017673280090093613,-0.2899513244628906,0.319293349981308,-0.6646534204483032,-9.70347785949707
1745659865.770506,-0.004286736249923706,-0.022900262847542763,-0.29112640023231506,0.4888785481452942,-0.610538899898529,-9.591489791870117
1745659865.8000274,0.024120137095451355,-0.017283368855714798,-0.29118457436561584,0.26383301615715027,-0.6441369652748108,-9.779141426086426
1745659865.8036008,0.006792739033699036,-0.016146820038557053,-0.28924164175987244,0.48558974266052246,-0.7091824412345886,-9.788108825683594
1745659865.8060672,0.02526686154305935,-0.01845981925725937,-0.28953641653060913,0.39075353741645813,-0.6325898766517639,-9.766031265258789
1745659865.8092532,0.01235362607985735,-0.016302848234772682,-0.29035940766334534,0.43980464339256287,-0.8397213816642761,-9.80374526977539
1745659865.8445117,0.010085051879286766,-0.025266870856285095,-0.2904040813446045,0.424555242061615,-0.6866346597671509,-9.748170852661133
1745659865.848529,0.002283011795952916,-0.011874990537762642,-0.2904767394065857,0.36531567573547363,-0.8507043719291687,-9.769347190856934
1745659865.854023,0.011047730222344398,-0.014841482043266296,-0.2879372835159302,0.45373597741127014,-0.6674196720123291,-9.678525924682617
1745659865.8854492,0.028438305482268333,-0.016668099910020828,-0.2878726124763489,0.38975632190704346,-0.6272632479667664,-9.859410285949707
1745659865.8877006,0.022907759994268417,-0.01075989380478859,-0.2871552109718323,0.41773733496665955,-0.7577789425849915,-9.947149276733398
1745659865.8894165,0.030750419944524765,-0.01861000247299671,-0.28601187467575073,0.40537017583847046,-0.6365545988082886,-9.685831069946289
1745659865.8911033,0.023912664502859116,-0.010502388700842857,-0.28704914450645447,0.43312034010887146,-0.8080309629440308,-9.594606399536133
1745659865.893451,0.012166019529104233,-0.020769016817212105,-0.287606805562973,0.5373141169548035,-0.7590678334236145,-9.793848991394043
1745659865.931095,0.025629887357354164,-0.013727359473705292,-0.28697508573532104,0.3618939518928528,-0.6951391100883484,-9.913637161254883
1745659865.9323313,0.0041489251889288425,-0.01646890863776207,-0.2885700762271881,0.43949905037879944,-0.755104660987854,-9.68856143951416
1745659865.935123,0.0140336062759161,-0.012580709531903267,-0.28669634461402893,0.29543519020080566,-0.7008604407310486,-9.626436233520508
1745659865.9363565,0.013753135688602924,-0.015332412905991077,-0.29028311371803284,0.4351898729801178,-0.6770634651184082,-9.760231018066406
1745659865.973522,0.01162547618150711,-0.020669272169470787,-0.2890152335166931,0.36632227897644043,-0.5738505125045776,-9.964330673217773
1745659865.976978,0.03206735849380493,-0.005391952581703663,-0.2877844274044037,0.4125717580318451,-0.6705288290977478,-9.754305839538574
1745659865.982726,0.014125478453934193,-0.023610321804881096,-0.2879367470741272,0.47727975249290466,-0.8151217699050903,-9.49806022644043
1745659865.986726,0.029317423701286316,-0.013481618836522102,-0.2872186303138733,0.3624015152454376,-0.7419298887252808,-9.805459022521973
1745659865.992383,0.012046616524457932,-0.015714343637228012,-0.2832161784172058,0.4914699196815491,-0.8659817576408386,-9.982487678527832
1745659866.0177746,0.027439933270215988,-0.013318260200321674,-0.28482288122177124,0.27588173747062683,-0.6415797472000122,-9.754873275756836
1745659866.0194988,0.008809272199869156,-0.01240871287882328,-0.28592848777770996,0.5299263596534729,-0.7355127334594727,-9.475194931030273
1745659866.0241675,0.019992666319012642,-0.01551022194325924,-0.28731831908226013,0.5267890691757202,-0.6800877451896667,-9.724798202514648
1745659866.0272956,0.018248731270432472,-0.0231170654296875,-0.2876933813095093,0.3495636582374573,-0.6286761164665222,-9.880351066589355
1745659866.0601087,0.026762161403894424,-0.011008908972144127,-0.28900033235549927,0.476511150598526,-0.8839766383171082,-9.849909782409668
1745659866.063977,0.010573195293545723,-0.0265292190015316,-0.2884991466999054,0.46441587805747986,-0.6515868902206421,-9.572502136230469
1745659866.0659726,0.02100438065826893,-0.014693561010062695,-0.2863754332065582,0.35261520743370056,-0.8759695887565613,-9.7514066696167
1745659866.0681987,0.011022940278053284,-0.015982521697878838,-0.288638174533844,0.47835588455200195,-0.661091685295105,-9.751726150512695
1745659866.1070614,0.019891496747732162,-0.01814628206193447,-0.2877598702907562,0.35034745931625366,-0.7016000151634216,-9.73883056640625
1745659866.1094267,0.014872555620968342,-0.015058169141411781,-0.28605836629867554,0.48105382919311523,-0.7567311525344849,-9.739195823669434
1745659866.112751,0.020002981647849083,-0.02421431988477707,-0.28700581192970276,0.3722512125968933,-0.6417562961578369,-9.848179817199707
1745659866.1152387,0.02194688841700554,-0.014835713431239128,-0.28718480467796326,0.38275378942489624,-0.7671703696250916,-9.856534957885742
1745659866.144195,0.011672258377075195,-0.021563364192843437,-0.2852429747581482,0.39689478278160095,-0.6606987118721008,-9.665666580200195
1745659866.1479177,0.028421077877283096,-0.016171548515558243,-0.2885276675224304,0.3819412291049957,-0.7145506143569946,-9.615140914916992
1745659866.151294,0.017967665567994118,-0.020923707634210587,-0.28667864203453064,0.4872339367866516,-0.6765649914741516,-9.707128524780273
1745659866.155112,0.019000519067049026,-0.014724135398864746,-0.28831246495246887,0.40879374742507935,-0.6386545300483704,-9.903508186340332
1745659866.1575553,0.02179572917521,-0.01531419437378645,-0.2885034680366516,0.49460047483444214,-0.7659257650375366,-9.735082626342773
1745659866.1897895,0.017687680199742317,-0.022734452039003372,-0.2869533896446228,0.36577680706977844,-0.6470600962638855,-9.69862174987793
1745659866.1943393,0.026220178231596947,-0.013197796419262886,-0.2882288992404938,0.4444745182991028,-0.7738932967185974,-9.831890106201172
1745659866.1987355,0.01643427088856697,-0.02225330099463463,-0.2869238257408142,0.3531622886657715,-0.6118171811103821,-9.814413070678711
1745659866.2030807,0.028285443782806396,-0.013454277999699116,-0.29045572876930237,0.3318663537502289,-0.6673963665962219,-9.733268737792969
1745659866.2311256,0.028201889246702194,-0.01474133599549532,-0.2881507873535156,0.4991339147090912,-0.9244104623794556,-9.560463905334473
1745659866.2334218,0.023578723892569542,-0.02176143415272236,-0.289057195186615,0.3090640604496002,-0.6421575546264648,-9.867122650146484
1745659866.234534,0.024735381826758385,-0.010699039325118065,-0.28960102796554565,0.49623751640319824,-0.8890924453735352,-9.956151008605957
1745659866.2346275,0.017475033178925514,-0.019397448748350143,-0.28713688254356384,0.40561461448669434,-0.6528416872024536,-9.714771270751953
1745659866.2815468,0.02239828184247017,-0.018554192036390305,-0.2889142632484436,0.4475855827331543,-0.8667627573013306,-9.6425199508667
1745659866.284545,0.003469699528068304,-0.023367110639810562,-0.28664007782936096,0.4597542881965637,-0.7806930541992188,-9.805821418762207
1745659866.2865205,0.02113230898976326,-0.016870778053998947,-0.28784114122390747,0.21130827069282532,-0.7452171444892883,-9.949721336364746
1745659866.288004,0.014968261122703552,-0.01618189364671707,-0.28748226165771484,0.4763166308403015,-0.7120077013969421,-9.524320602416992
1745659866.2884872,0.015039071440696716,-0.01930013671517372,-0.28831180930137634,0.30406680703163147,-0.5440506935119629,-9.555415153503418
1745659866.31752,0.02002018503844738,-0.013862743973731995,-0.2869071960449219,0.504667341709137,-0.8573471307754517,-9.967355728149414
1745659866.3220117,0.026945674791932106,-0.024156900122761726,-0.2871074974536896,0.3705805242061615,-0.5175734758377075,-9.92910099029541
1745659866.3257248,0.027448445558547974,-0.012153027579188347,-0.2889898717403412,0.35048362612724304,-0.9021150469779968,-9.647490501403809
1745659866.3259993,0.022713596001267433,-0.01917785033583641,-0.2880188226699829,0.4687480032444,-0.6643399000167847,-9.481752395629883
1745659866.3610117,0.02035464160144329,-0.01840275526046753,-0.28776079416275024,0.3817407488822937,-0.8403552770614624,-9.891578674316406
1745659866.36143,0.01663929410278797,-0.015712132677435875,-0.2875913977622986,0.5719742178916931,-0.8130385279655457,-9.920709609985352
1745659866.3665671,0.018535485491156578,-0.01927793398499489,-0.28782951831817627,0.297793447971344,-0.700650691986084,-9.715177536010742
1745659866.3699021,0.01499087642878294,-0.017652874812483788,-0.28630584478378296,0.4225535988807678,-0.7865949273109436,-9.528058052062988
1745659866.403678,0.02773873507976532,-0.02001648023724556,-0.2869933247566223,0.5883023142814636,-0.8081606030464172,-9.738523483276367
1745659866.4072242,0.02299393340945244,-0.01960260048508644,-0.2878209054470062,0.30704811215400696,-0.7508798837661743,-9.752302169799805
1745659866.410618,0.018929360434412956,-0.01658901572227478,-0.2868725657463074,0.4781315326690674,-0.9800155758857727,-9.757954597473145
1745659866.4128852,0.008197118528187275,-0.02130173146724701,-0.2865205705165863,0.40708890557289124,-0.6603790521621704,-9.781147956848145
1745659866.4152625,0.005194519646465778,-0.01608986034989357,-0.2882223427295685,0.41587409377098083,-0.9539434313774109,-9.877405166625977
1745659866.4477475,0.010706724599003792,-0.02161773107945919,-0.28649044036865234,0.4583401679992676,-0.6585599780082703,-9.697216987609863
1745659866.4502673,0.010847358033061028,-0.01796085387468338,-0.2868831157684326,0.3094690442085266,-0.6503051519393921,-9.655145645141602
1745659866.4532206,0.012959154322743416,-0.01880640722811222,-0.28680258989334106,0.48679637908935547,-0.7723754644393921,-9.69420337677002
1745659866.45473,0.02135782316327095,-0.018795618787407875,-0.28698021173477173,0.2687089443206787,-0.5066851377487183,-9.771364212036133
1745659866.4881582,0.022108027711510658,-0.017647787928581238,-0.28757280111312866,0.548862636089325,-0.8566325306892395,-9.819595336914062
1745659866.4905543,0.02455541305243969,-0.02007431909441948,-0.2858859896659851,0.3024691641330719,-0.6182650923728943,-9.781190872192383
1745659866.4944537,0.02610158920288086,-0.016990039497613907,-0.2854352593421936,0.4440278112888336,-0.9178053736686707,-9.753697395324707
1745659866.4946003,0.01301873940974474,-0.023177925497293472,-0.2850736677646637,0.45432692766189575,-0.7086893916130066,-9.727068901062012
1745659866.496245,0.017131512984633446,-0.015584057196974754,-0.28573358058929443,0.32145610451698303,-0.7977463006973267,-9.835840225219727
1745659866.536614,0.012907634489238262,-0.0211402028799057,-0.2852732241153717,0.5238364934921265,-0.7580034732818604,-9.593972206115723
1745659866.5367184,0.01760501228272915,-0.01815163902938366,-0.2875608503818512,0.3053314983844757,-0.5960382223129272,-9.678743362426758
1745659866.5402915,0.006587328854948282,-0.01807844080030918,-0.28538376092910767,0.5506128072738647,-0.8720704317092896,-9.820333480834961
1745659866.540914,0.023239415138959885,-0.020881423726677895,-0.28600043058395386,0.31742510199546814,-0.5625684857368469,-9.862549781799316
1745659866.5759428,0.019743775948882103,-0.02328633703291416,-0.2828478217124939,0.5152188539505005,-0.7743834257125854,-9.651519775390625
1745659866.5785263,0.030668389052152634,-0.01639718934893608,-0.28244465589523315,0.28879866003990173,-0.70338374376297,-9.80296802520752
1745659866.5817175,0.007876954972743988,-0.016641078516840935,-0.285214364528656,0.5701128244400024,-0.8986188173294067,-9.805501937866211
1745659866.5845964,0.027627864852547646,-0.018086520954966545,-0.2828148603439331,0.2858334183692932,-0.6520133018493652,-9.666022300720215
1745659866.6197007,0.013021327555179596,-0.015742480754852295,-0.28240644931793213,0.43240174651145935,-0.8871210813522339,-9.729931831359863
1745659866.622499,0.020546453073620796,-0.02019886113703251,-0.284030944108963,0.41212645173072815,-0.6412297487258911,-9.813419342041016
1745659866.6327727,0.02396935597062111,-0.014098575338721275,-0.28236109018325806,0.3419151306152344,-0.8019510507583618,-9.895622253417969
1745659866.633014,0.01941140927374363,-0.019680239260196686,-0.2818138301372528,0.5205609798431396,-0.7318457365036011,-9.639184951782227
1745659866.6331463,0.021968761458992958,-0.016588512808084488,-0.27895623445510864,0.2530302107334137,-0.7362453937530518,-9.706548690795898
1745659866.6627374,0.01847841776907444,-0.016131166368722916,-0.28074681758880615,0.46693673729896545,-0.8939032554626465,-9.75864315032959
1745659866.6676958,0.021640565246343613,-0.01790964975953102,-0.28210148215293884,0.33365723490715027,-0.5957441926002502,-9.674419403076172
1745659866.6716406,0.007662881165742874,-0.016501551494002342,-0.28335294127464294,0.4471336305141449,-0.914425253868103,-9.804939270019531
1745659866.675713,0.012834343127906322,-0.020397301763296127,-0.2825389504432678,0.3546047806739807,-0.7089656591415405,-9.821577072143555
1745659866.7046947,0.015629172325134277,-0.015031268820166588,-0.2851012349128723,0.32506412267684937,-0.719294011592865,-9.777620315551758
1745659866.7067764,0.003930465318262577,-0.020524729043245316,-0.2842714786529541,0.4814806878566742,-0.8027020692825317,-9.661863327026367
1745659866.709007,0.019534679129719734,-0.014516418799757957,-0.2848302721977234,0.32126206159591675,-0.587001621723175,-9.74715805053711
1745659866.7122226,0.005834221839904785,-0.022980747744441032,-0.28358036279678345,0.5752658247947693,-0.9290935397148132,-9.830526351928711
1745659866.748759,0.02058129943907261,-0.017118681222200394,-0.2791244387626648,0.2675153613090515,-0.6577305793762207,-9.77511978149414
1745659866.7516303,0.032209545373916626,-0.021172409877181053,-0.2746485471725464,0.006575229577720165,-0.8111160397529602,-9.846036911010742
1745659866.7590103,0.019196398556232452,-0.019680336117744446,-0.26896044611930847,-0.16223789751529694,-1.010347604751587,-9.465011596679688
1745659866.7591174,0.0005095369997434318,-0.026419496163725853,-0.2574177384376526,0.07092481851577759,-1.141166090965271,-9.431818962097168
1745659866.7615514,-0.03811421990394592,-0.035727787762880325,-0.2480432093143463,-0.7435458302497864,-1.2907395362854004,-10.481107711791992
1745659866.794352,-0.03274017572402954,-0.02520492672920227,-0.2502838671207428,-0.2219807207584381,-0.5801458358764648,-9.493936538696289
1745659866.7965062,-0.061775125563144684,-0.007492825388908386,-0.2539505958557129,-0.19375772774219513,-0.5067105293273926,-9.223520278930664
1745659866.800074,-0.06802847981452942,-0.07154802978038788,-0.24933865666389465,0.46797075867652893,-0.9751132726669312,-9.820722579956055
1745659866.8026469,-0.05629376322031021,-0.03619474917650223,-0.2386314868927002,0.2753845155239105,-0.715667724609375,-10.837577819824219
1745659866.8335488,-0.0725436583161354,-0.05017350986599922,-0.22675278782844543,-0.21025677025318146,-1.1917086839675903,-10.14623737335205
1745659866.8371105,-0.04315021634101868,-0.040394313633441925,-0.21270494163036346,-0.07377828657627106,-0.9132204055786133,-8.287370681762695
1745659866.838209,-0.07939164340496063,-0.044918082654476166,-0.2053440511226654,0.024207044392824173,-0.39759501814842224,-9.255586624145508
1745659866.8399954,-0.036020148545503616,-0.06527477502822876,-0.20781826972961426,0.11439671367406845,-0.13610392808914185,-10.973649978637695
1745659866.8781679,0.004519812762737274,-0.03766839951276779,-0.20981982350349426,-0.19563618302345276,0.030700892210006714,-10.409042358398438
1745659866.8817072,-0.027949148789048195,-0.05849537253379822,-0.2130003273487091,-0.1956758201122284,-0.6962662935256958,-8.622810363769531
1745659866.8865547,-0.008390029892325401,-0.06288088113069534,-0.21046800911426544,-0.1733090728521347,-0.9339073896408081,-8.967177391052246
1745659866.8890479,-0.0689672902226448,-0.06198534369468689,-0.20185279846191406,4.0471553802490234e-05,-1.3080699443817139,-10.76954460144043
1745659866.8927662,-0.040202267467975616,-0.033467210829257965,-0.19461588561534882,0.09041126072406769,-0.94126957654953,-10.405351638793945
1745659866.9198773,-0.045590098947286606,-0.03073091246187687,-0.1309330314397812,0.008128246292471886,-0.1485307514667511,-9.497896194458008
1745659866.921997,-0.02963997796177864,-0.06029321625828743,-0.1204928308725357,0.11398887634277344,-1.1940504312515259,-7.632255554199219
1745659866.9248478,-0.040242232382297516,-0.06847815960645676,-0.10905271768569946,0.6354070901870728,-0.9200483560562134,-9.940190315246582
1745659866.9626794,-0.11176571995019913,-0.051574140787124634,-0.1073245257139206,-0.07454422116279602,-1.1687400341033936,-12.243718147277832
1745659866.965315,-0.0847557857632637,-0.03599586337804794,-0.10645639896392822,-0.382569283246994,-0.6961571574211121,-9.237656593322754
1745659866.9675422,-0.1487729251384735,-0.03817480802536011,-0.11627782881259918,0.20774762332439423,-0.1787247657775879,-7.272469997406006
1745659866.969182,-0.15651127696037292,-0.06796547770500183,-0.1205475702881813,0.4941789209842682,-0.5227287411689758,-10.638322830200195
1745659866.9713874,-0.13681098818778992,-0.04277036339044571,-0.12305136770009995,0.5000619888305664,-0.4304599165916443,-12.364940643310547
1745659867.0065868,-0.13718155026435852,-0.035728562623262405,-0.11107484251260757,0.05329599231481552,-0.7387081980705261,-9.60935115814209
1745659867.0080726,-0.11345605552196503,-0.039975933730602264,-0.09396260976791382,-0.0156981460750103,-0.5857391357421875,-7.3867340087890625
1745659867.0104773,-0.11139644682407379,-0.055900853127241135,-0.07722748070955276,0.16435606777668,-0.5155967473983765,-10.03593635559082
1745659867.0115366,-0.06354129314422607,-0.03612298518419266,-0.07253162562847137,0.04542536288499832,0.19235333800315857,-11.74207878112793
1745659867.0472946,-0.04551996663212776,-0.010921175591647625,-0.07797978818416595,-0.1251896619796753,0.10908444970846176,-9.76058292388916
1745659867.0494256,-0.026447225362062454,-0.040437597781419754,-0.08742236346006393,-0.22264380753040314,0.20198091864585876,-7.996791839599609
1745659867.0511858,-0.05405134707689285,-0.03969152271747589,-0.0949481651186943,0.2265443503856659,-0.5713719129562378,-9.922479629516602
1745659867.0545232,-0.06593362987041473,-0.021968964487314224,-0.08862847089767456,0.37816762924194336,-1.0494283437728882,-11.506975173950195
1745659867.057928,-0.09342432767152786,-0.013272158801555634,-0.07792316377162933,0.2750244736671448,-1.330248236656189,-9.75062370300293
1745659867.095406,-0.1589227020740509,-0.0179924163967371,-0.06429661810398102,0.4961605668067932,-1.50245201587677,-8.252985000610352
1745659867.0986085,-0.17665433883666992,0.04050799459218979,0.044167108833789825,0.5668787360191345,-0.7482188940048218,-9.372360229492188
1745659867.1019535,-0.17007336020469666,0.03864247724413872,0.05597996711730957,0.5130608677864075,-0.533704400062561,-10.473180770874023
1745659867.105134,-0.16701336205005646,0.06003352999687195,0.06590455025434494,0.3343638777732849,-0.3516154885292053,-10.348960876464844
1745659867.1402202,-0.1646028608083725,0.04927308112382889,0.07432897388935089,0.2879009544849396,-0.03676852583885193,-9.002507209777832
1745659867.1404717,-0.1314477175474167,0.05214787274599075,0.07683701813220978,0.3320559859275818,0.32563698291778564,-9.130273818969727
1745659867.1405156,-0.1294659674167633,0.04620568826794624,0.07641737163066864,0.5355488657951355,0.2774849236011505,-10.53116512298584
1745659867.1442473,-0.09076575934886932,0.05330445617437363,0.07335861027240753,0.34401050209999084,0.37239953875541687,-10.52027702331543
1745659867.1783204,-0.09025706350803375,0.061933137476444244,0.07631973922252655,0.36626702547073364,-0.0753076821565628,-9.219584465026855
1745659867.1812422,-0.0880652517080307,0.04497123509645462,0.08120831102132797,0.2602234482765198,-0.10302411019802094,-9.080931663513184
1745659867.1857076,-0.09473855793476105,0.05498054623603821,0.08798694610595703,0.590809166431427,-0.5003918409347534,-10.166425704956055
1745659867.1869864,-0.10135543346405029,0.0595233216881752,0.09412189573049545,0.6121332049369812,-0.41311001777648926,-10.385396957397461
1745659867.2219656,-0.09133817255496979,0.0637826919555664,0.10180898010730743,0.4461418092250824,-0.3049425184726715,-9.425315856933594
1745659867.2250717,-0.11600528657436371,0.05088172107934952,0.10719230026006699,0.48091593384742737,-0.3597473204135895,-9.178474426269531
1745659867.2274735,-0.1011909693479538,0.057603754103183746,0.11067255586385727,0.28192347288131714,-0.266606867313385,-10.083637237548828
1745659867.2295241,-0.12261472642421722,0.06671463698148727,0.11236649751663208,0.3740074634552002,-0.40931829810142517,-10.239567756652832
1745659867.2298925,-0.12153077125549316,0.058677684515714645,0.11830296367406845,0.1782195270061493,-0.2600805461406708,-9.42223072052002
1745659867.265153,-0.13332858681678772,0.07008916884660721,0.11938299983739853,0.3134539723396301,-0.42266303300857544,-9.211746215820312
1745659867.2675197,-0.13930508494377136,0.04200943186879158,0.18359492719173431,0.2737257480621338,0.09945734590291977,-9.763440132141113
1745659867.269117,-0.1372707635164261,0.043489307165145874,0.1862800419330597,0.5787972211837769,-0.014993617311120033,-9.415950775146484
1745659867.2705307,-0.14013896882534027,0.038622163236141205,0.18989752233028412,0.5077633857727051,0.13938501477241516,-9.68040657043457
1745659867.3085985,-0.13008244335651398,0.04138513281941414,0.19154220819473267,0.5739167928695679,0.003164127469062805,-9.992695808410645
1745659867.3112576,-0.14262685179710388,0.031055519357323647,0.1938394159078598,0.6160367727279663,0.1513548195362091,-9.792951583862305
1745659867.3132637,-0.1344946175813675,0.03824581205844879,0.19508634507656097,0.3892233967781067,0.05566246062517166,-9.59609603881836
1745659867.3180459,-0.1422373503446579,0.027182167395949364,0.19636115431785583,0.57879239320755,0.12284316122531891,-9.542912483215332
1745659867.3501122,-0.13522163033485413,0.026957130059599876,0.20084837079048157,0.30441707372665405,0.19070963561534882,-9.917061805725098
1745659867.3507347,-0.1305919736623764,0.032966531813144684,0.2028142660856247,0.49378737807273865,0.03288951516151428,-9.761757850646973
1745659867.3530438,-0.13039763271808624,0.028739193454384804,0.20254521071910858,0.3963063359260559,0.3557256758213043,-9.457525253295898
1745659867.354329,-0.12573882937431335,0.023935282602906227,0.20613610744476318,0.5531048774719238,-0.02707287296652794,-9.725905418395996
1745659867.3560562,-0.12206728756427765,0.0168941468000412,0.20695316791534424,0.5869287252426147,0.2415502965450287,-10.008848190307617
1745659867.3941088,-0.12213126569986343,0.026337971910834312,0.20840588212013245,0.3301069140434265,-0.06290798634290695,-9.964887619018555
1745659867.3982077,-0.13941018283367157,0.015229985117912292,0.21288982033729553,0.4731796383857727,-0.0663507729768753,-9.367889404296875
1745659867.402262,-0.1390775442123413,0.01919393241405487,0.21498695015907288,0.4170101284980774,0.03618835285305977,-9.446921348571777
1745659867.4069545,-0.15798643231391907,0.015263805165886879,0.21602721512317657,0.6160812973976135,-0.050977159291505814,-10.00213623046875
1745659867.4407585,-0.15215125679969788,0.011039837263524532,0.2179657518863678,0.4481864869594574,0.31916433572769165,-9.981579780578613
1745659867.4452245,-0.15576505661010742,0.016351664438843727,0.2183677703142166,0.489248126745224,0.048741359263658524,-9.550689697265625
1745659867.4477696,-0.14758563041687012,0.009106259793043137,0.2209175080060959,0.43215203285217285,0.3942576050758362,-9.424126625061035
1745659867.463942,-0.127183198928833,-0.019170377403497696,0.25322574377059937,0.42251214385032654,0.4138029217720032,-9.821736335754395
1745659867.4797266,-0.14973627030849457,-0.020352760329842567,0.2550404667854309,0.5025948286056519,0.18900878727436066,-9.435076713562012
1745659867.4890113,-0.1283825933933258,-0.026067713275551796,0.25700175762176514,0.3770086169242859,0.37785959243774414,-9.738080024719238
1745659867.4891582,-0.14490750432014465,-0.013941747136414051,0.2603938579559326,0.45396071672439575,0.3234234154224396,-10.04836654663086
1745659867.4892547,-0.13525256514549255,-0.03301864117383957,0.2595151960849762,0.4220256805419922,0.3398403227329254,-9.825414657592773
1745659867.4893184,-0.1228390708565712,-0.019173026084899902,0.26295939087867737,0.3859657943248749,0.4449273943901062,-9.583112716674805
1745659867.5230258,-0.14754202961921692,-0.029149899259209633,0.26212748885154724,0.44461125135421753,0.28458279371261597,-9.815695762634277
1745659867.524083,-0.1318148970603943,-0.027988415211439133,0.2635310888290405,0.379696786403656,0.31757932901382446,-9.98430347442627
1745659867.525554,-0.15208937227725983,-0.02144867554306984,0.26479634642601013,0.5853001475334167,0.16549944877624512,-9.727787971496582
1745659867.5276225,-0.14971081912517548,-0.03379136323928833,0.2677956819534302,0.38807129859924316,0.35938018560409546,-9.682513236999512
1745659867.5666037,-0.16064725816249847,-0.027119141072034836,0.2680562734603882,0.5360386371612549,0.3089071810245514,-9.815119743347168
1745659867.5666947,-0.15624883770942688,-0.03480803966522217,0.27333495020866394,0.44104886054992676,0.41743677854537964,-9.933711051940918
1745659867.5712914,-0.14458438754081726,-0.021474620327353477,0.27016937732696533,0.3290404677391052,0.5540796518325806,-9.75317096710205
1745659867.5713844,-0.16035035252571106,-0.033973511308431625,0.2741607427597046,0.3916340470314026,0.49284371733665466,-9.639037132263184
1745659867.5728536,-0.1227550059556961,-0.029306519776582718,0.2737763524055481,0.3618662357330322,0.6937498450279236,-9.690790176391602
1745659867.6100585,-0.14175060391426086,-0.027812788262963295,0.2730533480644226,0.4794673025608063,0.5354189276695251,-9.968364715576172
1745659867.6114368,-0.12288258224725723,-0.035502832382917404,0.27470144629478455,0.3129524886608124,0.4895409941673279,-9.976872444152832
1745659867.61449,-0.13256984949111938,-0.02659785747528076,0.2753223776817322,0.49374842643737793,0.2593640685081482,-9.593292236328125
1745659867.6239765,-0.1259981393814087,-0.03432831913232803,0.29008230566978455,0.34398016333580017,0.4979625344276428,-9.915834426879883
1745659867.655091,-0.1327170431613922,-0.028800969943404198,0.29112979769706726,0.4872934818267822,0.7943373322486877,-9.945466041564941
1745659867.6560917,-0.12887981534004211,-0.03139039874076843,0.2920266091823578,0.16781684756278992,0.559683620929718,-9.939212799072266
1745659867.657893,-0.13177111744880676,-0.03213389962911606,0.2907308042049408,0.5011328458786011,0.47158923745155334,-9.497915267944336
1745659867.6717036,-0.1405351608991623,-0.030425231903791428,0.29177892208099365,0.3673989176750183,0.5664613246917725,-9.734970092773438
1745659867.7004402,-0.14870692789554596,-0.029819050803780556,0.29444393515586853,0.5166435837745667,0.38329511880874634,-10.091140747070312
1745659867.716352,-0.1605190485715866,-0.033450908958911896,0.2940788269042969,0.4747281074523926,0.6582207679748535,-9.851791381835938
1745659867.7179177,-0.14868620038032532,-0.027257490903139114,0.2946760058403015,0.4056546688079834,0.45941978693008423,-9.581453323364258
1745659867.7179763,-0.16616395115852356,-0.032894521951675415,0.2973663806915283,0.4584272801876068,0.8250368237495422,-9.614773750305176
1745659867.7180183,-0.15626512467861176,-0.03069746121764183,0.2940237522125244,0.2697337865829468,0.6476469039916992,-10.083528518676758
1745659867.7413359,-0.12883388996124268,-0.027431422844529152,0.2957150340080261,0.49290990829467773,0.9759486317634583,-9.716386795043945
1745659867.7458,-0.1367036998271942,-0.028769996017217636,0.2951919436454773,0.1394883692264557,1.0086919069290161,-9.729180335998535
1745659867.7485793,-0.11429417133331299,-0.03152467682957649,0.29586198925971985,0.39865103363990784,0.6598456501960754,-9.759805679321289
1745659867.75196,-0.11116410791873932,-0.026909325271844864,0.29538124799728394,0.3175056576728821,0.8291624188423157,-9.8159818649292
1745659867.7874491,-0.11502927541732788,-0.021986866369843483,0.2933136522769928,0.3554980158805847,0.44401732087135315,-9.843696594238281
1745659867.7875319,-0.12662610411643982,-0.03234314173460007,0.2976248860359192,0.5373438596725464,0.5556188821792603,-9.591176986694336
1745659867.7908137,-0.13480563461780548,-0.02307545766234398,0.29494011402130127,0.37061020731925964,0.48675721883773804,-9.867021560668945
1745659867.7970784,-0.1415146142244339,-0.028955187648534775,0.29739347100257874,0.582430362701416,0.603830873966217,-9.849594116210938
1745659867.8236346,-0.10830835998058319,-0.02145063504576683,0.29948875308036804,0.45616284012794495,0.7068792581558228,-9.779020309448242
1745659867.8271673,-0.10456494241952896,-0.026711130514740944,0.3004348576068878,0.36925166845321655,0.9554523229598999,-9.75586223602295
1745659867.8301659,-0.11377831548452377,-0.023124312981963158,0.30142009258270264,0.33880525827407837,0.8166295886039734,-9.744653701782227
1745659867.8332434,-0.10470335185527802,-0.030699050053954124,0.3006446361541748,0.49065065383911133,0.6997045874595642,-9.649984359741211
1745659867.8353136,-0.09326765686273575,-0.017183175310492516,0.30225735902786255,0.32053428888320923,0.9641510844230652,-9.760194778442383
1745659867.8686993,-0.12587402760982513,-0.02361207827925682,0.30242031812667847,0.4242173135280609,0.6674747467041016,-9.813567161560059
1745659867.8791733,-0.09022220224142075,-0.026254141703248024,0.30483075976371765,0.3959715962409973,0.9899337887763977,-9.570541381835938
1745659867.8831058,-0.10938962548971176,-0.018541615456342697,0.3033604323863983,0.49133196473121643,0.9073981046676636,-9.7439546585083
1745659867.8866735,-0.1014196127653122,-0.0334441140294075,0.3037506937980652,0.3884667158126831,1.003785252571106,-10.00577449798584
1745659867.908845,-0.09180381894111633,-0.018657570704817772,0.29972535371780396,0.38249990344047546,0.8370765447616577,-9.719213485717773
1745659867.9115827,-0.10140474140644073,-0.024156998842954636,0.3038408160209656,0.3928963243961334,0.9275439977645874,-9.438830375671387
1745659867.914734,-0.0953047126531601,-0.02695353887975216,0.30365923047065735,0.38963085412979126,0.8492474555969238,-9.687444686889648
1745659867.9196758,-0.10241787135601044,-0.02651749551296234,0.30286797881126404,0.523979663848877,0.8645544052124023,-9.959127426147461
1745659867.921405,-0.07601754367351532,-0.022922517731785774,0.3050491213798523,0.27824512124061584,1.0833897590637207,-9.802106857299805
1745659867.9535167,-0.0967879667878151,-0.02157445251941681,0.3041839599609375,0.3950496315956116,0.8846015930175781,-9.519639015197754
1745659867.9562764,-0.07736198604106903,-0.03035128489136696,0.3068309724330902,0.35905125737190247,0.8872462511062622,-9.618030548095703
1745659867.962456,-0.07236713916063309,-0.01700766757130623,0.3039490580558777,0.4175940454006195,0.9674443006515503,-9.853097915649414
1745659867.96252,-0.08622317016124725,-0.031174462288618088,0.30671072006225586,0.35006648302078247,0.8833368420600891,-9.901349067687988
1745659867.9966617,-0.06761890649795532,-0.026196029037237167,0.30503731966018677,0.5106767416000366,1.0817769765853882,-9.640726089477539
1745659867.9996061,-0.07044810056686401,-0.02818630076944828,0.30409449338912964,0.177723690867424,1.068178415298462,-9.903477668762207
1745659868.0005417,-0.041294194757938385,-0.025389891117811203,0.3044690489768982,0.43026572465896606,1.0831471681594849,-9.577442169189453
1745659868.0041003,-0.049581632018089294,-0.027545522898435593,0.3047102689743042,0.32903680205345154,1.2241384983062744,-9.613967895507812
1745659868.0370057,-0.033950161188840866,-0.026844728738069534,0.30365729331970215,0.3085138201713562,1.0247716903686523,-9.908963203430176
1745659868.0382094,-0.04138733819127083,-0.028192739933729172,0.3015516996383667,0.43066367506980896,0.9850705862045288,-9.7927827835083
1745659868.0403306,-0.03096599504351616,-0.019706372171640396,0.30038565397262573,0.3118165135383606,0.9200641512870789,-9.570703506469727
1745659868.0430446,-0.04689530283212662,-0.030583534389734268,0.3012334704399109,0.5827207565307617,0.7708805203437805,-9.549530029296875
1745659868.0452657,-0.05689801648259163,-0.030286479741334915,0.30356138944625854,0.3823246955871582,0.8860454559326172,-9.985528945922852
1745659868.0836437,-0.043611086905002594,-0.02284112200140953,0.3007732033729553,0.4924702048301697,0.7979653477668762,-9.834479331970215
1745659868.0844114,-0.060718096792697906,-0.027808794751763344,0.30379945039749146,0.2929980456829071,1.1967869997024536,-9.500303268432617
1745659868.0866446,-0.05577779933810234,-0.027694931253790855,0.303742378950119,0.36274591088294983,0.804827094078064,-9.64167308807373
1745659868.0888147,-0.035647861659526825,-0.03073061630129814,0.300746351480484,0.46415776014328003,1.3116681575775146,-9.756927490234375
1745659868.1269047,-0.044296327978372574,-0.0221346877515316,0.30031269788742065,0.11715050041675568,1.1489458084106445,-10.020598411560059
1745659868.1269827,-0.020319554954767227,-0.030908500775694847,0.3005194664001465,0.49766048789024353,1.0045748949050903,-9.54129409790039
1745659868.1296263,-0.02178010903298855,-0.024877574294805527,0.30005791783332825,0.26950645446777344,1.1375300884246826,-9.580558776855469
1745659868.1309366,-0.017933372408151627,-0.028718436136841774,0.3003613352775574,0.4300746023654938,0.8472526669502258,-9.893312454223633
1745659868.1681361,-0.026909884065389633,-0.02895406261086464,0.3023960292339325,0.40706974267959595,0.9694305658340454,-9.84813404083252
1745659868.1707904,-0.002544171642512083,-0.023264888674020767,0.29887253046035767,0.340674489736557,0.99346923828125,-9.572491645812988
1745659868.173601,-0.010394507087767124,-0.021424511447548866,0.2991371750831604,0.5033600330352783,0.8688586950302124,-9.710454940795898
1745659868.1754904,-0.0030037176329642534,-0.02947825752198696,0.29752302169799805,0.40157389640808105,0.9752867817878723,-9.910906791687012
1745659868.2091835,-0.006930701434612274,-0.010599729605019093,0.2993636727333069,0.2849622964859009,1.098348617553711,-9.803746223449707
1745659868.2115915,-0.021323245018720627,-0.027195334434509277,0.2981065511703491,0.3883463740348816,0.8437261581420898,-9.549723625183105
1745659868.2139573,0.010950075462460518,-0.02085285447537899,0.29669609665870667,0.3394795358181,1.204960584640503,-9.575654983520508
