timestamp,angular_vel_x,angular_vel_y,angular_vel_z,linear_acc_x,linear_acc_y,linear_acc_z
1745671689.8069968,0.12251260131597519,-0.009460248053073883,-0.3411836326122284,0.9785523414611816,-0.7216149568557739,-9.575675964355469
1745671689.807099,0.12886375188827515,-0.0222866740077734,-0.3408202528953552,0.9692295789718628,-0.3703121542930603,-9.762697219848633
1745671689.8071523,0.12227757275104523,-0.019163986667990685,-0.3436421751976013,0.8877032995223999,-0.3755640685558319,-10.098005294799805
1745671689.8072026,0.13927868008613586,-0.02773192897439003,-0.3445335924625397,0.999057412147522,-0.45829781889915466,-9.924079895019531
1745671689.8072388,0.11197378486394882,-0.10208757221698761,-0.38034480810165405,0.7368978261947632,-0.47577571868896484,-9.756686210632324
1745671689.8072748,0.11290106922388077,-0.10034897178411484,-0.379603773355484,0.8522363901138306,-0.9096077680587769,-9.793848037719727
1745671689.807309,0.1146836057305336,-0.10711425542831421,-0.38036811351776123,0.6179035305976868,-0.5087161660194397,-9.79506778717041
1745671689.807345,0.11718559265136719,-0.09979569166898727,-0.37831956148147583,0.8129671216011047,-0.733303427696228,-9.777376174926758
1745671689.837151,0.11224188655614853,-0.10818365961313248,-0.3781333863735199,0.7653341889381409,-0.6154633164405823,-9.734137535095215
1745671689.8382957,0.12837904691696167,-0.10531838238239288,-0.3792688250541687,0.7417377233505249,-0.5636147260665894,-9.770294189453125
1745671689.8418834,0.11631105840206146,-0.1056671291589737,-0.38000553846359253,0.8156993985176086,-0.6618703603744507,-9.823624610900879
1745671689.8421683,0.123766228556633,-0.10233864933252335,-0.37982606887817383,0.6320234537124634,-0.6968464255332947,-9.825007438659668
1745671689.8487182,0.13241152465343475,-0.10528559982776642,-0.3800894320011139,0.8448279500007629,-0.6349168419837952,-9.653566360473633
1745671689.883939,0.1051434874534607,-0.10629315674304962,-0.38002142310142517,0.5611695051193237,-0.7661224007606506,-9.865952491760254
1745671689.8876972,0.13607528805732727,-0.10335367918014526,-0.38224583864212036,0.7876052856445312,-0.6831945180892944,-9.699507713317871
1745671689.897358,0.09316401183605194,-0.09988296031951904,-0.38165992498397827,0.7577574253082275,-0.5633202195167542,-9.62532901763916
1745671689.897411,0.12209875881671906,-0.09757775813341141,-0.3835720419883728,0.6374861598014832,-0.7894524931907654,-9.793111801147461
1745671689.9278622,0.11447372287511826,-0.104689821600914,-0.3836591839790344,0.7617246508598328,-0.6561580896377563,-9.7948637008667
1745671689.9378006,0.11234559863805771,-0.09412383288145065,-0.38602393865585327,0.5568829774856567,-0.637552797794342,-9.823951721191406
1745671689.9379928,0.12203732877969742,-0.0997939482331276,-0.38249915838241577,0.7380720973014832,-0.7943223714828491,-9.592745780944824
1745671689.9381082,0.10929492861032486,-0.10048194974660873,-0.3842877745628357,0.6276318430900574,-0.6173475384712219,-9.61161994934082
1745671689.9382062,0.11463432013988495,-0.09232641756534576,-0.3826252520084381,0.6953520774841309,-0.8109358549118042,-9.914326667785645
1745671689.9706445,0.10932902246713638,-0.09773693233728409,-0.38446149230003357,0.6163832545280457,-0.8651590347290039,-9.856425285339355
1745671689.971841,0.11677531898021698,-0.09120605885982513,-0.3858937919139862,0.6621459126472473,-0.5400371551513672,-9.586703300476074
1745671689.9791715,0.09285600483417511,-0.09920806437730789,-0.3865985870361328,0.6223519444465637,-0.9512447118759155,-9.787354469299316
1745671689.9804842,0.08882821351289749,-0.08148617297410965,-0.39070773124694824,0.6784371137619019,-0.9175199270248413,-9.680370330810547
1745671690.0134091,0.07834364473819733,-0.07793079316616058,-0.38938409090042114,0.5073026418685913,-0.6962665915489197,-9.782175064086914
1745671690.0146823,0.08315402269363403,-0.07105259597301483,-0.3933708071708679,0.6004589200019836,-0.9210338592529297,-9.778836250305176
1745671690.0167131,0.08201737701892853,-0.0738939493894577,-0.39010220766067505,0.5917942523956299,-0.7207695841789246,-9.514129638671875
1745671690.019765,0.06904460489749908,-0.06633983552455902,-0.3901650309562683,0.6590153574943542,-0.7302024364471436,-9.63555908203125
1745671690.0621114,0.07881848514080048,-0.07009633630514145,-0.3935565948486328,0.6504077911376953,-0.9108306169509888,-9.928227424621582
1745671690.062163,0.08447727560997009,-0.0639144778251648,-0.3933474123477936,0.4163455069065094,-0.610916793346405,-9.851665496826172
1745671690.0622032,0.07604995369911194,-0.06308315694332123,-0.3928675651550293,0.6824004054069519,-0.9651586413383484,-9.543517112731934
1745671690.0622306,0.07861341536045074,-0.06484298408031464,-0.39254236221313477,0.4533044695854187,-0.6977264285087585,-9.522467613220215
1745671690.0961733,0.07668989896774292,-0.058845359832048416,-0.3921082615852356,0.6595777273178101,-0.9155367612838745,-9.77113151550293
1745671690.10102,0.06579919159412384,-0.05657777190208435,-0.3948836326599121,0.542004406452179,-0.8767436146736145,-9.899068832397461
1745671690.1040866,0.07280309498310089,-0.05436301976442337,-0.3935457468032837,0.5285540819168091,-0.9124791026115417,-9.717742919921875
1745671690.1080601,0.05784086510539055,-0.059645045548677444,-0.393991619348526,0.6971282362937927,-0.8690893054008484,-9.618667602539062
1745671690.1113894,0.05332701653242111,-0.054954200983047485,-0.39337509870529175,0.4228416979312897,-0.9117929339408875,-9.85554027557373
1745671690.1420746,0.06530248373746872,-0.04884367436170578,-0.3948925733566284,0.6755409836769104,-0.8859769105911255,-9.657793045043945
1745671690.1450398,-0.0023134590592235327,-0.0037907802034169436,-0.39272207021713257,0.7471774816513062,-1.0371904373168945,-9.515642166137695
1745671690.1465633,-0.004450321197509766,-0.005472402088344097,-0.39261752367019653,0.5520556569099426,-0.8383312225341797,-9.827018737792969
1745671690.148268,0.0016538935014978051,-0.00046050717355683446,-0.3925310969352722,0.6106852889060974,-0.9462628364562988,-10.014792442321777
1745671690.1847262,-0.008885001763701439,-0.0015691801672801375,-0.391200989484787,0.5333296060562134,-0.7928386926651001,-9.739571571350098
1745671690.1857495,-0.0004948310670442879,0.0018455914687365294,-0.3915789723396301,0.4565657675266266,-0.862795352935791,-9.50956916809082
1745671690.1877913,-0.0032491148449480534,-0.0035992797929793596,-0.3930986523628235,0.6609588265419006,-0.8072910308837891,-9.540216445922852
1745671690.1900642,-0.01776750572025776,0.00438875425606966,-0.39491575956344604,0.4999295175075531,-0.7813864946365356,-9.936755180358887
1745671690.1952724,0.003135982435196638,0.005840861238539219,-0.3939327597618103,0.6553850173950195,-0.9795864224433899,-9.879755020141602
1745671690.2271588,-0.009427258744835854,0.0007332718232646585,-0.39258143305778503,0.47513967752456665,-0.6887480020523071,-9.607723236083984
1745671690.2316177,-0.004842156544327736,0.004273868631571531,-0.39124664664268494,0.6590462327003479,-1.065119743347168,-9.67712688446045
1745671690.232417,-0.006421117577701807,-0.0008878869703039527,-0.3912825286388397,0.5805260539054871,-0.7314714193344116,-9.74841594696045
1745671690.2342358,-0.010990222916007042,0.01031806506216526,-0.3891071379184723,0.5472515821456909,-0.8626444935798645,-9.743165969848633
1745671690.2672665,-0.013540083542466164,0.0037407069467008114,-0.3896360993385315,0.665704607963562,-0.8993589282035828,-9.624685287475586
1745671690.2696865,-0.010336540639400482,0.0056387619115412235,-0.3880484700202942,0.4697827398777008,-0.8231087923049927,-9.748172760009766
1745671690.2723925,-0.01647094264626503,0.0051849232986569405,-0.3898845911026001,0.6636712551116943,-0.8817617297172546,-9.864773750305176
1745671690.274435,-0.023836106061935425,0.005726425442844629,-0.3892814815044403,0.4066767692565918,-0.8596655130386353,-9.826522827148438
1745671690.2771726,-0.0019222976407036185,0.009775524027645588,-0.3906506896018982,0.6574691534042358,-0.7944754362106323,-9.457784652709961
1745671690.314187,-0.04031817987561226,0.006630246993154287,-0.3893962800502777,0.6764098405838013,-0.8492926359176636,-9.585229873657227
1745671690.3190742,-0.004234235268086195,0.011571365408599377,-0.3875739574432373,0.5702040791511536,-0.8431699872016907,-9.933903694152832
1745671690.3216941,-0.02179962582886219,0.006808160804212093,-0.3884938359260559,0.6370021104812622,-0.8143206834793091,-9.904726028442383
1745671690.3237329,-0.0143309086561203,0.0120966462418437,-0.3850593566894531,0.5026344656944275,-0.8519999384880066,-9.69831657409668
1745671690.3567946,-0.021607737988233566,0.00500028720125556,-0.37886327505111694,0.4932785630226135,-0.8285578489303589,-9.675785064697266
1745671690.358245,-0.01607556827366352,0.0067790658213198185,-0.38014668226242065,0.6140762567520142,-0.7102780938148499,-9.83973503112793
1745671690.3603451,-0.03129073232412338,0.0023531760089099407,-0.38150671124458313,0.5751010179519653,-0.7851927280426025,-9.870948791503906
1745671690.3623862,-0.009309452958405018,0.0077622695825994015,-0.3810836374759674,0.5397432446479797,-0.7313209176063538,-9.648321151733398
1745671690.3988318,-0.03364936262369156,0.0001508839486632496,-0.379228413105011,0.6992881894111633,-0.857940673828125,-9.58428955078125
1745671690.402713,-0.020707935094833374,0.002756132511422038,-0.38070380687713623,0.5071648359298706,-0.7636319398880005,-9.876818656921387
1745671690.4071658,-0.031088287010788918,0.004811638034880161,-0.37726449966430664,0.699816107749939,-1.0278232097625732,-9.866392135620117
1745671690.410992,-0.0320802666246891,4.00028184230905e-05,-0.3779849708080292,0.5532875657081604,-0.6962675452232361,-9.632547378540039
1745671690.4412014,-0.035222966223955154,0.0005312339635565877,-0.3770917057991028,0.627975583076477,-0.901253342628479,-9.749088287353516
1745671690.443138,-0.024038638919591904,-0.005213020835071802,-0.37611645460128784,0.6341761350631714,-0.677784264087677,-9.736800193786621
1745671690.4463658,-0.03881244361400604,0.004475048743188381,-0.377551794052124,0.6310688853263855,-0.6818928718566895,-9.794700622558594
1745671690.4487207,-0.026966068893671036,-0.002946480643004179,-0.37539857625961304,0.6179910898208618,-0.8799991607666016,-9.755894660949707
1745671690.450055,-0.01648111827671528,-0.0010838897433131933,-0.37621718645095825,0.44813117384910583,-0.5572631359100342,-9.713708877563477
1745671690.4875212,-0.028440972790122032,-0.001496937358751893,-0.3744337558746338,0.6692522168159485,-0.8950684666633606,-9.74749755859375
1745671690.4892943,-0.017235925421118736,-0.004096352960914373,-0.37479373812675476,0.5172163248062134,-0.6812631487846375,-9.715097427368164
1745671690.492792,-0.031440459191799164,-0.024718428030610085,-0.3597778081893921,0.6297741532325745,-0.9200113415718079,-9.849308967590332
1745671690.4974508,-0.007489442825317383,-0.02568502351641655,-0.3567798435688019,0.42988714575767517,-0.5907540321350098,-9.708380699157715
1745671690.5281498,-0.02037953771650791,-0.02343352697789669,-0.3567701280117035,0.6928861141204834,-0.6809991002082825,-9.642098426818848
1745671690.5321772,-0.01910586655139923,-0.029223591089248657,-0.3573608696460724,0.5756523013114929,-0.763840913772583,-9.758962631225586
1745671690.535239,-0.0006941409083083272,-0.024380214512348175,-0.35357508063316345,0.5672975182533264,-0.5834559202194214,-9.788485527038574
1745671690.5400066,-0.020412873476743698,-0.03024398908019066,-0.3544010818004608,0.5729660391807556,-0.7221254110336304,-9.854166984558105
1745671690.5412726,0.004021333064883947,-0.024209028109908104,-0.3535396456718445,0.47050729393959045,-0.5587574243545532,-9.789749145507812
1745671690.570739,-0.008381561376154423,-0.03233850747346878,-0.35439062118530273,0.7062581777572632,-0.756675124168396,-9.666229248046875
1745671690.5810754,-0.01049154531210661,-0.03247841075062752,-0.35273945331573486,0.5283449292182922,-0.6457921266555786,-9.785833358764648
1745671690.5812318,-0.012954851612448692,-0.030669545754790306,-0.3540402054786682,0.6626847982406616,-0.8935494422912598,-9.84180736541748
1745671690.5836318,-0.010817763395607471,-0.032215651124715805,-0.3536735773086548,0.5315268635749817,-0.6321879625320435,-9.64941120147705
1745671690.6122382,-0.020378924906253815,-0.026553969830274582,-0.34910646080970764,0.5376681685447693,-0.7853952050209045,-9.679716110229492
1745671690.6146815,-0.007904517464339733,-0.03873670473694801,-0.34957414865493774,0.580873429775238,-0.7819262742996216,-9.833741188049316
1745671690.616181,-0.006892411969602108,-0.030462950468063354,-0.3525221049785614,0.46051549911499023,-0.3631783425807953,-9.764820098876953
1745671690.6172793,-0.012999665923416615,-0.029884416610002518,-0.3474833071231842,0.64702308177948,-0.8588917851448059,-9.71263599395752
1745671690.619722,0.006993921007961035,-0.029717499390244484,-0.3507280945777893,0.42919808626174927,-0.3988783359527588,-9.55573844909668
1745671690.657544,-0.009877422824501991,-0.03343256562948227,-0.3493247330188751,0.6521154642105103,-0.8368813395500183,-9.826319694519043
1745671690.6614356,0.0011123793665319681,-0.032316990196704865,-0.34960898756980896,0.4980227053165436,-0.7013673782348633,-9.99570369720459
1745671690.6689045,0.0007577965152449906,-0.02911321446299553,-0.3472277522087097,0.6105911135673523,-0.7191036939620972,-9.701632499694824
1745671690.672304,-0.012860956601798534,-0.0376725047826767,-0.34638601541519165,0.6424874067306519,-0.807329535484314,-9.558991432189941
1745671690.7014287,0.006291797850281,-0.03232844918966293,-0.3421277403831482,0.4288201928138733,-0.5506649613380432,-9.945436477661133
1745671690.7052147,0.0035166169982403517,-0.03216783329844475,-0.3432517945766449,0.6802808046340942,-0.7511591911315918,-9.690788269042969
1745671690.7112672,-0.010365414433181286,-0.03520755469799042,-0.3417132496833801,0.45872563123703003,-0.6609264612197876,-9.561923027038574
1745671690.7437425,0.008202331140637398,-0.034267179667949677,-0.34112927317619324,0.6116955280303955,-0.6598786115646362,-9.71252727508545
1745671690.7469993,-0.020126905292272568,-0.03180193156003952,-0.3436323404312134,0.4675021171569824,-0.6669293642044067,-9.984994888305664
1745671690.7508223,0.007640389259904623,-0.027017246931791306,-0.3424990773200989,0.48062315583229065,-0.7571983337402344,-9.78022575378418
1745671690.75433,-0.003959552384912968,-0.036257095634937286,-0.3420944809913635,0.6498886942863464,-0.6135692596435547,-9.426321029663086
1745671690.7588465,-0.0115354610607028,-0.03142821043729782,-0.3422083854675293,0.4848979413509369,-0.7003998160362244,-9.806875228881836
1745671690.7930362,0.00909899827092886,-0.028565045446157455,-0.3393501341342926,0.6120890378952026,-0.6632846593856812,-9.915105819702148
1745671690.793128,-0.009331179782748222,-0.02792990580201149,-0.3398025631904602,0.45233240723609924,-0.5975094437599182,-9.79773235321045
1745671690.794917,0.009480874985456467,-0.0318581722676754,-0.3376602530479431,0.5945543050765991,-0.751305341720581,-9.660812377929688
1745671690.7986133,-0.0045243543572723866,-0.0378694012761116,-0.33653897047042847,0.46578922867774963,-0.6150866746902466,-9.779488563537598
1745671690.830115,0.007285694591701031,-0.027574336156249046,-0.33709609508514404,0.4958990216255188,-0.6676536202430725,-9.847908020019531
1745671690.8331835,-0.011896402575075626,-0.03532807528972626,-0.33785614371299744,0.6083542704582214,-0.768719494342804,-9.64858627319336
1745671690.834631,0.006930752657353878,-0.030617494136095047,-0.3358381390571594,0.4617275297641754,-0.5496705770492554,-9.592092514038086
1745671690.837645,0.00785681139677763,-0.019888559356331825,-0.32383492588996887,0.39833882451057434,-0.5968881249427795,-9.771867752075195
1745671690.8719397,0.0074505009688436985,-0.02301262505352497,-0.32532820105552673,0.6318771839141846,-0.7376471161842346,-9.872964859008789
1745671690.876133,-0.006975908763706684,-0.021428337320685387,-0.3232356011867523,0.4214097857475281,-0.5129014253616333,-9.828987121582031
1745671690.8869424,0.011782493442296982,-0.020839061588048935,-0.32632219791412354,0.5611189007759094,-0.7608491778373718,-9.682805061340332
1745671690.887107,-0.005508864298462868,-0.023430874571204185,-0.32365289330482483,0.471569687128067,-0.5216886401176453,-9.551919937133789
1745671690.9137924,-0.003698438871651888,-0.018734633922576904,-0.326213538646698,0.4499765932559967,-0.7469815015792847,-9.863706588745117
1745671690.9170973,0.009982042014598846,-0.02144116535782814,-0.32383814454078674,0.47992783784866333,-0.632813572883606,-9.834381103515625
1745671690.9179103,-0.0035889125429093838,-0.019758451730012894,-0.32331782579421997,0.3441579341888428,-0.5465694665908813,-9.716580390930176
1745671690.9198956,0.008734246715903282,-0.021853569895029068,-0.3231239914894104,0.6268364787101746,-0.7941501140594482,-9.650233268737793
1745671690.9221663,-0.0011695593129843473,-0.02245820313692093,-0.32278093695640564,0.41862592101097107,-0.5230060815811157,-9.73176097869873
1745671690.9592113,0.002989598084241152,-0.018799256533384323,-0.32254558801651,0.5632308721542358,-0.7407083511352539,-9.81814956665039
1745671690.9614031,-0.005936956498771906,-0.021481070667505264,-0.32294973731040955,0.4235059320926666,-0.6566367745399475,-9.756002426147461
1745671690.963483,0.001749694929458201,-0.016563117504119873,-0.3239913582801819,0.4939850866794586,-0.6980117559432983,-9.701517105102539
1745671690.965452,-0.0190537478774786,-0.02627878449857235,-0.31982263922691345,0.5729309320449829,-0.6625202894210815,-9.776599884033203
1745671691.0011535,-0.003262776415795088,-0.018733952194452286,-0.32336434721946716,0.38189613819122314,-0.6461160778999329,-9.896463394165039
1745671691.0029671,-0.0008950166520662606,-0.017778877168893814,-0.32420897483825684,0.5706949234008789,-0.5566848516464233,-9.599101066589355
1745671691.005001,-0.020935364067554474,-0.018600154668092728,-0.3216496407985687,0.3994356691837311,-0.5799340009689331,-9.637674331665039
1745671691.0075517,0.015271736308932304,-0.017041098326444626,-0.3233347237110138,0.4984270930290222,-0.5748371481895447,-9.806634902954102
1745671691.0109172,-0.006849915720522404,-0.022822704166173935,-0.32074040174484253,0.3935862183570862,-0.5417238473892212,-9.901845932006836
1745671691.0523806,0.01940133608877659,-0.010800555348396301,-0.32119402289390564,0.5157657861709595,-0.6415445804595947,-9.774301528930664
1745671691.0525353,0.003997522406280041,-0.02184450440108776,-0.31975674629211426,0.5111382603645325,-0.5756900310516357,-9.534387588500977
1745671691.0525868,0.011280003935098648,-0.014909033663570881,-0.3177523612976074,0.34204983711242676,-0.5114892721176147,-9.814054489135742
1745671691.0546265,-0.005871949717402458,-0.017539430409669876,-0.31845226883888245,0.5069813132286072,-0.5989301800727844,-9.815325736999512
1745671691.0881045,0.007465943694114685,-0.01195595134049654,-0.3186219334602356,0.35920536518096924,-0.5013434290885925,-9.743088722229004
1745671691.0914059,0.010514108464121819,-0.015408140607178211,-0.31893813610076904,0.5673841238021851,-0.5854198336601257,-9.577112197875977
1745671691.095089,-6.776377267669886e-05,-0.019653547555208206,-0.31955650448799133,0.48901256918907166,-0.5917814373970032,-9.768423080444336
1745671691.097057,0.008047296665608883,-0.012220354750752449,-0.3169819712638855,0.5006698369979858,-0.708428144454956,-9.97935962677002
1745671691.1305695,-0.00414389418438077,-0.018485624343156815,-0.3142924904823303,0.4471708834171295,-0.7738417387008667,-9.832544326782227
1745671691.133076,0.0004444317892193794,-0.012046483345329762,-0.316228449344635,0.4376673698425293,-0.46413078904151917,-9.532602310180664
1745671691.1346176,-0.00479841185733676,-0.021899208426475525,-0.3174768388271332,0.5164035558700562,-0.7752386331558228,-9.719640731811523
1745671691.1362836,0.01051374338567257,-0.012402649037539959,-0.31759244203567505,0.4266067445278168,-0.3289874196052551,-9.815767288208008
1745671691.175565,-0.010298524051904678,-0.011560022830963135,-0.31796735525131226,0.6086478233337402,-0.7105390429496765,-9.811357498168945
1745671691.1756394,0.011256122030317783,-0.01547756977379322,-0.31847137212753296,0.32197123765945435,-0.5997957587242126,-9.742311477661133
1745671691.1774135,0.00827761646360159,-0.01479247771203518,-0.31783512234687805,0.46868008375167847,-0.5943263173103333,-9.775628089904785
1745671691.1806996,0.00018435026868246496,-0.017167001962661743,-0.3172217309474945,0.43519455194473267,-0.7351434826850891,-9.85211181640625
1745671691.1818528,0.015253131277859211,-0.009213557466864586,-0.3124116063117981,0.4045800566673279,-0.4975191056728363,-9.626652717590332
1745671691.2167342,0.0299360454082489,-0.011525173671543598,-0.3096655011177063,0.46317973732948303,-0.6167524456977844,-9.746309280395508
1745671691.2177062,-0.004359681159257889,-0.016334326937794685,-0.3134355843067169,0.5353017449378967,-0.4880794882774353,-9.672394752502441
1745671691.220524,0.018299603834748268,-0.009653742425143719,-0.31307870149612427,0.40165215730667114,-0.5850080847740173,-9.8161039352417
1745671691.2211173,0.02015068754553795,-0.015723159536719322,-0.3143764138221741,0.5378497242927551,-0.5577945709228516,-9.784669876098633
1745671691.2637792,0.011171422898769379,-0.014833268709480762,-0.3124828636646271,0.3569665551185608,-0.61624675989151,-9.828208923339844
1745671691.2640412,0.022126130759716034,-0.01581156812608242,-0.31122756004333496,0.5564611554145813,-0.7080973386764526,-9.7824068069458
1745671691.2641613,0.010986299254000187,-0.017224300652742386,-0.31033027172088623,0.4155123233795166,-0.5672110319137573,-9.76929759979248
1745671691.2642205,0.019475743174552917,-0.014424273744225502,-0.31017082929611206,0.5730904936790466,-0.5996499061584473,-9.721182823181152
1745671691.2659817,0.0027660797350108624,-0.019076045602560043,-0.3113630414009094,0.5301904082298279,-0.7194069623947144,-9.78858470916748
1745671691.3028204,0.020981457084417343,-0.014750368893146515,-0.310314804315567,0.45023757219314575,-0.4320554733276367,-9.804143905639648
1745671691.3057399,-0.0007787813665345311,-0.018014321103692055,-0.3108936846256256,0.4685382843017578,-0.7954200506210327,-9.874338150024414
1745671691.3106565,0.026946891099214554,-0.014634022489190102,-0.31206074357032776,0.28259342908859253,-0.5300298929214478,-9.703519821166992
1745671691.3111243,0.007403782103210688,-0.017591336742043495,-0.3095354735851288,0.5857317447662354,-0.5429214239120483,-9.519445419311523
1745671691.3436582,0.010297713801264763,-0.01653251051902771,-0.31158411502838135,0.37960028648376465,-0.6148175001144409,-9.848653793334961
1745671691.3469865,0.030050138011574745,-0.009416760876774788,-0.30898648500442505,0.48660510778427124,-0.4629132151603699,-9.858359336853027
1745671691.34841,0.008189556188881397,-0.01756414771080017,-0.31323933601379395,0.49211034178733826,-0.7066254615783691,-9.766691207885742
1745671691.3510964,0.02603081427514553,-0.013489896431565285,-0.3088662922382355,0.4589613080024719,-0.6266212463378906,-9.803362846374512
1745671691.3522747,0.011473429389297962,-0.021193725988268852,-0.3083915114402771,0.5690612196922302,-0.7547632455825806,-9.814786911010742
1745671691.3905983,0.010130819864571095,-0.013674398884177208,-0.30836963653564453,0.3653959333896637,-0.5925089120864868,-9.780049324035645
1745671691.3917935,0.0015238865744322538,-0.013612659648060799,-0.30788761377334595,0.5867277383804321,-0.8423389196395874,-9.631616592407227
1745671691.395256,0.0048392899334430695,-0.019968336448073387,-0.30829286575317383,0.4306427538394928,-0.4811039865016937,-9.676823616027832
1745671691.4000854,0.004042230546474457,-0.022116564214229584,-0.3086322247982025,0.4714130759239197,-0.6534147262573242,-9.911970138549805
1745671691.4340162,0.011005006730556488,-0.008970665745437145,-0.30910611152648926,0.4330069422721863,-0.6225154399871826,-9.791448593139648
1745671691.4368327,0.011033606715500355,-0.0198926143348217,-0.3078322410583496,0.5348620414733887,-0.6797345876693726,-9.486162185668945
1745671691.440089,-0.0029296104330569506,-0.013803993351757526,-0.308267742395401,0.3207632005214691,-0.5344741940498352,-9.734536170959473
1745671691.4416645,0.009761815890669823,-0.016734495759010315,-0.30734318494796753,0.547509491443634,-0.8385084271430969,-10.00083065032959
1745671691.4771256,0.006881943438202143,-0.015271609649062157,-0.3080213665962219,0.33897045254707336,-0.3376227915287018,-9.78211498260498
1745671691.4781902,0.012329167686402798,-0.011479995213449001,-0.30842849612236023,0.5356283187866211,-0.6897364854812622,-9.55728530883789
1745671691.4809413,0.01718142256140709,-0.018948515877127647,-0.30949801206588745,0.4157797694206238,-0.4546735882759094,-9.60257625579834
1745671691.4823704,0.01564260944724083,-0.010490749031305313,-0.3067822754383087,0.4722495675086975,-0.568885862827301,-9.956587791442871
1745671691.517116,0.010658392682671547,-0.015154989436268806,-0.3066427707672119,0.5115037560462952,-0.7367676496505737,-9.954760551452637
1745671691.5202093,0.014705382287502289,-0.013467835262417793,-0.30769795179367065,0.3645115792751312,-0.5594991445541382,-9.67326831817627
1745671691.5227633,0.009381216950714588,-0.019834499806165695,-0.30693763494491577,0.5718507170677185,-0.7561171650886536,-9.638467788696289
1745671691.5274663,-0.003923862706869841,-0.014313762076199055,-0.3075994849205017,0.3888319134712219,-0.5319387316703796,-9.831686019897461
1745671691.5294507,0.01873454637825489,-0.014502577483654022,-0.30661696195602417,0.5512288808822632,-0.6076163649559021,-9.740571975708008
1745671691.5630133,-0.008470027707517147,-0.01594315655529499,-0.3107903301715851,0.4171913266181946,-0.5135213732719421,-9.722893714904785
1745671691.566661,0.015115317888557911,-0.01648302935063839,-0.2959934175014496,0.4096502363681793,-0.581184983253479,-9.8031587600708
1745671691.571376,0.030175015330314636,-0.010728487744927406,-0.2952420711517334,0.4129084646701813,-0.622713565826416,-9.838035583496094
1745671691.5748103,0.018123120069503784,-0.015636296942830086,-0.29486197233200073,0.4247632622718811,-0.7034972906112671,-9.76535701751709
1745671691.603123,0.017986316233873367,-0.0106504550203681,-0.29547131061553955,0.4141612946987152,-0.4658876359462738,-9.62586784362793
1745671691.6080403,0.016169577836990356,-0.018481222912669182,-0.29643571376800537,0.576616644859314,-0.7923794388771057,-9.740388870239258
1745671691.608368,0.02390037477016449,-0.010044802911579609,-0.2967090606689453,0.35393911600112915,-0.3667152523994446,-9.764493942260742
1745671691.6101263,0.00871807336807251,-0.010588211938738823,-0.2962518036365509,0.5494709610939026,-0.7545050978660583,-9.805379867553711
1745671691.6460214,0.024664612486958504,-0.01347612775862217,-0.2936154007911682,0.28372886776924133,-0.5531112551689148,-9.73402214050293
1745671691.6493025,0.020271742716431618,-0.011830614879727364,-0.29182279109954834,0.42241597175598145,-0.582722544670105,-9.730527877807617
1745671691.6525142,0.016994038596749306,-0.016665179282426834,-0.29349368810653687,0.4560983180999756,-0.7676029801368713,-9.830621719360352
1745671691.6573381,0.029299939051270485,-0.008496141992509365,-0.29303234815597534,0.3796910345554352,-0.4486723840236664,-9.673643112182617
1745671691.6592147,0.015330594964325428,-0.016961626708507538,-0.2909098267555237,0.6161619424819946,-0.7658985257148743,-9.677263259887695
1745671691.6922035,0.019873034209012985,-0.01407596468925476,-0.2914050817489624,0.3845926821231842,-0.544590950012207,-9.860966682434082
1745671691.6986077,0.019346103072166443,-0.01617659255862236,-0.2894818186759949,0.5282174348831177,-0.8110243082046509,-9.946475982666016
1745671691.6986814,0.008639270439743996,-0.014308896847069263,-0.2902657091617584,0.3557124733924866,-0.4639294743537903,-9.69202709197998
1745671691.7032373,0.016423258930444717,-0.014019650407135487,-0.29114240407943726,0.43387287855148315,-0.7152498960494995,-9.554061889648438
1745671691.7329533,0.016157809644937515,-0.021404948085546494,-0.2909718155860901,0.49617496132850647,-0.5007830262184143,-9.641419410705566
1745671691.7351894,0.005456365179270506,-0.009756159968674183,-0.29104533791542053,0.44563770294189453,-0.5204669237136841,-9.974790573120117
1745671691.7369375,0.024650219827890396,-0.013969113118946552,-0.2904837727546692,0.4297986924648285,-0.7072790861129761,-9.914579391479492
1745671691.7388053,0.018355807289481163,-0.012276231311261654,-0.2920714020729065,0.27298659086227417,-0.45170336961746216,-9.568952560424805
1745671691.7832143,0.026487549766898155,-0.01249445229768753,-0.28772854804992676,0.4453023076057434,-0.6442205309867859,-9.890199661254883
1745671691.7832882,0.010712464340031147,-0.017138086259365082,-0.28776484727859497,0.4264790415763855,-0.39177951216697693,-9.885673522949219
1745671691.7846112,0.02447972260415554,-0.01164363045245409,-0.2891239523887634,0.4083642363548279,-0.6147605776786804,-9.769220352172852
1745671691.7869842,0.02064434066414833,-0.021736029535531998,-0.287431001663208,0.47072353959083557,-0.6261571049690247,-9.634283065795898
1745671691.8195033,0.022008832544088364,-0.01685892976820469,-0.288767009973526,0.35520583391189575,-0.5333641767501831,-9.723847389221191
1745671691.8220713,0.017572080716490746,-0.013561722822487354,-0.28466975688934326,0.5288844108581543,-0.7440234422683716,-9.795173645019531
1745671691.8244848,0.011875906027853489,-0.017019279301166534,-0.286604106426239,0.36049583554267883,-0.6393832564353943,-9.7881441116333
1745671691.8265235,0.02391887828707695,-0.015520134940743446,-0.28467753529548645,0.5254706144332886,-0.5297159552574158,-9.710983276367188
1745671691.8285973,0.0019235443323850632,-0.02039690688252449,-0.2869149446487427,0.35327252745628357,-0.7095618844032288,-9.905876159667969
1745671691.863901,0.039677370339632034,-0.011518214829266071,-0.2859800457954407,0.3707487881183624,-0.4582713544368744,-9.696874618530273
1745671691.8664966,0.0052015287801623344,-0.01906667836010456,-0.2876158654689789,0.5295020341873169,-0.6086024641990662,-9.588125228881836
1745671691.876163,0.02945544943213463,-0.010714447125792503,-0.28531208634376526,0.29766330122947693,-0.586417555809021,-9.794014930725098
1745671691.8762467,0.026502734050154686,-0.01272362470626831,-0.28579220175743103,0.4862164855003357,-0.5859312415122986,-9.788644790649414
1745671691.911795,0.01714356616139412,-0.013535214588046074,-0.2859604060649872,0.3206722140312195,-0.6285541653633118,-9.794992446899414
1745671691.913547,0.030162494629621506,-0.015201178379356861,-0.28652334213256836,0.4783846437931061,-0.6689966917037964,-9.726116180419922
1745671691.9216952,-0.001607760088518262,-0.012589504010975361,-0.280103862285614,0.27508723735809326,-0.48253607749938965,-9.782020568847656
1745671691.9217505,0.01959420181810856,-0.01672016829252243,-0.2810869812965393,0.48699378967285156,-0.8143036961555481,-9.82575798034668
1745671691.9475474,0.014941858127713203,-0.017429711297154427,-0.2815627455711365,0.31638655066490173,-0.38838815689086914,-9.679759979248047
1745671691.948813,0.015067319385707378,-0.011475996114313602,-0.27984410524368286,0.49328598380088806,-0.7497631311416626,-9.673995971679688
1745671691.950849,0.02102459967136383,-0.016085010021924973,-0.27946239709854126,0.44670596718788147,-0.5846026539802551,-9.710864067077637
1745671691.9528124,0.015153606422245502,-0.011995702981948853,-0.27970659732818604,0.3922370970249176,-0.5824736952781677,-9.853628158569336
1745671691.9539678,0.017967799678444862,-0.015502932481467724,-0.2756403088569641,0.5229251980781555,-0.7493425011634827,-9.840544700622559
1745671692.0022528,0.019722286611795425,-0.014755474403500557,-0.27781251072883606,0.27711254358291626,-0.48741135001182556,-9.734441757202148
1745671692.0035233,0.017834773287177086,-0.016362646594643593,-0.2798749506473541,0.5204814672470093,-0.6965185403823853,-9.666046142578125
1745671692.0065618,0.0039412290789186954,-0.01618168130517006,-0.2802508771419525,0.3449849486351013,-0.5456717610359192,-9.735136032104492
1745671692.0096936,0.02828540839254856,-0.01286180317401886,-0.27990150451660156,0.4756857752799988,-0.6103045344352722,-9.715208053588867
1745671692.0342152,0.00046509504318237305,-0.013826631009578705,-0.2786130905151367,0.44364452362060547,-0.571558952331543,-9.807401657104492
1745671692.0354989,0.01936790719628334,-0.011968692764639854,-0.28009548783302307,0.3727911412715912,-0.7719179391860962,-9.917991638183594
1745671692.039045,0.02072013169527054,-0.01900702342391014,-0.2790730595588684,0.45911869406700134,-0.5493098497390747,-9.699087142944336
1745671692.0424845,0.009073917753994465,-0.012213503941893578,-0.27709048986434937,0.3420977294445038,-0.6201261281967163,-9.717514991760254
1745671692.0775762,0.029338413849473,-0.013589665293693542,-0.2771768867969513,0.5397118330001831,-0.6495091319084167,-9.690154075622559
1745671692.080959,0.013225773349404335,-0.015980057418346405,-0.27617162466049194,0.3498646020889282,-0.4971681237220764,-9.785409927368164
1745671692.083154,0.025848722085356712,-0.012417608872056007,-0.27664321660995483,0.48100534081459045,-0.6886053085327148,-9.8728609085083
1745671692.08648,0.01726665534079075,-0.018085956573486328,-0.2769932448863983,0.37924885749816895,-0.6239014863967896,-9.781759262084961
1745671692.0878618,0.02364964224398136,-0.013393813744187355,-0.2775914669036865,0.3888542056083679,-0.6329082250595093,-9.714006423950195
1745671692.1221082,0.0016595383640378714,-0.018180079758167267,-0.27698320150375366,0.5021244287490845,-0.7325657606124878,-9.701790809631348
1745671692.124425,0.01943693496286869,-0.017632514238357544,-0.27398502826690674,0.35336384177207947,-0.6000300645828247,-9.6741943359375
1745671692.1259756,0.010130313225090504,-0.017120836302638054,-0.27574270963668823,0.5182234048843384,-0.7034470438957214,-9.643651008605957
1745671692.1288035,0.013533455319702625,-0.02056003548204899,-0.2745118737220764,0.3840290904045105,-0.7074815630912781,-9.827909469604492
1745671692.1680498,0.018627040088176727,-0.009662176482379436,-0.2749604880809784,0.4142426550388336,-0.42948001623153687,-9.690404891967773
1745671692.1681094,-0.004288812633603811,-0.015293054282665253,-0.2767697870731354,0.4471479058265686,-0.7766987085342407,-9.729087829589844
1745671692.1681585,0.032979585230350494,-0.014535687863826752,-0.2781342566013336,0.32587283849716187,-0.40625905990600586,-9.738018989562988
1745671692.1694891,0.006757602095603943,-0.0193488672375679,-0.2783581614494324,0.4985724091529846,-0.6817763447761536,-9.883975982666016
1745671692.1740277,0.026709282770752907,-0.011968186125159264,-0.2760176658630371,0.32925519347190857,-0.6035898923873901,-9.845681190490723
1745671692.2063258,0.024386148899793625,-0.015290593728423119,-0.275995671749115,0.5105134844779968,-0.6232470870018005,-9.534666061401367
1745671692.2096553,0.015284977853298187,-0.014978284016251564,-0.2743799090385437,0.39725321531295776,-0.6268965601921082,-9.631446838378906
1745671692.21144,0.02958240546286106,-0.014421038329601288,-0.2759556174278259,0.4605503976345062,-0.6251319646835327,-9.870574951171875
1745671692.2154346,0.016845084726810455,-0.017289910465478897,-0.276583731174469,0.42030930519104004,-0.6578415632247925,-9.946891784667969
1745671692.2490745,0.020978538319468498,-0.00909346155822277,-0.2779529094696045,0.3460261821746826,-0.463244765996933,-9.676044464111328
1745671692.251373,0.015222890302538872,-0.02147117629647255,-0.2755691409111023,0.49655666947364807,-0.8862766027450562,-9.62801456451416
1745671692.2531593,0.0208976361900568,-0.014007863588631153,-0.27648383378982544,0.3214420676231384,-0.4506334662437439,-9.74902057647705
1745671692.2564247,0.01793365366756916,-0.023239722475409508,-0.27255088090896606,0.4007391929626465,-0.6469448208808899,-9.71306037902832
1745671692.2932703,0.018345966935157776,-0.015309822745621204,-0.27231886982917786,0.30299028754234314,-0.5071138143539429,-9.618194580078125
1745671692.2955794,0.014943184331059456,-0.018801173195242882,-0.2741003632545471,0.5282258987426758,-0.6822568774223328,-9.723999977111816
1745671692.2966297,0.009275384247303009,-0.018116947263479233,-0.2737489640712738,0.3600778579711914,-0.6608948707580566,-9.830326080322266
1745671692.29949,0.01899348571896553,-0.017709961161017418,-0.2732904553413391,0.5671255588531494,-0.671530544757843,-9.794036865234375
1745671692.3338234,-0.01126090157777071,-0.01835865154862404,-0.2735810875892639,0.2812482714653015,-0.7689501643180847,-9.836587905883789
1745671692.3360395,0.02208704873919487,-0.015621175058186054,-0.2719273269176483,0.3991505205631256,-0.6942421197891235,-9.649759292602539
1745671692.3394248,-0.010999515652656555,-0.020992925390601158,-0.2743953466415405,0.4711019992828369,-0.5402562618255615,-9.540655136108398
1745671692.344187,0.0067883743904531,-0.012537358328700066,-0.27271953225135803,0.36835068464279175,-0.6302939653396606,-9.853991508483887
1745671692.3477647,0.008975181728601456,-0.014850047416985035,-0.2719143331050873,0.4616854786872864,-0.5326693654060364,-9.833335876464844
1745671692.3803258,0.006615635938942432,-0.01470821350812912,-0.2742060720920563,0.2847837507724762,-0.5619922280311584,-9.777287483215332
1745671692.3824804,0.014883950352668762,-0.01895044557750225,-0.27364596724510193,0.524397075176239,-0.7122406959533691,-9.721235275268555
1745671692.3835921,0.008233507163822651,-0.022595442831516266,-0.27465489506721497,0.3364103436470032,-0.5946505665779114,-9.865397453308105
1745671692.3862977,0.014502458274364471,-0.014218705706298351,-0.2705995440483093,0.4418213367462158,-0.6647448539733887,-9.785443305969238
1745671692.4210174,-0.0017641270533204079,-0.019888993352651596,-0.27164676785469055,0.46703290939331055,-0.7421604990959167,-9.588292121887207
1745671692.4235587,0.018366821110248566,-0.01574794203042984,-0.27093714475631714,0.41754478216171265,-0.47447270154953003,-9.61109733581543
1745671692.4254413,-0.01235147099941969,-0.020143087953329086,-0.2736707329750061,0.4762272238731384,-0.7130268216133118,-9.99830436706543
1745671692.4274287,0.012141156010329723,-0.016083216294646263,-0.27471646666526794,0.29885417222976685,-0.5781886577606201,-9.984688758850098
1745671692.4280663,0.0054627275094389915,-0.0175031665712595,-0.27550211548805237,0.4704027771949768,-0.5387190580368042,-9.471206665039062
1745671692.4668882,-0.008563583716750145,-0.02115568146109581,-0.2751381993293762,0.33728349208831787,-0.6982539892196655,-9.582551002502441
1745671692.4706104,-0.00015990156680345535,-0.017117585986852646,-0.2755905091762543,0.4904237389564514,-0.8161109685897827,-9.629270553588867
1745671692.4732788,0.02303491160273552,-0.01295088417828083,-0.2733960747718811,0.3005029559135437,-0.4825659394264221,-9.581026077270508
1745671692.4738004,0.00480410922318697,-0.014148607850074768,-0.2757931053638458,0.5410948991775513,-0.7708848714828491,-9.82667064666748
1745671692.508323,0.014188075438141823,-0.014818047173321247,-0.27466607093811035,0.31014835834503174,-0.5249778032302856,-9.90149974822998
1745671692.5112255,0.01867085136473179,-0.013235737569630146,-0.2712700068950653,0.4305709898471832,-0.6236440539360046,-9.760544776916504
1745671692.5146832,0.015532925724983215,-0.020011035725474358,-0.27572476863861084,0.33353838324546814,-0.5270822644233704,-9.733732223510742
1745671692.5176568,0.01456102542579174,-0.011216765269637108,-0.2753462791442871,0.3784683346748352,-0.5197046995162964,-9.794687271118164
1745671692.549446,0.020466627553105354,-0.01767866685986519,-0.2776145040988922,0.463845431804657,-0.7519991993904114,-9.724790573120117
1745671692.5521955,0.010987699963152409,-0.011810863390564919,-0.2758789658546448,0.32601821422576904,-0.4397791028022766,-9.655242919921875
1745671692.5532787,0.007882349193096161,-0.013529074378311634,-0.27559512853622437,0.4777216911315918,-0.9479261636734009,-9.820920944213867
1745671692.5558858,0.022142117843031883,-0.012714291922748089,-0.2767125368118286,0.291353702545166,-0.39734748005867004,-9.797752380371094
1745671692.5929701,0.008499311283230782,-0.01357067096978426,-0.27475705742836,0.5217515826225281,-0.7084596157073975,-9.743181228637695
1745671692.5963645,0.022189971059560776,-0.01506786234676838,-0.27444443106651306,0.38827383518218994,-0.5145280957221985,-9.780591011047363
1745671692.599777,0.02239593304693699,-0.010779820382595062,-0.27473530173301697,0.3778758943080902,-0.49322018027305603,-9.746420860290527
1745671692.6021566,0.017494704574346542,-0.013019640929996967,-0.27327537536621094,0.37157851457595825,-0.6672472357749939,-9.715983390808105
1745671692.6036065,0.027113517746329308,-0.008999052457511425,-0.27532753348350525,0.2821350693702698,-0.49597710371017456,-9.726758003234863
1745671692.6373582,0.01547278929501772,-0.02005722001194954,-0.2702628970146179,0.23691125214099884,-0.6258932948112488,-9.865378379821777
1745671692.6381106,0.038122307509183884,-0.007304742932319641,-0.2728758454322815,0.43656787276268005,-0.5374958515167236,-9.750523567199707
1745671692.6405814,0.0055935801938176155,-0.014637905173003674,-0.26779037714004517,0.4289112985134125,-0.6181355714797974,-9.681798934936523
1745671692.6458972,0.039765577763319016,-0.009616303257644176,-0.2722397446632385,0.35772261023521423,-0.6172677278518677,-9.706503868103027
1745671692.680538,0.02067534066736698,-0.017971672117710114,-0.26911821961402893,0.48388761281967163,-0.6764906048774719,-9.855781555175781
1745671692.6850452,0.026954183354973793,-0.01065221056342125,-0.2703995406627655,0.3388373851776123,-0.6478596925735474,-9.922819137573242
1745671692.6898975,0.030049365013837814,-0.012608185410499573,-0.26855942606925964,0.48746156692504883,-0.7244168519973755,-9.646135330200195
1745671692.6918278,0.022126365453004837,-0.013896144926548004,-0.2692527174949646,0.3361051678657532,-0.6167126893997192,-9.653945922851562
1745671692.6941397,0.02388508804142475,-0.011189964599907398,-0.2670902907848358,0.4517591893672943,-0.6883335113525391,-9.814352035522461
1745671692.7224164,0.017280418425798416,-0.013685283251106739,-0.26989227533340454,0.3311469852924347,-0.735390841960907,-9.893333435058594
1745671692.7245824,0.022943874821066856,-0.007854217663407326,-0.2694872319698334,0.35283905267715454,-0.5072933435440063,-9.680587768554688
1745671692.7259865,0.0038100355304777622,-0.017256412655115128,-0.27250343561172485,0.40779823064804077,-0.8634438514709473,-9.775373458862305
1745671692.7353773,0.03031798265874386,-0.014455844648182392,-0.27055874466896057,0.3064442276954651,-0.529143750667572,-9.764019966125488
1745671692.7657723,-0.0002128321648342535,-0.013942134566605091,-0.2680792510509491,0.6129698157310486,-0.7372106909751892,-9.761528968811035
1745671692.766998,0.019650617614388466,-0.012082095257937908,-0.26859164237976074,0.35845595598220825,-0.7000237703323364,-9.792742729187012
1745671692.769234,0.019458964467048645,-0.012357780709862709,-0.2670753598213196,0.4800291061401367,-0.6049840450286865,-9.730236053466797
1745671692.7722645,0.009482118301093578,-0.017253011465072632,-0.2662959098815918,0.35316792130470276,-0.7010349035263062,-9.833106994628906
1745671692.7723,0.03046867623925209,-0.011188257485628128,-0.26629337668418884,0.319029301404953,-0.5347846746444702,-9.781740188598633
1745671692.8108494,0.014744828455150127,-0.017895182594656944,-0.26694098114967346,0.4248526692390442,-0.6206340789794922,-9.66966438293457
1745671692.8133123,0.02334236353635788,-0.010802141390740871,-0.2681197226047516,0.28897303342819214,-0.46728506684303284,-9.75127124786377
1745671692.815609,0.01877080276608467,-0.010158928111195564,-0.2675608992576599,0.4681481719017029,-0.8209930658340454,-9.866609573364258
1745671692.8167949,0.013142438605427742,-0.015128692612051964,-0.2666543424129486,0.4955260157585144,-0.7345557808876038,-9.660650253295898
1745671692.8530335,-0.0029173276852816343,-0.010029418393969536,-0.26414281129837036,0.32216328382492065,-0.6847537159919739,-9.718904495239258
1745671692.8563325,0.01425169687718153,-0.018563976511359215,-0.26711779832839966,0.5282427072525024,-0.8279379606246948,-9.849555969238281
1745671692.8595293,0.005066252313554287,-0.014066651463508606,-0.2654784023761749,0.26338571310043335,-0.3278954029083252,-9.827645301818848
1745671692.8633938,0.01262035220861435,-0.010118533857166767,-0.26596158742904663,0.4507408142089844,-0.7609243988990784,-9.701522827148438
1745671692.899618,0.018997207283973694,-0.014810308814048767,-0.2663564085960388,0.2646678388118744,-0.3798415958881378,-9.518173217773438
1745671692.899757,0.01814146339893341,-0.011950363405048847,-0.26585453748703003,0.427365243434906,-0.7001644372940063,-9.819790840148926
1745671692.8998249,0.021128393709659576,-0.015444913879036903,-0.2658754289150238,0.44681987166404724,-0.7155981659889221,-10.002981185913086
1745671692.8999033,0.0224305447191,-0.00912579707801342,-0.2649601697921753,0.3430964946746826,-0.651432991027832,-9.814874649047852
1745671692.9388099,0.015383429825305939,-0.018845390528440475,-0.26335448026657104,0.5321372151374817,-0.8324886560440063,-9.565960884094238
1745671692.9419842,0.006570109166204929,-0.013299408368766308,-0.2600407898426056,0.36338168382644653,-0.5659990310668945,-9.67176628112793
1745671692.945441,0.022701147943735123,-0.012027452699840069,-0.2624312937259674,0.5231820940971375,-0.7222725749015808,-9.81107234954834
1745671692.9492085,-0.0002570420620031655,-0.012367119081318378,-0.26383429765701294,0.3009643852710724,-0.49194154143333435,-9.852063179016113
1745671692.9519434,0.018183181062340736,-0.008554454892873764,-0.26304298639297485,0.3984789252281189,-0.763837456703186,-9.74394416809082
1745671692.9831944,0.017085934057831764,-0.019675303250551224,-0.2633957266807556,0.32384195923805237,-0.48363906145095825,-9.633727073669434
1745671692.9933975,0.007174997590482235,-0.01654229499399662,-0.25883984565734863,0.479304701089859,-0.632438063621521,-9.52744197845459
1745671692.993537,0.0007909956621006131,-0.01658499427139759,-0.2609409689903259,0.3088209629058838,-0.563092052936554,-9.781166076660156
1745671692.99449,0.010718725621700287,-0.011390691623091698,-0.26159438490867615,0.4598291516304016,-0.6356207728385925,-9.895857810974121
1745671693.024451,0.004436024464666843,-0.01727714017033577,-0.26145824790000916,0.35354387760162354,-0.6781831979751587,-9.873796463012695
1745671693.0271714,0.00842338241636753,-0.010345812886953354,-0.26182907819747925,0.37710657715797424,-0.5620007514953613,-9.666257858276367
1745671693.0284927,-0.0004883002256974578,-0.021958863362669945,-0.2589198648929596,0.46610531210899353,-0.8870061635971069,-9.682629585266113
1745671693.0299609,0.013760894536972046,-0.011505566537380219,-0.2598303258419037,0.32928401231765747,-0.4399105906486511,-9.703666687011719
1745671693.0329478,-0.01397443562746048,-0.011133783496916294,-0.26015669107437134,0.5160176157951355,-0.7757123112678528,-9.777789115905762
1745671693.069011,0.013566265814006329,-0.013239048421382904,-0.2615770101547241,0.2627214193344116,-0.5297927856445312,-9.743178367614746
1745671693.0720363,0.002502476330846548,-0.014537220820784569,-0.26043540239334106,0.4609862267971039,-0.5929047465324402,-9.760858535766602
1745671693.0761123,0.002693652641028166,-0.01576334796845913,-0.2623606026172638,0.34733322262763977,-0.7184596657752991,-9.898663520812988
1745671693.0790706,0.018026795238256454,-0.011808516457676888,-0.25910913944244385,0.32360249757766724,-0.5002104043960571,-9.705350875854492
1745671693.1121655,-0.0001300985022680834,-0.015569297596812248,-0.25995582342147827,0.46898603439331055,-0.7610037326812744,-9.554062843322754
1745671693.1123602,0.007205928675830364,-0.012075983919203281,-0.25835248827934265,0.3277180790901184,-0.591357409954071,-9.725240707397461
1745671693.1147394,0.004205145873129368,-0.014846928417682648,-0.2561323046684265,0.5381050109863281,-0.8319641351699829,-9.963887214660645
1745671693.1169186,0.0031299993861466646,-0.013761365786194801,-0.260124146938324,0.31031474471092224,-0.4672729969024658,-9.866968154907227
1745671693.1229532,0.004128796048462391,-0.013242363929748535,-0.2580551207065582,0.43079787492752075,-0.8242934346199036,-9.695295333862305
1745671693.1586735,0.01004841923713684,-0.018082309514284134,-0.2593920826911926,0.36582478880882263,-0.5020012259483337,-9.560513496398926
1745671693.1590745,-0.004722146783024073,-0.011739499866962433,-0.2602309584617615,0.43847861886024475,-0.5680170059204102,-9.789873123168945
1745671693.1628199,0.008389504626393318,-0.012505000457167625,-0.26118311285972595,0.39816346764564514,-0.7266334295272827,-9.883138656616211
1745671693.1670735,0.0034866048954427242,-0.010670868679881096,-0.2627149522304535,0.30417805910110474,-0.5310107469558716,-9.967857360839844
1745671693.1964047,0.006667092442512512,-0.005388122983276844,-0.25884121656417847,0.4018112123012543,-0.7880969047546387,-9.668195724487305
1745671693.1999824,2.475697510817554e-05,-0.01705235056579113,-0.2592085897922516,0.45302876830101013,-0.7152770757675171,-9.56546688079834
1745671693.2024002,0.0051425909623503685,-0.012542681768536568,-0.25828123092651367,0.35123658180236816,-0.547317624092102,-9.846390724182129
1745671693.2034154,-0.0023608847986906767,-0.010130864568054676,-0.2582831382751465,0.4897575378417969,-0.6538898944854736,-9.987122535705566
1745671693.239927,0.004842706955969334,-0.009649370796978474,-0.26012006402015686,0.2556667923927307,-0.5206501483917236,-9.66153621673584
1745671693.2434084,0.01636156067252159,-0.012059429660439491,-0.2594835162162781,0.49235931038856506,-0.5418415069580078,-9.45616626739502
1745671693.247978,-0.008313163183629513,-0.017151838168501854,-0.26089972257614136,0.2871876060962677,-0.6514440774917603,-9.947075843811035
1745671693.2502258,0.028590764850378036,-0.007041814271360636,-0.26047971844673157,0.3955744206905365,-0.6595393419265747,-10.02816390991211
1745671693.2825444,0.0019236929947510362,-0.01436354499310255,-0.26092463731765747,0.45233574509620667,-0.5388888120651245,-9.604089736938477
1745671693.2852767,0.014594035223126411,-0.0077645666897296906,-0.25900042057037354,0.40376558899879456,-0.665277361869812,-9.55396556854248
1745671693.2889504,0.014352339319884777,-0.014792688190937042,-0.2587634325027466,0.5135570168495178,-0.6112211346626282,-9.761701583862305
1745671693.2926598,0.0063047087751328945,-0.009770510718226433,-0.259825199842453,0.30468446016311646,-0.5685160160064697,-10.018699645996094
1745671693.2951477,0.016790248453617096,-0.008008850738406181,-0.2583170533180237,0.4616348147392273,-0.7722194194793701,-9.798748970031738
1745671693.32697,0.00822301022708416,-0.017674241214990616,-0.25901904702186584,0.27660635113716125,-0.580785870552063,-9.593462944030762
1745671693.3277588,0.012870428152382374,-0.011270210146903992,-0.2594870924949646,0.42956775426864624,-0.6810041666030884,-9.731134414672852
1745671693.3374786,0.02747633494436741,-0.016025612130761147,-0.26001033186912537,0.20785406231880188,-0.3675902783870697,-9.880590438842773
1745671693.3395853,0.019291331991553307,-0.010184936225414276,-0.2576603591442108,0.4409244656562805,-0.6904666423797607,-9.849973678588867
1745671693.3676913,0.026559820398688316,-0.011698087677359581,-0.2601279616355896,0.39754951000213623,-0.5219720602035522,-9.573013305664062
1745671693.3703902,0.026328042149543762,-0.01196358073502779,-0.2588179409503937,0.5223445892333984,-0.6062734127044678,-9.601053237915039
1745671693.3735206,0.016010146588087082,-0.021682899445295334,-0.2608778774738312,0.5254701972007751,-0.7617648243904114,-9.967597961425781
1745671693.3761082,0.019339052960276604,-0.010864382609724998,-0.2580224871635437,0.29202231764793396,-0.659997284412384,-10.029535293579102
1745671693.412011,0.016426268965005875,-0.016040828078985214,-0.2567591369152069,0.45763033628463745,-0.8379799127578735,-9.64373779296875
1745671693.415007,0.0013423385098576546,-0.01808512769639492,-0.2586873471736908,0.2987852394580841,-0.4739554822444916,-9.491008758544922
1745671693.4171154,0.015136388130486012,-0.018485087901353836,-0.2592369616031647,0.5093854665756226,-0.7692310214042664,-9.831506729125977
1745671693.4197707,0.010271976701915264,-0.015189649537205696,-0.26129215955734253,0.3295792043209076,-0.3850597143173218,-9.882062911987305
1745671693.4221835,0.007731462363153696,-0.010218785144388676,-0.26289480924606323,0.45627346634864807,-0.7088558673858643,-9.731842041015625
1745671693.4539535,0.02416549250483513,-0.019845154136419296,-0.2613147795200348,0.3810577988624573,-0.5551799535751343,-9.653148651123047
1745671693.4552243,0.014482867904007435,-0.016707997769117355,-0.2602851688861847,0.3098471164703369,-0.576114296913147,-9.877962112426758
1745671693.459549,0.019771737977862358,-0.017683323472738266,-0.2595224380493164,0.4906701445579529,-0.8142812848091125,-9.896048545837402
1745671693.4629395,0.02014777995646,-0.012045621871948242,-0.25841641426086426,0.2912459075450897,-0.4720146059989929,-9.583693504333496
1745671693.4967012,0.015213379636406898,-0.018751734867691994,-0.2601296901702881,0.5775935053825378,-0.7275823354721069,-9.583364486694336
1745671693.500842,0.011018467135727406,-0.02060232125222683,-0.26027974486351013,0.368437260389328,-0.5580417513847351,-9.977860450744629
1745671693.505538,0.018317662179470062,-0.016941582784056664,-0.26204729080200195,0.43138861656188965,-0.6819644570350647,-10.07518482208252
1745671693.5098996,0.0015412640059366822,-0.018983041867613792,-0.26291635632514954,0.39887937903404236,-0.5964841246604919,-9.677440643310547
1745671693.5117502,0.012636497616767883,-0.018897339701652527,-0.26215460896492004,0.31606099009513855,-0.7727792859077454,-9.51584529876709
1745671693.5423267,0.011394950561225414,-0.024051010608673096,-0.26025015115737915,0.5277483463287354,-0.6583645343780518,-9.644660949707031
1745671693.545269,0.0012350889155641198,-0.024095360189676285,-0.26024556159973145,0.2662167549133301,-0.6743379831314087,-9.986775398254395
1745671693.5506983,0.024379823356866837,-0.016331583261489868,-0.2594873309135437,0.4512418210506439,-0.519319474697113,-9.522313117980957
1745671693.550839,-0.010150797665119171,-0.02283289283514023,-0.26237115263938904,0.38764452934265137,-0.6194890737533569,-9.546636581420898
1745671693.5840244,0.02715514972805977,-0.01883486844599247,-0.2582406997680664,0.352131187915802,-0.6305817365646362,-9.812490463256836
1745671693.5885599,0.009140067733824253,-0.021201632916927338,-0.2603636085987091,0.40370672941207886,-0.5476065874099731,-9.9789400100708
1745671693.5914435,0.02242616005241871,-0.015658985823392868,-0.2596421241760254,0.26746755838394165,-0.5494323372840881,-9.833155632019043
1745671693.598139,0.020934507250785828,-0.02275674417614937,-0.25972995162010193,0.4847031235694885,-0.6783750653266907,-9.521738052368164
1745671693.62551,0.01407090574502945,-0.025139063596725464,-0.2617625594139099,0.39813709259033203,-0.615149199962616,-9.71748161315918
1745671693.6292164,0.01569109596312046,-0.022220883518457413,-0.25893309712409973,0.5239579081535339,-0.8064706921577454,-9.972707748413086
1745671693.6352978,0.0032721818424761295,-0.019700894132256508,-0.25750094652175903,0.3478471636772156,-0.7363592982292175,-9.816792488098145
1745671693.6372344,0.012516056187450886,-0.016504967585206032,-0.25573673844337463,0.40939515829086304,-0.5618351697921753,-9.504953384399414
1745671693.6406157,-0.008650694973766804,-0.02877218648791313,-0.258983314037323,0.399946928024292,-0.8096345067024231,-9.761988639831543
1745671693.6718907,0.021324841305613518,-0.018791209906339645,-0.2582255005836487,0.2770059406757355,-0.4785483777523041,-9.949647903442383
1745671693.6749701,-0.003443740773946047,-0.02074124850332737,-0.26048097014427185,0.45909515023231506,-0.5804910659790039,-9.732393264770508
1745671693.6791368,0.016731727868318558,-0.015017096884548664,-0.2584920823574066,0.2633494734764099,-0.5207270383834839,-9.540499687194824
1745671693.6839452,0.02403087541460991,-0.013366669416427612,-0.2586671710014343,0.37931060791015625,-0.5758920311927795,-9.693889617919922
1745671693.7138398,0.012616435065865517,-0.020901154726743698,-0.25692614912986755,0.43008533120155334,-0.6715314388275146,-9.80164623260498
1745671693.7139394,0.008075212128460407,-0.009748519398272038,-0.2600032687187195,0.31306374073028564,-0.6105038523674011,-9.832414627075195
1745671693.7140121,0.01923028752207756,-0.014927193522453308,-0.2566218972206116,0.5306292176246643,-0.7608338594436646,-9.605279922485352
1745671693.7154534,-0.006361563690006733,-0.013771465048193932,-0.2579120993614197,0.3234586715698242,-0.5395582914352417,-9.718523025512695
1745671693.756427,0.011763134971261024,-0.012942817993462086,-0.25767752528190613,0.499694287776947,-0.8150928616523743,-9.899209976196289
1745671693.758184,0.011436804197728634,-0.017194774001836777,-0.2592710256576538,0.27929919958114624,-0.362316370010376,-9.765225410461426
1745671693.7604647,0.01109769195318222,-0.009171835146844387,-0.25758248567581177,0.41535860300064087,-0.6625142097473145,-9.6939058303833
1745671693.7615066,0.02452082931995392,-0.015524150803685188,-0.25716432929039,0.42934519052505493,-0.5050312876701355,-9.652073860168457
1745671693.7644074,0.019574815407395363,-0.009519366547465324,-0.25710445642471313,0.2973265051841736,-0.5158287286758423,-9.829856872558594
1745671693.802928,0.022602390497922897,-0.01239022333174944,-0.25808387994766235,0.449812114238739,-0.7072821259498596,-9.823556900024414
1745671693.8061876,0.023629367351531982,-0.007995960302650928,-0.2586185336112976,0.2651289403438568,-0.5397595167160034,-9.73954963684082
1745671693.809854,0.02296624332666397,-0.014941699802875519,-0.25792545080184937,0.5151146054267883,-0.7748578786849976,-9.688314437866211
1745671693.8180125,0.0015982125187292695,-0.015627585351467133,-0.2583373785018921,0.3798719644546509,-0.6097688674926758,-9.841787338256836
1745671693.8436613,0.025951171293854713,-0.010469980537891388,-0.25958824157714844,0.4783917963504791,-0.7232421040534973,-9.83501148223877
1745671693.8470182,-0.003289826912805438,-0.012618686072528362,-0.2585102915763855,0.40808945894241333,-0.5806655883789062,-9.628231048583984
1745671693.8500845,0.005562472157180309,-0.00918526854366064,-0.25920721888542175,0.34493499994277954,-0.7733943462371826,-9.762140274047852
1745671693.852027,0.013610978610813618,-0.01778022013604641,-0.2595966160297394,0.43214312195777893,-0.574288010597229,-9.809046745300293
1745671693.889851,0.0006919873994775116,-0.012410303577780724,-0.2585093080997467,0.25527623295783997,-0.5304416418075562,-9.8856201171875
1745671693.8899949,0.022826168686151505,-0.00959431566298008,-0.25861120223999023,0.4655776619911194,-0.6151901483535767,-9.679768562316895
1745671693.8930752,0.012948950752615929,-0.013919266872107983,-0.25874435901641846,0.45112499594688416,-0.5950368642807007,-9.823713302612305
1745671693.8982875,0.018862804397940636,-0.005285732448101044,-0.25783950090408325,0.316845178604126,-0.5707800984382629,-9.725379943847656
1745671693.9275315,0.013615356758236885,-0.01102254819124937,-0.25574055314064026,0.5036574602127075,-0.7913732528686523,-9.632403373718262
1745671693.9310532,0.009542670100927353,-0.011751354672014713,-0.2584303021430969,0.3421645760536194,-0.6638693809509277,-9.883604049682617
1745671693.9335902,0.006524623837321997,-0.010108953341841698,-0.25915858149528503,0.5183438062667847,-0.6531327962875366,-9.941963195800781
1745671693.9351377,-0.001516855088993907,-0.015315334312617779,-0.25884178280830383,0.34357231855392456,-0.7749726176261902,-9.768773078918457
1745671693.9371393,0.01587097719311714,-0.008664852008223534,-0.2599194049835205,0.4320012927055359,-0.44563713669776917,-9.46678352355957
1745671693.9737332,-0.018146682530641556,-0.015937497839331627,-0.26092737913131714,0.4708350598812103,-0.7054920196533203,-9.776215553283691
1745671693.975007,0.01961188204586506,-0.01018445659428835,-0.2590760588645935,0.26033395528793335,-0.47993674874305725,-10.015880584716797
1745671693.9836867,0.00524129718542099,-0.011290822178125381,-0.26096153259277344,0.45035338401794434,-0.6203894019126892,-9.824369430541992
1745671693.98383,0.013075177557766438,-0.01361984945833683,-0.2612537145614624,0.30025729537010193,-0.5854730606079102,-9.592840194702148
1745671694.012757,0.02084396407008171,-0.014765788801014423,-0.25963011384010315,0.4714808464050293,-0.6588893532752991,-9.604220390319824
1745671694.0159194,0.007994560524821281,-0.013869103975594044,-0.2593753933906555,0.37303414940834045,-0.6488431692123413,-9.938570022583008
1745671694.0213988,0.016775183379650116,-0.006475588772445917,-0.25833749771118164,0.3930013179779053,-0.6641945838928223,-9.846882820129395
1745671694.021536,0.0036022223066538572,-0.013936825096607208,-0.2592262923717499,0.4149899482727051,-0.7823702692985535,-9.619600296020508
1745671694.0215929,0.007318431045860052,-0.011673348024487495,-0.25697189569473267,0.33126944303512573,-0.46499577164649963,-9.65442943572998
1745671694.0589101,0.0004001636116299778,-0.013756349682807922,-0.2593922019004822,0.38478970527648926,-0.4463275074958801,-9.558052062988281
1745671694.0601208,0.006747191306203604,-0.008915064856410027,-0.25847190618515015,0.5369809865951538,-0.8233753442764282,-9.88716983795166
1745671694.0626967,0.008359543047845364,-0.008886178024113178,-0.2593040466308594,0.34300753474235535,-0.4687671661376953,-9.894797325134277
1745671694.0653787,0.009139844216406345,-0.005105559714138508,-0.2591080665588379,0.3467872738838196,-0.5857611894607544,-9.68022346496582
1745671694.1007135,0.007610836066305637,-0.014206361956894398,-0.25751882791519165,0.46870678663253784,-0.7017396688461304,-9.627038955688477
1745671694.1044881,0.013502636924386024,-0.013067811727523804,-0.2591555714607239,0.28671151399612427,-0.45310527086257935,-9.920123100280762
1745671694.10819,0.012567137368023396,-0.011984990909695625,-0.2595295310020447,0.4519864618778229,-0.6631287932395935,-9.921394348144531
1745671694.113398,0.004951023496687412,-0.007200475782155991,-0.26009219884872437,0.26618868112564087,-0.564017653465271,-9.577912330627441
1745671694.148775,0.022573230788111687,-0.01476325374096632,-0.2588058114051819,0.5242005586624146,-0.660969078540802,-9.412028312683105
1745671694.1489801,-0.012508494779467583,-0.016506707295775414,-0.26025304198265076,0.4105466306209564,-0.6605835556983948,-10.017765998840332
1745671694.1490934,0.014066743664443493,-0.006126029416918755,-0.2601904273033142,0.3609027862548828,-0.773645281791687,-10.188833236694336
1745671694.1491802,0.006644437555223703,-0.012132098898291588,-0.2592472434043884,0.4200909733772278,-0.5257413983345032,-9.475540161132812
1745671694.1510148,-0.004791987128555775,-0.013325613923370838,-0.26042070984840393,0.35438013076782227,-0.6270264387130737,-9.414201736450195
1745671694.1863756,0.012798069044947624,-0.01685471273958683,-0.25839775800704956,0.48489728569984436,-0.5644911527633667,-9.875692367553711
1745671694.1892045,0.0016335684340447187,-0.008356692269444466,-0.2602216601371765,0.23155739903450012,-0.4791627526283264,-10.112080574035645
1745671694.1916633,0.018494395539164543,-0.004846746567636728,-0.25956064462661743,0.4150489866733551,-0.6093202829360962,-9.629570007324219
1745671694.1927223,0.009963073767721653,-0.01919488236308098,-0.258607417345047,0.35127708315849304,-0.5570763349533081,-9.427079200744629
1745671694.22769,0.021830344572663307,-0.014720429666340351,-0.2598608434200287,0.3952058255672455,-0.6135945320129395,-9.899871826171875
1745671694.2305536,0.0010567395947873592,-0.013789673335850239,-0.2597067952156067,0.438889741897583,-0.6960118412971497,-10.107406616210938
1745671694.2327912,0.028415698558092117,-0.006168772466480732,-0.25847986340522766,0.329161137342453,-0.552040696144104,-9.576042175292969
1745671694.2353072,0.016292264685034752,-0.0073234885931015015,-0.2598167061805725,0.3983857035636902,-0.44465869665145874,-9.731725692749023
1745671694.2712533,-0.001642774441279471,-0.01651497185230255,-0.257341206073761,0.43951931595802307,-0.8153872489929199,-9.6082124710083
1745671694.2734704,0.027351826429367065,-0.015720998868346214,-0.25916534662246704,0.2574114203453064,-0.3859373927116394,-9.696154594421387
1745671694.2752466,0.0025146331172436476,-0.018596559762954712,-0.2570062279701233,0.4798744320869446,-0.7195938229560852,-10.004963874816895
1745671694.2761269,0.022747691720724106,-0.013028860092163086,-0.26122719049453735,0.29749080538749695,-0.5009791254997253,-9.805962562561035
1745671694.278852,0.017969567328691483,-0.015277871862053871,-0.25894108414649963,0.5282966494560242,-0.6453837156295776,-9.434469223022461
1745671694.314846,0.010090554133057594,-0.021610844880342484,-0.2580239772796631,0.38864126801490784,-0.6153371334075928,-9.660455703735352
1745671694.316413,0.01925058849155903,-0.01378611195832491,-0.25865626335144043,0.3871708810329437,-0.6949390172958374,-10.036651611328125
1745671694.3186948,0.011311260983347893,-0.01832776889204979,-0.2552341818809509,0.3470839560031891,-0.7174776792526245,-9.93582820892334
1745671694.3211887,0.01201809011399746,-0.009718668647110462,-0.2562633156776428,0.3144384026527405,-0.41726168990135193,-9.471946716308594
1745671694.3582704,0.00874551385641098,-0.021159756928682327,-0.2582663893699646,0.48602867126464844,-0.8196862936019897,-9.552544593811035
1745671694.3599756,0.014848560094833374,-0.01551008503884077,-0.26071181893348694,0.3107519745826721,-0.3704552948474884,-9.842511177062988
1745671694.362134,-0.001859696232713759,-0.009988446719944477,-0.26045942306518555,0.5273970365524292,-0.7864380478858948,-9.987117767333984
1745671694.363598,0.017119109630584717,-0.01400388590991497,-0.26014629006385803,0.2823792099952698,-0.5677610635757446,-9.670791625976562
1745671694.3678548,0.008886320516467094,-0.016203531995415688,-0.25743430852890015,0.4190404415130615,-0.6164129376411438,-9.60547161102295
1745671694.4041088,0.006674967706203461,-0.01958269439637661,-0.2579229474067688,0.4555777907371521,-0.7147525548934937,-9.879785537719727
1745671694.407858,0.020223144441843033,-0.015994789078831673,-0.2590354382991791,0.31130409240722656,-0.5658429861068726,-9.586454391479492
1745671694.410928,0.017412293702363968,-0.018349885940551758,-0.2557714581489563,0.5222074389457703,-0.7842168211936951,-9.770678520202637
1745671694.4133413,0.010859893634915352,-0.013924273662269115,-0.2558865547180176,0.2605327069759369,-0.6863998174667358,-9.919964790344238
1745671694.4458354,0.024648074060678482,-0.010595528408885002,-0.255195289850235,0.4485822319984436,-0.5577890276908875,-9.64465618133545
1745671694.4474795,-0.003390065860003233,-0.01701229251921177,-0.25745147466659546,0.3744550049304962,-0.6922794580459595,-9.67746639251709
1745671694.4499145,0.02552754618227482,-0.014355656690895557,-0.2576877474784851,0.39365777373313904,-0.5789488554000854,-9.826434135437012
1745671694.4537354,0.004457653500139713,-0.018942806869745255,-0.26066094636917114,0.5089181661605835,-0.5659037828445435,-9.851181030273438
1745671694.4877882,0.00861525721848011,-0.011007021181285381,-0.25905174016952515,0.3215262293815613,-0.6730908155441284,-9.78601360321045
1745671694.4901493,0.016379205510020256,-0.013054640963673592,-0.2576310634613037,0.46878036856651306,-0.6750823855400085,-9.535731315612793
1745671694.493039,-0.0005577076226472855,-0.017735827714204788,-0.2573467195034027,0.2965601086616516,-0.618598461151123,-9.78452205657959
1745671694.4951406,0.01729760505259037,-0.01415164489299059,-0.2559758424758911,0.4727199971675873,-0.6517783999443054,-9.971208572387695
1745671694.4958456,0.010859468951821327,-0.01881115883588791,-0.25763648748397827,0.3634401559829712,-0.5070034265518188,-9.83491325378418
1745671694.5337698,0.021623264998197556,-0.012463542632758617,-0.2578641474246979,0.37657859921455383,-0.5026769638061523,-9.574831008911133
1745671694.5338535,0.01001753844320774,-0.02068088948726654,-0.25739574432373047,0.4678298532962799,-0.7568836212158203,-9.661774635314941
1745671694.537048,0.029134441167116165,-0.015409396961331367,-0.2576383650302887,0.2964251637458801,-0.5328160524368286,-9.839444160461426
1745671694.5396361,0.0030523259192705154,-0.01233633328229189,-0.2545749247074127,0.4614507555961609,-0.7138477563858032,-9.872714042663574
1745671694.5727088,0.020063944160938263,-0.013253425247967243,-0.2568383514881134,0.27076277136802673,-0.6633092164993286,-9.740913391113281
1745671694.5768442,0.024525601416826248,-0.0164010189473629,-0.2560436427593231,0.46921902894973755,-0.46209463477134705,-9.524085998535156
1745671694.5785122,0.0032542385160923004,-0.01979893073439598,-0.25886449217796326,0.42309504747390747,-0.6849361062049866,-9.843235969543457
1745671694.5815518,0.033597614616155624,-0.00784542877227068,-0.2579227685928345,0.3609725832939148,-0.4683076739311218,-9.899526596069336
1745671694.617397,0.018434155732393265,-0.01151461061090231,-0.2585621774196625,0.3580191135406494,-0.6136425733566284,-9.818268775939941
1745671694.6218476,0.027980167418718338,-0.015990253537893295,-0.258831262588501,0.4215688705444336,-0.6589888334274292,-9.631964683532715
1745671694.624324,0.01751701720058918,-0.024288449436426163,-0.25748947262763977,0.41085463762283325,-0.7403673529624939,-9.834550857543945
1745671694.6284132,0.015398835763335228,-0.011780044063925743,-0.25744715332984924,0.2820327877998352,-0.565740168094635,-9.920811653137207
1745671694.6350021,0.02502894401550293,-0.013778893277049065,-0.2565096318721771,0.49045640230178833,-0.8340247869491577,-9.615204811096191
1745671694.6607094,0.01248268224298954,-0.012117162346839905,-0.2577264606952667,0.2769465446472168,-0.41667047142982483,-9.450465202331543
1745671694.6636288,0.013543200679123402,-0.013296594843268394,-0.2579677104949951,0.4685673117637634,-0.8000369071960449,-9.902000427246094
1745671694.663822,0.02794601023197174,-0.015089012682437897,-0.25984933972358704,0.24321527779102325,-0.38840001821517944,-10.037025451660156
1745671694.6658962,0.019821370020508766,-0.009352060034871101,-0.26115670800209045,0.3872692883014679,-0.6426228284835815,-9.712898254394531
1745671694.704379,0.02364865504205227,-0.017225638031959534,-0.259810209274292,0.48379915952682495,-0.7222747802734375,-9.489563941955566
1745671694.70445,0.02434108778834343,-0.015182535164058208,-0.2592797577381134,0.37888815999031067,-0.5937076210975647,-9.781797409057617
1745671694.7078955,0.017265580594539642,-0.014861646108329296,-0.25757598876953125,0.4791237413883209,-0.8020015954971313,-10.007963180541992
1745671694.7137458,0.018896212801337242,-0.010198719799518585,-0.25696855783462524,0.28760799765586853,-0.5919231176376343,-9.723973274230957
1745671694.7489808,0.02535296604037285,-0.017088040709495544,-0.2546307146549225,0.5127139091491699,-0.7552353143692017,-9.578958511352539
1745671694.7512143,0.005700927227735519,-0.0210481695830822,-0.25751811265945435,0.33679014444351196,-0.4237586557865143,-9.87459945678711
1745671694.7557554,0.003513575065881014,-0.018393127247691154,-0.260712206363678,0.5235289335250854,-0.6729031205177307,-9.9107666015625
1745671694.7588935,0.029394010081887245,-0.011284064501523972,-0.2616733908653259,0.30235370993614197,-0.6702067255973816,-9.841283798217773
1745671694.7920246,0.025597581639885902,-0.015296848490834236,-0.2620285451412201,0.4762571454048157,-0.5643292665481567,-9.587448120117188
1745671694.795319,0.01601855829358101,-0.01904238760471344,-0.26379817724227905,0.2666308283805847,-0.6096969842910767,-9.78607177734375
1745671694.7987788,0.03468939661979675,-0.01659385859966278,-0.2639656662940979,0.43152743577957153,-0.6507863998413086,-9.873361587524414
1745671694.8030164,0.018463946878910065,-0.018947167322039604,-0.2643759846687317,0.3992198407649994,-0.6208409667015076,-9.768893241882324
1745671694.8306057,0.02917015552520752,-0.013933363370597363,-0.26349323987960815,0.443969190120697,-0.7154466509819031,-9.622546195983887
1745671694.8330653,0.011615188792347908,-0.021419936791062355,-0.26220574975013733,0.468576043844223,-0.8515052795410156,-9.758166313171387
1745671694.8341014,0.028425687924027443,-0.013091308996081352,-0.25949400663375854,0.3424248695373535,-0.5285460352897644,-9.83545207977295
1745671694.8430266,0.006047346629202366,-0.017941003665328026,-0.2604277729988098,0.40228500962257385,-0.8466802835464478,-9.835723876953125
1745671694.8430662,0.03259269520640373,-0.014352542348206043,-0.25958457589149475,0.2743205428123474,-0.5338534116744995,-9.651408195495605
1745671694.8755143,0.02295885607600212,-0.018124833703041077,-0.260491281747818,0.4941581189632416,-0.46923112869262695,-9.563067436218262
1745671694.877629,0.020345281809568405,-0.0172257162630558,-0.26287955045700073,0.34390759468078613,-0.689068078994751,-9.915453910827637
1745671694.881846,0.043393269181251526,-0.011288853362202644,-0.26195022463798523,0.37512481212615967,-0.5054225325584412,-9.826799392700195
1745671694.8857844,0.014698924496769905,-0.018251053988933563,-0.2629191279411316,0.4122787415981293,-0.8459563255310059,-9.711311340332031
1745671694.9173675,0.035291243344545364,-0.013348554261028767,-0.2583349347114563,0.33684659004211426,-0.6691628694534302,-9.711770057678223
1745671694.9195607,0.020089415833353996,-0.02164798229932785,-0.25886398553848267,0.510612964630127,-0.771449863910675,-9.799959182739258
1745671694.9240143,0.023893235251307487,-0.016624649986624718,-0.2591337561607361,0.331311970949173,-0.5710489153862,-9.842677116394043
1745671694.9240878,0.019722377881407738,-0.015481089241802692,-0.2599368691444397,0.535955548286438,-0.7621119618415833,-9.698670387268066
1745671694.9246004,0.02706286869943142,-0.021809633821249008,-0.25899600982666016,0.3548329770565033,-0.5695899724960327,-9.656427383422852
1745671694.9614413,0.022052418440580368,-0.015994828194379807,-0.2603488862514496,0.47086629271507263,-0.9173568487167358,-10.06368350982666
1745671694.9645545,0.03438674658536911,-0.0150346290320158,-0.2599814832210541,0.23750391602516174,-0.4254283905029297,-9.78027629852295
1745671694.9679122,0.019995996728539467,-0.01186823658645153,-0.25965896248817444,0.4544609487056732,-0.8356045484542847,-9.525408744812012
1745671694.9704957,0.02985181286931038,-0.01706387847661972,-0.2563689351081848,0.3721955418586731,-0.6294218301773071,-9.587076187133789
1745671695.0084708,0.02817518077790737,-0.010560331866145134,-0.2579020857810974,0.43088334798812866,-0.6442768573760986,-9.86262321472168
1745671695.0085223,0.021265165880322456,-0.01514321006834507,-0.2584766447544098,0.4689100682735443,-0.7464191913604736,-9.916813850402832
1745671695.0085552,0.02546514943242073,-0.013617651537060738,-0.2574255168437958,0.2949550747871399,-0.6070685386657715,-9.759618759155273
1745671695.0127947,0.02556803822517395,-0.021224679425358772,-0.25904783606529236,0.4636484980583191,-0.7460944056510925,-9.73649787902832
1745671695.0479376,0.011837063357234001,-0.015084439888596535,-0.25980544090270996,0.22930052876472473,-0.5296475291252136,-9.759653091430664
1745671695.0507104,0.0306851826608181,-0.012959104962646961,-0.2586897015571594,0.46656522154808044,-0.829990029335022,-9.640708923339844
1745671695.05329,0.014244623482227325,-0.01474683452397585,-0.25976213812828064,0.3176456093788147,-0.495939165353775,-9.560379028320312
1745671695.0567713,0.01538057904690504,-0.009471632540225983,-0.260688841342926,0.42957600951194763,-0.8043835759162903,-9.872812271118164
1745671695.0588577,0.030271481722593307,-0.018012501299381256,-0.2578331232070923,0.4097425043582916,-0.5915284156799316,-9.91735553741455
1745671695.0907614,0.014786714687943459,-0.0107590826228261,-0.2626674771308899,0.32505208253860474,-0.6382700204849243,-9.794903755187988
1745671695.091805,0.027133222669363022,-0.015753474086523056,-0.25713855028152466,0.5041377544403076,-0.8179680705070496,-9.630671501159668
1745671695.1013052,0.01837289147078991,-0.013389727100729942,-0.2596033215522766,0.276997834444046,-0.5681464672088623,-9.626599311828613
1745671695.101377,0.018461471423506737,-0.005965676624327898,-0.2559207081794739,0.4909897744655609,-0.677972137928009,-9.796789169311523
1745671695.1335304,0.0076761553063988686,-0.013950961641967297,-0.257571280002594,0.3958730101585388,-0.7150356769561768,-9.722223281860352
1745671695.1360593,0.018146447837352753,-0.010403668507933617,-0.2563771605491638,0.4047645032405853,-0.5896442532539368,-9.77873420715332
1745671695.1383095,-0.004715011455118656,-0.013071911409497261,-0.25461649894714355,0.3609626591205597,-0.8854824900627136,-9.908014297485352
1745671695.140105,0.0281976368278265,-0.0076689450070261955,-0.25613006949424744,0.29125896096229553,-0.5801741480827332,-9.599712371826172
1745671695.1769063,-0.00507208239287138,-0.012843554839491844,-0.2555371820926666,0.5594180822372437,-0.7268376350402832,-9.606086730957031
1745671695.1853569,0.01713738590478897,-0.010636736638844013,-0.2555800676345825,0.2966063618659973,-0.6529768705368042,-9.944134712219238
1745671695.1854165,0.019714344292879105,-0.008167475461959839,-0.2544638216495514,0.42231687903404236,-0.6030668020248413,-9.908292770385742
1745671695.1856277,0.00942607969045639,-0.010031886398792267,-0.2541869878768921,0.26587334275245667,-0.6996503472328186,-9.702224731445312
1745671695.1982286,0.024818407371640205,-0.013512623496353626,-0.25441256165504456,0.3850975036621094,-0.667696475982666,-9.60912799835205
1745671695.2198913,0.006550155580043793,-0.01799139380455017,-0.25394994020462036,0.4547395706176758,-0.7585121393203735,-9.863399505615234
1745671695.222579,0.013494330458343029,-0.008391009643673897,-0.2561551630496979,0.3519740700721741,-0.6388862729072571,-9.898820877075195
1745671695.2244556,0.00010089836723636836,-0.011095592752099037,-0.2533053457736969,0.5317538380622864,-0.9020316004753113,-9.616570472717285
1745671695.2256281,0.008032737299799919,-0.01480082981288433,-0.25527653098106384,0.36896681785583496,-0.5247482061386108,-9.59937572479248
1745671695.2660367,-0.010903836227953434,-0.013712450861930847,-0.2543068528175354,0.43220144510269165,-0.8656846284866333,-10.007406234741211
1745671695.2661045,0.009244769811630249,-0.013027450069785118,-0.2548023462295532,0.26028019189834595,-0.6419397592544556,-9.950268745422363
1745671695.2675936,0.004118818789720535,-0.008596460334956646,-0.2546383738517761,0.38063615560531616,-0.4587925374507904,-9.441070556640625
1745671695.2695694,0.004296681843698025,-0.01659851334989071,-0.25507602095603943,0.40915727615356445,-0.7126556634902954,-9.587797164916992
1745671695.3046088,0.025001132860779762,-0.008264059200882912,-0.25418737530708313,0.3151080310344696,-0.3974837362766266,-9.857412338256836
1745671695.3077698,0.01354311965405941,-0.012241587042808533,-0.2513607144355774,0.3786425292491913,-0.6027413606643677,-9.732719421386719
1745671695.3107111,0.0025027194060385227,-0.02112741395831108,-0.25160056352615356,0.42119115591049194,-0.7091985940933228,-9.71186637878418
1745671695.313447,0.0006381983985193074,-0.011397811584174633,-0.25528186559677124,0.26728928089141846,-0.5716560482978821,-9.747964859008789
1745671695.3498487,0.011694857850670815,-0.014956990256905556,-0.2550896108150482,0.4950081706047058,-0.764967679977417,-9.591405868530273
1745671695.3528082,-0.015584942884743214,-0.01378130167722702,-0.2535681128501892,0.28899550437927246,-0.5354554653167725,-9.721159934997559
1745671695.3530023,-0.0010693039512261748,-0.011618510819971561,-0.25822335481643677,0.482866108417511,-0.9359437227249146,-9.987645149230957
1745671695.3547401,-0.002653832081705332,-0.01763424649834633,-0.25364428758621216,0.33499956130981445,-0.5493021607398987,-9.786239624023438
1745671695.355076,-0.003028485458344221,-0.007399158086627722,-0.25280919671058655,0.4263680875301361,-0.7145124673843384,-9.648672103881836
1745671695.393804,0.001782744424417615,-0.01656254753470421,-0.253837913274765,0.45323318243026733,-0.6517196893692017,-9.632730484008789
1745671695.3964398,0.004235589411109686,-0.010546179488301277,-0.2525590658187866,0.29277747869491577,-0.5622690916061401,-9.805594444274902
1745671695.400202,0.0062788138166069984,-0.011922881007194519,-0.25168663263320923,0.4428682327270508,-0.7572698593139648,-9.8599271774292
1745671695.404116,0.007251149974763393,-0.011117073707282543,-0.2520243525505066,0.21589262783527374,-0.5390986800193787,-9.781036376953125
1745671695.4348447,0.013197126798331738,-0.01454443670809269,-0.2524476647377014,0.44461947679519653,-0.6993244886398315,-9.725652694702148
1745671695.4376078,-0.005664312746375799,-0.015749365091323853,-0.2553716003894806,0.34825462102890015,-0.5231188535690308,-9.769815444946289
1745671695.440801,0.01576916314661503,-0.0105551453307271,-0.2570626735687256,0.4587641656398773,-0.695518434047699,-9.742520332336426
1745671695.4448173,-0.005226451903581619,-0.016569435596466064,-0.256450355052948,0.48631200194358826,-0.6812747716903687,-9.646750450134277
1745671695.4460561,-0.002410103101283312,-0.011214099824428558,-0.25498831272125244,0.37969088554382324,-0.8102709650993347,-9.915241241455078
1745671695.4770308,-0.021044041961431503,-0.014569791965186596,-0.2507709264755249,0.4951934814453125,-0.7535158395767212,-9.777256965637207
1745671695.479437,0.00979782547801733,-0.01007452979683876,-0.2512907385826111,0.26263561844825745,-0.5263130068778992,-9.797048568725586
1745671695.4814746,-0.0003388015611562878,-0.014506128616631031,-0.2523857057094574,0.4655623435974121,-0.634810745716095,-9.818620681762695
1745671695.4823565,0.004517543129622936,-0.015685344114899635,-0.2532561719417572,0.30456429719924927,-0.6164455413818359,-9.792570114135742
1745671695.5211997,0.014659052714705467,-0.014745058491826057,-0.2511686086654663,0.42501187324523926,-0.6984333395957947,-9.721916198730469
1745671695.5262427,0.0013428345555439591,-0.019435960799455643,-0.2486708164215088,0.39227715134620667,-0.7046351432800293,-9.705902099609375
1745671695.530159,0.011912232264876366,-0.0076918466947972775,-0.24809630215168,0.3761303424835205,-0.6224333047866821,-9.698709487915039
1745671695.5325918,0.0004666497989092022,-0.01764058694243431,-0.24864010512828827,0.46088510751724243,-0.796883761882782,-9.772893905639648
1745671695.5630784,0.006450938992202282,-0.012414194643497467,-0.25023558735847473,0.33306512236595154,-0.4136999547481537,-9.810043334960938
1745671695.565615,-0.006297950632870197,-0.018430285155773163,-0.25203245878219604,0.4362253248691559,-0.8543061017990112,-9.908211708068848
1745671695.5681324,0.01381768099963665,-0.016093868762254715,-0.25444284081459045,0.2923767864704132,-0.4793078303337097,-9.64116096496582
1745671695.570288,-0.009596621617674828,-0.013422777876257896,-0.25383275747299194,0.5322587490081787,-0.6778520941734314,-9.55762767791748
1745671695.571402,-0.001066042110323906,-0.016325365751981735,-0.252818763256073,0.3738158345222473,-0.7989848256111145,-9.808039665222168
1745671695.6106534,0.00709740212187171,-0.013257166370749474,-0.2510698437690735,0.39869385957717896,-0.5368839502334595,-9.87822437286377
1745671695.617617,-0.009810982272028923,-0.017504217103123665,-0.24951855838298798,0.42414936423301697,-0.8412121534347534,-9.860457420349121
1745671695.6263049,0.013287755660712719,-0.013849273324012756,-0.24932141602039337,0.2980729341506958,-0.4947487711906433,-9.68461799621582
1745671695.6298912,0.0017770323902368546,-0.02048978954553604,-0.24898746609687805,0.5190995931625366,-0.6784555912017822,-9.648381233215332
1745671695.6500144,0.00184678437653929,-0.017064284533262253,-0.2514488101005554,0.2779620885848999,-0.5544902086257935,-9.842550277709961
1745671695.653175,0.006994542665779591,-0.011681277304887772,-0.2523914575576782,0.41750043630599976,-0.7527531385421753,-9.775197982788086
1745671695.6603923,-0.011906038038432598,-0.022826826199889183,-0.25203144550323486,0.3453669548034668,-0.38721299171447754,-9.764453887939453
1745671695.6621943,-0.0010647751623764634,-0.012781696394085884,-0.2518457770347595,0.41191092133522034,-0.6754520535469055,-9.898126602172852
1745671695.6931508,0.00449096504598856,-0.016169939190149307,-0.25396639108657837,0.3356977701187134,-0.4261084198951721,-9.56493854522705
1745671695.6963603,0.0058846366591751575,-0.013171421363949776,-0.25141197443008423,0.3064594268798828,-0.5036524534225464,-9.649877548217773
1745671695.6982467,0.012126090005040169,-0.019795482978224754,-0.25232261419296265,0.444019079208374,-0.6742346882820129,-9.900558471679688
1745671695.7003582,0.014631633646786213,-0.016066934913396835,-0.2517315745353699,0.23459482192993164,-0.5217270851135254,-9.929692268371582
1745671695.704096,0.01942741870880127,-0.014437995851039886,-0.2505156695842743,0.46423959732055664,-0.7618342638015747,-9.633760452270508
1745671695.7349856,0.003666399512439966,-0.017450332641601562,-0.2516691982746124,0.3431656062602997,-0.5617667436599731,-9.552884101867676
1745671695.7371883,0.025938188657164574,-0.015265330672264099,-0.24911952018737793,0.49123015999794006,-0.6535824537277222,-9.735567092895508
1745671695.739484,-0.0045695556327700615,-0.0165797658264637,-0.25314539670944214,0.40116557478904724,-0.6153520345687866,-9.986031532287598
1745671695.741247,0.017813142389059067,-0.010895214974880219,-0.25217190384864807,0.3306485712528229,-0.7013491988182068,-9.856500625610352
1745671695.782848,0.013785871677100658,-0.018922362476587296,-0.2536621689796448,0.39949363470077515,-0.551457941532135,-9.529043197631836
1745671695.7850099,0.003965955227613449,-0.01764790713787079,-0.2527887225151062,0.24710936844348907,-0.5829592943191528,-9.714513778686523
1745671695.787189,0.026020806282758713,-0.013390864245593548,-0.2529395520687103,0.4830721318721771,-0.6327027082443237,-9.825952529907227
1745671695.789971,0.007807686924934387,-0.01497368048876524,-0.25343164801597595,0.2988511025905609,-0.5903008580207825,-9.804999351501465
1745671695.7924166,0.024933388456702232,-0.014674382284283638,-0.2514214813709259,0.46048641204833984,-0.7051635980606079,-9.700454711914062
1745671695.8208537,0.01260579563677311,-0.02262977883219719,-0.2509036362171173,0.3742433190345764,-0.6841946244239807,-9.809500694274902
1745671695.8218844,0.02342098578810692,-0.011159272864460945,-0.2532595992088318,0.3007727563381195,-0.5265359282493591,-10.001437187194824
1745671695.8252466,0.01980723813176155,-0.014263045974075794,-0.2537885904312134,0.3499043881893158,-0.6673464775085449,-9.781001091003418
1745671695.8332152,0.025463467463850975,-0.012586312368512154,-0.25478631258010864,0.2777266502380371,-0.42188459634780884,-9.586641311645508
1745671695.8670695,0.01987328566610813,-0.02024107240140438,-0.2553340792655945,0.46693316102027893,-0.9012413024902344,-9.789817810058594
1745671695.869347,0.030554110184311867,-0.013232631608843803,-0.2548105716705322,0.34156903624534607,-0.4883667826652527,-9.776161193847656
1745671695.8710718,0.007816070690751076,-0.009281264618039131,-0.25299516320228577,0.5527597665786743,-0.8246229290962219,-9.765116691589355
1745671695.8749907,0.02440960332751274,-0.014156368561089039,-0.25271448493003845,0.3495863080024719,-0.6860213279724121,-9.694887161254883
1745671695.9098039,0.020157596096396446,-0.012468134053051472,-0.25280505418777466,0.397869348526001,-0.5849316120147705,-9.817843437194824
1745671695.9126244,0.012866024859249592,-0.018825387582182884,-0.2531837821006775,0.4063567519187927,-0.79397052526474,-9.937105178833008
1745671695.915175,0.028041308745741844,-0.01244385540485382,-0.25430455803871155,0.20965328812599182,-0.4395703375339508,-9.692078590393066
1745671695.9179533,0.015348861925303936,-0.015931125730276108,-0.2520873248577118,0.44874247908592224,-0.7365466952323914,-9.576464653015137
1745671695.9262338,0.018611274659633636,-0.016894368454813957,-0.25648507475852966,0.28827768564224243,-0.5192641019821167,-9.731637954711914
1745671695.9515245,0.01927298866212368,-0.013351209461688995,-0.2530542016029358,0.4940265119075775,-0.8444205522537231,-9.978501319885254
1745671695.9544213,0.009871844202280045,-0.015684470534324646,-0.255359947681427,0.3343096375465393,-0.5567042827606201,-9.816167831420898
1745671695.9551299,0.012572449631989002,-0.01504518836736679,-0.25378239154815674,0.38030242919921875,-0.8335579633712769,-9.722565650939941
1745671695.9586003,0.019916558638215065,-0.02053048089146614,-0.25342288613319397,0.4365866184234619,-0.6517905592918396,-9.626177787780762
1745671695.9983802,0.003151011187583208,-0.01321999728679657,-0.25210538506507874,0.38359132409095764,-0.5161691904067993,-9.808080673217773
1745671695.9984543,0.019039321690797806,-0.014802801422774792,-0.25249430537223816,0.4420979917049408,-0.7362323999404907,-9.858612060546875
1745671695.9985178,0.015826374292373657,-0.01350761391222477,-0.25644803047180176,0.22802631556987762,-0.35668689012527466,-9.66553783416748
1745671696.001031,0.014507566578686237,-0.014917452819645405,-0.2500174343585968,0.5155054926872253,-0.7698900699615479,-9.90662670135498
1745671696.0352876,0.004082010127604008,-0.016218122094869614,-0.25271743535995483,0.2856452763080597,-0.6663631200790405,-9.63671875
1745671696.0373673,0.0217696912586689,-0.015833202749490738,-0.25206494331359863,0.47538360953330994,-0.5660911798477173,-9.50221061706543
1745671696.0395727,-0.009330028668045998,-0.023307006806135178,-0.255548894405365,0.33352768421173096,-0.6854442954063416,-9.97474479675293
1745671696.0443444,0.02611944079399109,-0.012208216823637486,-0.25455889105796814,0.2795049846172333,-0.6468085050582886,-10.023963928222656
1745671696.044917,0.006672909948974848,-0.01755119301378727,-0.2566043734550476,0.4455297589302063,-0.554570734500885,-9.562309265136719
1745671696.0813327,0.009327961131930351,-0.01772705838084221,-0.2543574869632721,0.33805161714553833,-0.732495129108429,-9.51696491241455
1745671696.0911295,0.018192671239376068,-0.017920447513461113,-0.2531633973121643,0.5146260857582092,-0.6946197152137756,-9.835867881774902
1745671696.0912077,0.00013078656047582626,-0.01523908693343401,-0.25313302874565125,0.30360502004623413,-0.6767566204071045,-10.083659172058105
1745671696.0912805,0.019869117066264153,-0.012001659721136093,-0.2514427602291107,0.40876978635787964,-0.7041395306587219,-9.728972434997559
1745671696.1232688,0.002110282424837351,-0.021459810435771942,-0.25327175855636597,0.3597148358821869,-0.6212803721427917,-9.47271728515625
1745671696.1252637,0.01624882221221924,-0.016534335911273956,-0.25316503643989563,0.36974555253982544,-0.6294536590576172,-9.803083419799805
1745671696.1275759,-0.007249538786709309,-0.018508976325392723,-0.2535251975059509,0.4237307012081146,-0.7338966131210327,-10.00011920928955
1745671696.1286886,0.0166782196611166,-0.008805375546216965,-0.255806565284729,0.2564621865749359,-0.5581756830215454,-9.646169662475586
1745671696.13208,-0.008389631286263466,-0.015347403474152088,-0.25480762124061584,0.49419039487838745,-0.7005847096443176,-9.48343276977539
1745671696.1649325,-0.000186840450624004,-0.018446173518896103,-0.2541629672050476,0.3308728337287903,-0.7305142283439636,-9.947141647338867
1745671696.1683502,0.012283721938729286,-0.016064077615737915,-0.2554956376552582,0.468372106552124,-0.5554980039596558,-9.976372718811035
1745671696.176727,-0.001987484050914645,-0.011262577027082443,-0.252449095249176,0.4862854480743408,-0.8450915217399597,-9.938395500183105
1745671696.1767824,0.015796322375535965,-0.014617642387747765,-0.2526949346065521,0.19916053116321564,-0.4115670621395111,-9.729242324829102
1745671696.2102377,0.007803414016962051,-0.010949735529720783,-0.253622829914093,0.3511146605014801,-0.6396397352218628,-9.653589248657227
1745671696.2128065,0.013916028663516045,-0.014799416065216064,-0.2530239522457123,0.36455512046813965,-0.6483083963394165,-9.732307434082031
1745671696.2176955,0.020237693563103676,-0.010477880947291851,-0.2509803771972656,0.31571048498153687,-0.5152472257614136,-9.775016784667969
1745671696.22147,0.014715400524437428,-0.013167023658752441,-0.2524603009223938,0.4985292851924896,-0.7075857520103455,-9.765481948852539
1745671696.2566953,0.02004055865108967,-0.010079112835228443,-0.24872548878192902,0.26527443528175354,-0.5309304594993591,-9.742944717407227
1745671696.2567308,0.026237759739160538,-0.012221074663102627,-0.2509411573410034,0.4744392931461334,-0.8054913282394409,-9.779316902160645
1745671696.2603564,0.010010375641286373,-0.011992066167294979,-0.24940340220928192,0.3181913197040558,-0.48934993147850037,-9.77012825012207
1745671696.2619312,0.018531443551182747,-0.01018178928643465,-0.24997861683368683,0.41253194212913513,-0.8904844522476196,-9.791727066040039
1745671696.296234,0.012588928453624249,-0.01352459006011486,-0.24950551986694336,0.37193763256073,-0.5145126581192017,-9.621844291687012
1745671696.298692,0.0003779841645155102,-0.005326427053660154,-0.2509455382823944,0.3923914134502411,-0.6388939023017883,-9.71220588684082
1745671696.301808,0.016653016209602356,-0.012150408700108528,-0.25203701853752136,0.392533540725708,-0.6509915590286255,-9.822976112365723
1745671696.3045666,0.007743756286799908,-0.00712639931589365,-0.2520676851272583,0.25816744565963745,-0.46540307998657227,-9.875635147094727
1745671696.306639,0.018433470278978348,-0.010538515634834766,-0.2521791458129883,0.48929888010025024,-0.7754856944084167,-9.732073783874512
1745671696.3402476,0.015058944933116436,-0.013247871771454811,-0.2517161965370178,0.30473989248275757,-0.5379047393798828,-9.657442092895508
1745671696.3441923,0.01855488494038582,-0.009394239634275436,-0.25037315487861633,0.5233730673789978,-0.7457126379013062,-9.788747787475586
1745671696.3452861,0.0061726332642138,-0.011211894452571869,-0.2501939535140991,0.3177993893623352,-0.6459941864013672,-9.876957893371582
1745671696.346649,0.021663274616003036,-0.005441955290734768,-0.25046205520629883,0.34390488266944885,-0.6950129866600037,-9.745660781860352
1745671696.3808064,0.011628037318587303,-0.0003076837456319481,-0.2547024190425873,0.37217196822166443,-0.6838239431381226,-9.721900939941406
1745671696.3830888,0.0015212459256872535,-0.015304004773497581,-0.25216859579086304,0.46255770325660706,-0.6131223440170288,-9.514472961425781
1745671696.3879223,-0.0001733604003675282,-0.01290296483784914,-0.25177979469299316,0.24144932627677917,-0.626139223575592,-9.931901931762695
1745671696.391328,0.012968964874744415,-0.010404502041637897,-0.2515764534473419,0.422560453414917,-0.6229625940322876,-9.960750579833984
1745671696.3929985,0.004567482974380255,-0.010960306040942669,-0.25381001830101013,0.2689343988895416,-0.5216392278671265,-9.651366233825684
1745671696.4270916,0.013216438703238964,-0.008823176845908165,-0.2534393072128296,0.42131176590919495,-0.5760607719421387,-9.525392532348633
1745671696.4336395,-0.0007972390158101916,-0.01680622436106205,-0.253579318523407,0.39115822315216064,-0.7062408328056335,-9.823625564575195
1745671696.4367096,0.020660992711782455,-0.005498980637639761,-0.2549808621406555,0.3948020339012146,-0.5350134372711182,-9.913312911987305
1745671696.4394011,-0.009378795512020588,-0.006827100180089474,-0.25351670384407043,0.40941065549850464,-0.857923150062561,-9.792806625366211
1745671696.4675407,0.017517412081360817,-0.00905093364417553,-0.2517155110836029,0.29326754808425903,-0.6099086403846741,-9.565403938293457
1745671696.4694386,-0.0028867002110928297,-0.01212967187166214,-0.25328725576400757,0.5398861169815063,-0.589801013469696,-9.674875259399414
1745671696.4726295,-0.0027876142412424088,-0.006357862148433924,-0.2535044252872467,0.3116896152496338,-0.6319389343261719,-10.006742477416992
1745671696.4729931,0.017870742827653885,-0.0030510188080370426,-0.25396397709846497,0.39112335443496704,-0.4596361517906189,-9.707601547241211
1745671696.4755497,-0.0021603365894407034,-0.011317970231175423,-0.25401002168655396,0.3141682744026184,-0.6138325929641724,-9.627726554870605
1745671696.512445,0.019329138100147247,-0.004904528614133596,-0.2544761896133423,0.3393072187900543,-0.5866132974624634,-9.828235626220703
1745671696.5150342,0.007976263761520386,-0.012076890096068382,-0.2531431317329407,0.4034079611301422,-0.6450564861297607,-9.939629554748535
1745671696.5197144,0.017504621297121048,-0.004304513800889254,-0.2538362145423889,0.3206724226474762,-0.5444276332855225,-9.739721298217773
1745671696.5527165,0.01173966284841299,-0.006919626146554947,-0.2507569193840027,0.2830401062965393,-0.537511944770813,-9.806452751159668
1745671696.5559952,0.007219497114419937,-0.018139386549592018,-0.25119921565055847,0.45000067353248596,-0.7056413292884827,-9.640755653381348
1745671696.5605488,0.0028191448654979467,-0.012912203557789326,-0.2527976632118225,0.27835020422935486,-0.47747716307640076,-9.778203964233398
1745671696.565557,0.014194865711033344,-0.014981081709265709,-0.24989192187786102,0.4900168478488922,-0.8064843416213989,-9.825456619262695
1745671696.5677943,0.005240750964730978,-0.011614171788096428,-0.25155922770500183,0.2823988199234009,-0.4514179229736328,-9.60473918914795
1745671696.5976443,0.00034381597652100027,-0.008500405587255955,-0.2514208257198334,0.47396430373191833,-0.8016136288642883,-9.715054512023926
1745671696.599561,0.008389510214328766,-0.018043560907244682,-0.2527357041835785,0.40090394020080566,-0.5579727292060852,-9.820581436157227
1745671696.601414,-0.0008456537616439164,-0.012150509282946587,-0.2532232999801636,0.3965572416782379,-0.6115679740905762,-9.943109512329102
1745671696.603859,0.005124642513692379,-0.01220780797302723,-0.2517644762992859,0.47935277223587036,-0.7388094067573547,-9.766817092895508
1745671696.6407769,0.005795528646558523,-0.010459517128765583,-0.25137603282928467,0.2842255234718323,-0.49826836585998535,-9.50811767578125
1745671696.6441104,-0.0015839444240555167,-0.016287151724100113,-0.2508038580417633,0.5140066742897034,-0.7723234295845032,-9.647714614868164
1745671696.647378,-0.00067239097552374,-0.01262307446449995,-0.2520695626735687,0.23142766952514648,-0.5114890933036804,-9.96524429321289
1745671696.650083,0.010161278769373894,-0.008809143677353859,-0.2512337863445282,0.3916318416595459,-0.6929994821548462,-9.908989906311035
1745671696.6535096,-0.00549220060929656,-0.013941431418061256,-0.2526766359806061,0.36479121446609497,-0.49066367745399475,-9.59158706665039
1745671696.6849258,0.009850738570094109,-0.01527270209044218,-0.2521837651729584,0.4205086827278137,-0.7510457038879395,-9.65530776977539
1745671696.6855078,0.004530628677457571,-0.018819978460669518,-0.25251200795173645,0.49854159355163574,-0.6066994667053223,-9.847439765930176
1745671696.687769,-0.008347263559699059,-0.007446779403835535,-0.2538602948188782,0.3541073501110077,-0.647335410118103,-9.913178443908691
1745671696.6902204,0.010084005072712898,-0.013661150820553303,-0.2505335211753845,0.46223506331443787,-0.7557328343391418,-9.588715553283691
1745671696.7252982,-0.0007692224462516606,-0.020297611132264137,-0.2523295283317566,0.3779589533805847,-0.66655433177948,-9.515235900878906
1745671696.7282302,0.007894226349890232,-0.018155615776777267,-0.253903865814209,0.44457873702049255,-0.514724850654602,-9.976822853088379
1745671696.7339342,-0.010361899621784687,-0.01570787839591503,-0.2520780563354492,0.2639409005641937,-0.739745020866394,-10.122430801391602
1745671696.7363594,0.02629242278635502,-0.010242780670523643,-0.25422829389572144,0.2860163152217865,-0.4551416337490082,-9.439926147460938
1745671696.7676792,-0.009648294188082218,-0.02136065624654293,-0.2554352283477783,0.516867995262146,-0.5469226241111755,-9.372146606445312
1745671696.77054,0.01532814372330904,-0.015029443427920341,-0.2567228376865387,0.30895957350730896,-0.568379819393158,-10.011808395385742
1745671696.773286,0.014612885192036629,-0.011346567422151566,-0.2553485035896301,0.48615092039108276,-0.5400223731994629,-10.01479434967041
1745671696.7766418,0.003290640190243721,-0.013040791265666485,-0.2578624188899994,0.32898277044296265,-0.6870445013046265,-9.645395278930664
1745671696.8104637,0.016145935282111168,-0.018877698108553886,-0.25391829013824463,0.4550701677799225,-0.7232276201248169,-9.563615798950195
1745671696.813324,-0.0021105636842548847,-0.02285333350300789,-0.2533031702041626,0.40143632888793945,-0.6795614361763,-9.903400421142578
1745671696.8159196,0.010381845757365227,-0.010316233150660992,-0.2533086836338043,0.34668803215026855,-0.5508093237876892,-9.89070987701416
1745671696.8184297,-0.0027305225376039743,-0.013814607635140419,-0.2553667724132538,0.41780757904052734,-0.66251540184021,-9.499711036682129
1745671696.820244,0.01610666699707508,-0.018754513934254646,-0.2560172975063324,0.32939043641090393,-0.3231254518032074,-9.481210708618164
1745671696.8549008,-0.0020498211961239576,-0.018958372995257378,-0.2564581334590912,0.43920737504959106,-0.7600290179252625,-10.100387573242188
1745671696.85755,0.018490483984351158,-0.01517061609774828,-0.2564012110233307,0.22300691902637482,-0.5842491388320923,-10.046732902526855
1745671696.8612907,0.013403847813606262,-0.013042574748396873,-0.25678399205207825,0.45502156019210815,-0.5335928797721863,-9.360151290893555
1745671696.8629518,0.002438910072669387,-0.020479705184698105,-0.2544395923614502,0.42912420630455017,-0.7117905616760254,-9.474919319152832
1745671696.8975332,0.024808233603835106,-0.010209568776190281,-0.2543238401412964,0.38482868671417236,-0.43764322996139526,-9.945879936218262
1745671696.90128,0.023213688284158707,-0.013432863168418407,-0.2572213113307953,0.45849543809890747,-0.7948911786079407,-9.800336837768555
1745671696.9038522,0.03140980005264282,-0.015991341322660446,-0.2560795247554779,0.2517654001712799,-0.28279098868370056,-9.777732849121094
1745671696.9070868,0.026689857244491577,-0.01276598870754242,-0.2606441378593445,0.42257794737815857,-0.5951241850852966,-9.835138320922852
1745671696.908293,0.0368422269821167,-0.01764344796538353,-0.2604875862598419,0.43288812041282654,-0.5811751484870911,-9.729365348815918
1745671696.9403489,0.03200709819793701,-0.011838977225124836,-0.25935834646224976,0.3527054190635681,-0.55927574634552,-9.707063674926758
1745671696.9504268,0.025509795174002647,-0.01643594726920128,-0.25931882858276367,0.4784444272518158,-0.8251789212226868,-9.789752006530762
1745671696.9505723,0.02190978080034256,-0.015119056217372417,-0.25752192735671997,0.2593814730644226,-0.619091808795929,-9.863482475280762
1745671696.9506521,0.023540575057268143,-0.015697980299592018,-0.25746989250183105,0.5007829666137695,-0.7953850030899048,-9.80972957611084
1745671696.9852865,0.010211369954049587,-0.01683935523033142,-0.25966402888298035,0.31120210886001587,-0.46814292669296265,-9.689192771911621
1745671696.9901762,0.03025440312922001,-0.01685396209359169,-0.2596433460712433,0.46903562545776367,-0.7396213412284851,-9.759428024291992
1745671696.992949,0.01534969825297594,-0.01705131120979786,-0.259785532951355,0.37235191464424133,-0.481966495513916,-9.721640586853027
1745671696.9967065,0.01801937259733677,-0.00941663607954979,-0.2613174319267273,0.2687165439128876,-0.7226435542106628,-9.866211891174316
1745671697.0021799,0.03357050567865372,-0.01585295982658863,-0.2602955400943756,0.36181381344795227,-0.600598156452179,-9.713945388793945
1745671697.0271883,0.01478519570082426,-0.01364300400018692,-0.258474737405777,0.2490197718143463,-0.5364254117012024,-9.745776176452637
1745671697.0312548,0.03315591812133789,-0.016229018568992615,-0.258686363697052,0.5460048913955688,-0.759647011756897,-9.784854888916016
1745671697.0433462,0.01912597566843033,-0.015942571684718132,-0.2600620687007904,0.3452203869819641,-0.4797883629798889,-9.753889083862305
1745671697.0434124,0.02908899448812008,-0.010587023571133614,-0.25996309518814087,0.475564181804657,-0.7228848338127136,-9.760223388671875
1745671697.0737998,0.015052062459290028,-0.017911966890096664,-0.2582884728908539,0.40381279587745667,-0.6791179180145264,-9.737223625183105
1745671697.0766225,0.023518051952123642,-0.016439249739050865,-0.2567942142486572,0.47522813081741333,-0.603571355342865,-10.07384204864502
1745671697.079196,0.022159714251756668,-0.010616179555654526,-0.2583232820034027,0.2512931227684021,-0.6197026371955872,-9.873608589172363
1745671697.0831108,0.0316917821764946,-0.015085006132721901,-0.25616374611854553,0.41669130325317383,-0.6903144717216492,-9.436266899108887
1745671697.1157343,0.01185616198927164,-0.023383833467960358,-0.25829634070396423,0.3654354214668274,-0.6465096473693848,-9.638618469238281
1745671697.1158006,0.020680205896496773,-0.011095711961388588,-0.2576286196708679,0.3642177879810333,-0.6352155804634094,-10.019562721252441
1745671697.1176655,0.00874180905520916,-0.013157950714230537,-0.2595132887363434,0.44887346029281616,-0.8193357586860657,-9.832307815551758
1745671697.119854,0.013995625078678131,-0.013955274596810341,-0.2572403848171234,0.3683949410915375,-0.47128382325172424,-9.54548168182373
1745671697.156296,-0.002835160819813609,-0.021365590393543243,-0.2571490406990051,0.45484375953674316,-0.9157644510269165,-9.861104965209961
1745671697.1582153,0.019016411155462265,-0.015999194234609604,-0.2581401467323303,0.25154682993888855,-0.5427019596099854,-9.93070125579834
1745671697.1608222,0.0042184279300272465,-0.011656519956886768,-0.2573786675930023,0.4961256980895996,-0.6580801010131836,-9.662928581237793
1745671697.1634383,0.011219935491681099,-0.016965512186288834,-0.2540367543697357,0.3397925794124603,-0.6459624171257019,-9.564889907836914
1745671697.1660454,0.025707846507430077,-0.014930161647498608,-0.2572792172431946,0.382641077041626,-0.40776902437210083,-9.797855377197266
1745671697.1993434,0.010282943956553936,-0.019254155457019806,-0.25621432065963745,0.37255096435546875,-0.6582473516464233,-10.051228523254395
1745671697.2083225,0.03041401132941246,-0.010372009128332138,-0.25672295689582825,0.2439204901456833,-0.4957920014858246,-9.837217330932617
1745671697.2084632,0.02253224328160286,-0.019748857244849205,-0.25763702392578125,0.5021844506263733,-0.7165274024009705,-9.563420295715332
1745671697.2100708,0.016384411603212357,-0.018899211660027504,-0.25952938199043274,0.35995689034461975,-0.5688444972038269,-9.682329177856445
1745671697.2434669,0.017225999385118484,-0.013889473862946033,-0.2567434310913086,0.5422987341880798,-0.8660773038864136,-9.927536964416504
1745671697.245357,0.01280763279646635,-0.017886366695165634,-0.2560955286026001,0.35286492109298706,-0.5555180311203003,-9.795076370239258
1745671697.2475874,-0.0013263288419693708,-0.0092282360419631,-0.25991255044937134,0.24645152688026428,-0.5345290899276733,-9.637639045715332
1745671697.2494886,0.02168361470103264,-0.011342261917889118,-0.26053792238235474,0.40974998474121094,-0.6676158905029297,-9.3673095703125
1745671697.251225,-0.007918541319668293,-0.017344558611512184,-0.26150742173194885,0.3963117301464081,-0.5429338812828064,-9.749847412109375
1745671697.2914948,0.010306249372661114,-0.005977433640509844,-0.2589361369609833,0.3218623995780945,-0.7464388012886047,-10.225743293762207
1745671697.2983024,0.017327386885881424,-0.012335749343037605,-0.2613615393638611,0.4237027168273926,-0.5827673673629761,-9.764196395874023
1745671697.3014004,0.007326343562453985,-0.009609637781977654,-0.2602194547653198,0.3022594451904297,-0.565388023853302,-9.432971954345703
1745671697.3062537,0.024285055696964264,-0.014231937006115913,-0.25728464126586914,0.522032618522644,-0.7086572051048279,-9.631070137023926
1745671697.3260086,0.009370284155011177,-0.010817470960319042,-0.2583480775356293,0.34876173734664917,-0.5631169676780701,-10.009249687194824
1745671697.3297086,0.022305568680167198,-0.006372373551130295,-0.2589258551597595,0.4357050955295563,-0.679012656211853,-9.902816772460938
1745671697.3322158,0.009953019209206104,-0.01599019765853882,-0.2587180733680725,0.32413965463638306,-0.6251987814903259,-9.598440170288086
1745671697.3350403,0.022214625030755997,-0.013423755764961243,-0.25934067368507385,0.3155171275138855,-0.5209607481956482,-9.717954635620117
1745671697.3373325,0.002401540521532297,-0.014761732891201973,-0.26059749722480774,0.42909759283065796,-0.6431102752685547,-9.86510944366455
1745671697.3737426,0.0238688625395298,-0.010858146473765373,-0.2603231370449066,0.32005560398101807,-0.6324338316917419,-9.77690315246582
1745671697.3747108,0.01201935950666666,-0.012495997361838818,-0.2597106099128723,0.5260308980941772,-0.621955931186676,-9.504404067993164
1745671697.377529,-0.0020569192711263895,-0.013934234157204628,-0.25783801078796387,0.315851628780365,-0.7560691833496094,-9.838537216186523
1745671697.3827555,0.034837402403354645,-0.009231150150299072,-0.25703126192092896,0.3681859076023102,-0.5756060481071472,-9.920465469360352
1745671697.4141955,0.003713676705956459,-0.011258603073656559,-0.2558087706565857,0.3159596025943756,-0.6083945035934448,-9.68839168548584
1745671697.4162304,0.03155197948217392,-0.00768241286277771,-0.25651878118515015,0.38228780031204224,-0.5709308385848999,-9.551816940307617
1745671697.4191194,0.015613350085914135,-0.014669926837086678,-0.257845938205719,0.4539163112640381,-0.5936897993087769,-9.739813804626465
1745671697.422169,0.015575637109577656,-0.011384328827261925,-0.2534598410129547,0.3243914246559143,-0.47273167967796326,-9.6395902633667
1745671697.4565742,0.002919283928349614,-0.018735460937023163,-0.2543308138847351,0.45201629400253296,-0.9108372926712036,-9.788217544555664
1745671697.4585376,0.021619390696287155,-0.01313411258161068,-0.25610923767089844,0.2457832545042038,-0.45812901854515076,-9.755915641784668
1745671697.4607248,0.0015563011402264237,-0.008497646078467369,-0.2555243968963623,0.4832076132297516,-0.6566149592399597,-9.702208518981934
1745671697.4649115,0.01776859723031521,-0.014021259732544422,-0.25560927391052246,0.3048095703125,-0.5962378978729248,-9.689973831176758
1745671697.4997547,0.020747531205415726,-0.010913046076893806,-0.25691723823547363,0.4373564124107361,-0.49429360032081604,-9.769966125488281
1745671697.5030508,0.008031539618968964,-0.018733711913228035,-0.2582147419452667,0.4703570306301117,-0.8128329515457153,-9.981843948364258
1745671697.5105278,0.024947380647063255,-0.009515625424683094,-0.255526602268219,0.28654611110687256,-0.5970671772956848,-9.793310165405273
1745671697.5144742,0.008015291765332222,-0.016176799312233925,-0.25389450788497925,0.5238184332847595,-0.8663321733474731,-9.54798412322998
1745671697.5171542,0.005020885728299618,-0.01574060134589672,-0.2518569827079773,0.3232469856739044,-0.6296785473823547,-9.676210403442383
1745671697.5447924,0.005864089820533991,-0.012898172251880169,-0.25301820039749146,0.5043899416923523,-0.8428264856338501,-9.920598030090332
1745671697.5489545,0.0037072165869176388,-0.01599355973303318,-0.25391507148742676,0.3071836829185486,-0.4145545959472656,-9.833334922790527
1745671697.5491846,0.001004169462248683,-0.011148404330015182,-0.2549259662628174,0.3303662836551666,-0.6975307464599609,-9.77369213104248
1745671697.5507727,0.018613649532198906,-0.021037932485342026,-0.2559663653373718,0.4061235785484314,-0.5704900622367859,-9.576099395751953
1745671697.5855515,0.0021495833061635494,-0.013144215568900108,-0.2550155222415924,0.3804461658000946,-0.4957742691040039,-9.74310302734375
1745671697.5893517,0.012920111417770386,-0.01530792098492384,-0.2554073929786682,0.5026227831840515,-0.8923927545547485,-9.8748779296875
1745671697.5927145,0.017061833292245865,-0.009505486115813255,-0.25362229347229004,0.25235873460769653,-0.4112890362739563,-9.704180717468262
1745671697.5973878,0.02028161659836769,-0.007701953407377005,-0.25794297456741333,0.4496293067932129,-0.7527289390563965,-10.042680740356445
1745671697.6289327,0.0035801243502646685,-0.016425099223852158,-0.2582074999809265,0.34662294387817383,-0.6713202595710754,-9.621892929077148
1745671697.632317,0.01300028432160616,-0.016933325678110123,-0.2593650221824646,0.4151065945625305,-0.7468255162239075,-9.553631782531738
1745671697.6375647,-0.011233347468078136,-0.019568562507629395,-0.2548653185367584,0.4578310549259186,-0.7643548250198364,-9.89490795135498
1745671697.6429448,0.013534799218177795,-0.011083599179983139,-0.25454798340797424,0.3217131793498993,-0.6005834937095642,-9.876768112182617
1745671697.6435559,-0.009522177278995514,-0.010652832686901093,-0.25714677572250366,0.5071251392364502,-0.6275160908699036,-9.58421802520752
1745671697.6718416,0.00275087240152061,-0.017739418894052505,-0.2559080421924591,0.2679353654384613,-0.6175587177276611,-9.734238624572754
1745671697.6740792,0.020527513697743416,-0.014493556693196297,-0.25592756271362305,0.38995879888534546,-0.4652671217918396,-9.857404708862305
1745671697.6761293,0.0015939336735755205,-0.01430152915418148,-0.2577027678489685,0.2686495780944824,-0.5907742381095886,-9.881153106689453
1745671697.6780756,0.031752217561006546,-0.008438631892204285,-0.2584194540977478,0.3903724253177643,-0.5630284547805786,-9.574419975280762
1745671697.716354,0.007076544221490622,-0.01922297663986683,-0.25717610120773315,0.48538556694984436,-0.7078601717948914,-9.586271286010742
1745671697.7199707,0.021317457780241966,-0.01023903675377369,-0.25506487488746643,0.34725335240364075,-0.6030125617980957,-9.965848922729492
1745671697.7237043,0.013321297243237495,-0.012483586557209492,-0.25508415699005127,0.47173649072647095,-0.7791275978088379,-9.95128059387207
1745671697.7251306,0.017257656902074814,-0.012050984427332878,-0.25604569911956787,0.28367066383361816,-0.5759704113006592,-9.658950805664062
1745671697.7569678,0.00911217276006937,-0.014930149540305138,-0.25478488206863403,0.4844922423362732,-0.6357649564743042,-9.575544357299805
1745671697.759653,0.01659208908677101,-0.016552899032831192,-0.2559538781642914,0.31994569301605225,-0.595948338508606,-9.820268630981445
1745671697.7619922,0.022593101486563683,-0.004701923578977585,-0.2566918432712555,0.34642845392227173,-0.4870629906654358,-9.786550521850586
1745671697.763853,0.002626430708914995,-0.011502275243401527,-0.2585732638835907,0.38529902696609497,-0.7832433581352234,-9.755701065063477
1745671697.765996,0.04119459539651871,-0.00940800178796053,-0.2551307678222656,0.2551642954349518,-0.4240768551826477,-9.706048965454102
1745671697.8032112,0.023979589343070984,-0.014799055643379688,-0.2545633912086487,0.3744557499885559,-0.6870322823524475,-9.783486366271973
1745671697.804412,0.03459512069821358,-0.009240759536623955,-0.2552974224090576,0.3473232388496399,-0.5357062220573425,-9.705650329589844
1745671697.8070228,0.018118966370821,-0.014694973826408386,-0.2552066147327423,0.4749883711338043,-0.7200860977172852,-9.708735466003418
1745671697.8112226,0.026827584952116013,-0.010305628180503845,-0.2525739073753357,0.2798055410385132,-0.5638639330863953,-9.833724975585938
1745671697.8457983,0.024841932579874992,-0.012815596535801888,-0.2543625235557556,0.4591449201107025,-0.8097362518310547,-9.818845748901367
1745671697.847619,0.016988027840852737,-0.01112998928874731,-0.25476184487342834,0.25725099444389343,-0.4735803008079529,-9.682515144348145
1745671697.8542676,0.020315179601311684,-0.012194794602692127,-0.2557944655418396,0.4291270673274994,-0.917049765586853,-9.75280475616455
1745671697.8588517,0.022679045796394348,-0.014296536333858967,-0.25563111901283264,0.37527117133140564,-0.5613977909088135,-9.651932716369629
1745671697.8895352,0.007639586925506592,-0.008738157339394093,-0.25215765833854675,0.465547651052475,-0.7291039228439331,-9.800213813781738
1745671697.8960915,0.022053726017475128,-0.011999360285699368,-0.25186988711357117,0.39227432012557983,-0.7695012092590332,-9.824284553527832
1745671697.8967195,0.0172930508852005,-0.009551127441227436,-0.2528790533542633,0.26123517751693726,-0.5004915595054626,-9.773702621459961
1745671697.8985507,0.01624862663447857,-0.011405875906348228,-0.25341343879699707,0.467913955450058,-0.8118910789489746,-9.728410720825195
1745671697.9011512,0.019970465451478958,-0.013720874674618244,-0.25296932458877563,0.2444462776184082,-0.46837538480758667,-9.714221954345703
1745671697.9297268,0.019855143502354622,-0.01266865897923708,-0.25370702147483826,0.5212787985801697,-0.7467159032821655,-9.731740951538086
1745671697.9402163,0.011813806369900703,-0.01205454207956791,-0.25239866971969604,0.32636189460754395,-0.5648528337478638,-9.759117126464844
1745671697.9403572,0.01964382827281952,-0.009335656650364399,-0.25063249468803406,0.43022650480270386,-0.7570887804031372,-9.810587882995605
1745671697.9725344,0.01876368559896946,-0.0181717611849308,-0.25211101770401,0.4766647219657898,-0.564355731010437,-9.569761276245117
1745671697.978326,0.009981431998312473,-0.01317400299012661,-0.25407201051712036,0.29100704193115234,-0.7376771569252014,-9.892565727233887
1745671697.9823792,0.02953571081161499,-0.0067685930989682674,-0.2507912218570709,0.4499479830265045,-0.6622942686080933,-9.67771053314209
1745671697.9860659,0.0034287874586880207,-0.015762198716402054,-0.25264158844947815,0.3986471891403198,-0.7176290154457092,-9.639298439025879
1745671697.9913704,0.023193610832095146,-0.012796372175216675,-0.2476048469543457,0.41752129793167114,-0.7119444608688354,-9.877591133117676
1745671698.017612,0.0069589740596711636,-0.019894380122423172,-0.24935784935951233,0.3974422216415405,-0.6980616450309753,-10.009317398071289
1745671698.0199354,0.02097822166979313,-0.008877788670361042,-0.24988551437854767,0.28641921281814575,-0.5909715890884399,-9.71180534362793
1745671698.0233784,0.0016254993388429284,-0.015729865059256554,-0.2510377764701843,0.47048354148864746,-0.7489879727363586,-9.466214179992676
1745671698.0336168,0.019663948565721512,-0.019697848707437515,-0.2516850233078003,0.34242376685142517,-0.5880385637283325,-9.700826644897461
1745671698.0599759,0.002477934118360281,-0.01002802886068821,-0.2528547942638397,0.4940396249294281,-0.6377586126327515,-9.993877410888672
1745671698.0620654,-0.0007703118026256561,-0.013524428009986877,-0.2522900700569153,0.3284817934036255,-0.8350213766098022,-9.90572738647461
1745671698.0652657,0.02188277244567871,-0.017771175131201744,-0.2511465549468994,0.4260347783565521,-0.5444189310073853,-9.526028633117676
1745671698.0672867,-0.012335355393588543,-0.024123910814523697,-0.2492961585521698,0.4313461184501648,-0.7875655889511108,-9.755170822143555
1745671698.069956,0.0232260562479496,-0.010904571041464806,-0.251028835773468,0.3219072222709656,-0.5066395998001099,-9.939166069030762
1745671698.1051164,0.0007729444769211113,-0.016339413821697235,-0.2500345706939697,0.478494793176651,-0.6812974214553833,-9.659143447875977
1745671698.1051512,0.011987990699708462,-0.013997545465826988,-0.2509036064147949,0.27086955308914185,-0.5448338985443115,-9.550148010253906
1745671698.1072485,0.013985115103423595,-0.02058723010122776,-0.25110819935798645,0.4624355435371399,-0.7039846181869507,-9.86716365814209
1745671698.109847,0.009659049101173878,-0.01813543401658535,-0.2521924078464508,0.28523069620132446,-0.6200615167617798,-10.062566757202148
1745671698.1474292,0.010757505893707275,-0.011292668990790844,-0.2528364062309265,0.3869141936302185,-0.6242859959602356,-9.66677188873291
1745671698.151833,0.012520626187324524,-0.019722983241081238,-0.25144821405410767,0.42651432752609253,-0.7776290774345398,-9.411417961120605
1745671698.1558106,0.0036622225306928158,-0.016663987189531326,-0.25455567240715027,0.4674157202243805,-0.9543741941452026,-9.710134506225586
1745671698.1632402,0.006164039950817823,-0.01550699770450592,-0.2517204284667969,0.327413946390152,-0.4285661280155182,-9.423678398132324
1745671698.1985438,-0.01379083376377821,-0.014934795908629894,-0.2553536295890808,0.5102372169494629,-0.8131551742553711,-9.799760818481445
1745671698.1986294,0.007720125373452902,-0.01689334213733673,-0.25376319885253906,0.29475489258766174,-0.5582972764968872,-10.010293960571289
1745671698.1986885,-0.002196782035753131,-0.010972725227475166,-0.2549937963485718,0.36233407258987427,-0.556796669960022,-9.786845207214355
1745671698.1987362,0.002796588931232691,-0.019917968660593033,-0.255668580532074,0.44406557083129883,-0.752856433391571,-9.605387687683105
1745671698.2320302,0.007442097179591656,-0.018896058201789856,-0.2542077600955963,0.2841007113456726,-0.5122860670089722,-9.69289493560791
1745671698.2349417,-0.0016640957910567522,-0.01549103856086731,-0.2529590129852295,0.505858302116394,-0.8358842730522156,-9.880403518676758
