timestamp,angular_vel_x,angular_vel_y,angular_vel_z,linear_acc_x,linear_acc_y,linear_acc_z
1745652039.8126845,0.0028382933232933283,-0.001618283218704164,-1.0835588909685612e-05,-0.26483774185180664,0.3898788392543793,-9.783658027648926
1745652039.8143682,0.004877513740211725,0.003761243773624301,0.0011286260560154915,-0.3039422035217285,0.39037370681762695,-9.775660514831543
1745652039.817924,0.0007787079084664583,-0.002608677139505744,0.0011039060773327947,-0.19502992928028107,0.3495423495769501,-9.749532699584961
1745652039.8219764,0.0038511294405907393,0.0024110956583172083,0.0006862456793896854,-0.32948118448257446,0.4077165126800537,-9.804746627807617
1745652039.853904,0.0034454725682735443,-0.0015763066476210952,0.00080871646059677,-0.1728874146938324,0.32784968614578247,-9.748151779174805
1745652039.8569226,0.00469703134149313,0.0041411942802369595,0.0005473766941577196,-0.2539096772670746,0.377046674489975,-9.777435302734375
1745652039.8607414,0.0010244499426335096,-0.002259651431813836,0.000578156323172152,-0.21602387726306915,0.37312090396881104,-9.75046157836914
1745652039.8622274,0.004027524031698704,-9.222128574037924e-05,0.00048320236965082586,-0.3062553107738495,0.39246588945388794,-9.778986930847168
1745652039.8972979,0.0011985072633251548,-0.0009556577424518764,0.0016776584088802338,-0.175432488322258,0.3391408324241638,-9.752514839172363
1745652039.8994882,0.0028429701924324036,-0.0003357866662554443,-0.0007390733226202428,-0.34199947118759155,0.40698879957199097,-9.773988723754883
1745652039.902408,0.003165915608406067,0.00044845667434856296,-0.000650897971354425,-0.18160049617290497,0.3332614600658417,-9.742865562438965
1745652039.9048443,0.0009884629398584366,-0.002234186977148056,0.0005594721878878772,-0.318737268447876,0.4287838935852051,-9.79669189453125
1745652039.9407604,0.003832112532109022,0.0034578912891447544,-0.0005506871384568512,-0.22382943332195282,0.36129531264305115,-9.779303550720215
1745652039.9439237,-0.001179358921945095,-0.004058769904077053,0.0005797565681859851,-0.22996433079242706,0.37751635909080505,-9.742502212524414
1745652039.9462643,0.004106038250029087,0.003154868260025978,0.00014037542860023677,-0.3071717619895935,0.4097464084625244,-9.77568244934082
1745652039.948814,0.00024078809656202793,-0.0031807429622858763,-0.00018024133169092238,-0.19802148640155792,0.36178216338157654,-9.761884689331055
1745652039.9531288,0.0028878506273031235,-0.0014263771008700132,0.0010565405245870352,-0.3436563014984131,0.4143623411655426,-9.791070938110352
1745652039.9864016,0.0029000816866755486,-0.007579003926366568,-0.0009143481147475541,-0.2899511158466339,0.47792863845825195,-9.735443115234375
1745652039.9908798,0.005402611568570137,-0.0001299358409596607,0.0005561664002016187,-0.2693345546722412,0.34525591135025024,-9.783734321594238
1745652039.9948688,-0.001134333317168057,-0.005135780666023493,0.0024368776939809322,-0.23221974074840546,0.4185503423213959,-9.761940002441406
1745652039.998504,0.0078329648822546,-0.00043366235331632197,0.0012487707426771522,-0.3268949091434479,0.3987158536911011,-9.796344757080078
1745652040.0277991,-0.002115619834512472,-0.0041370512917637825,0.0011460965033620596,-0.17095918953418732,0.35821041464805603,-9.750260353088379
1745652040.0318644,0.00697765639051795,-0.002183258067816496,0.0011826066765934229,-0.3435012102127075,0.45695656538009644,-9.811019897460938
1745652040.0362084,0.00144672067835927,-0.0014057541266083717,0.0019053153228014708,-0.19259312748908997,0.3346847891807556,-9.77772331237793
1745652040.0411696,0.0031529038678854704,-0.006282242480665445,0.0032151849009096622,-0.3010617196559906,0.45908159017562866,-9.758035659790039
1745652040.0698903,0.0025257079396396875,0.00027904202579520643,0.0007773153483867645,-0.23675279319286346,0.31974753737449646,-9.79841423034668
1745652040.0739903,4.912102667731233e-05,-0.005038136150687933,0.0010581931564956903,-0.25040435791015625,0.4589303135871887,-9.784982681274414
1745652040.0772781,0.007254079915583134,-0.0014778680633753538,0.0025482685305178165,-0.31360000371932983,0.3614726960659027,-9.795533180236816
1745652040.0825624,0.000734375324100256,-0.0035344636999070644,0.0018454001983627677,-0.18945245444774628,0.3803824782371521,-9.753843307495117
1745652040.1122224,0.007078300230205059,-0.002215257380157709,0.001559151802212,-0.3491116464138031,0.4438799023628235,-9.801148414611816
1745652040.1148953,-0.0007865768857300282,-0.0030469615012407303,0.0011123596923425794,-0.18135546147823334,0.33883053064346313,-9.780272483825684
1745652040.116252,0.00530856242403388,-0.004769894294440746,0.0029606367461383343,-0.3266547620296478,0.46595582365989685,-9.767001152038574
1745652040.117881,0.0024666369426995516,3.394670784473419e-07,0.0013391664251685143,-0.23458890616893768,0.31716039776802063,-9.777603149414062
1745652040.1198287,0.0008072039345279336,-0.005315885879099369,0.0035285025369375944,-0.27662456035614014,0.4501383900642395,-9.791958808898926
1745652040.1535456,0.005959090311080217,0.0019162397366017103,0.0017314670840278268,-0.2891581356525421,0.35237783193588257,-9.835984230041504
1745652040.1561787,0.00032657981500960886,-0.0036658477038145065,0.002716831164434552,-0.19959209859371185,0.3847910463809967,-9.739418983459473
1745652040.1576588,0.006320187356323004,-0.0012656620237976313,0.0013568479334935546,-0.34305986762046814,0.4044889509677887,-9.775497436523438
1745652040.1611488,0.0007610262255184352,-0.0011436410713940859,0.0030992194078862667,-0.18479588627815247,0.3457595705986023,-9.80067253112793
1745652040.1992226,0.004489562474191189,-0.002618651371449232,0.0025387569330632687,-0.3465800881385803,0.4378199577331543,-9.812105178833008
1745652040.202834,0.0017169956117868423,0.0005784562090411782,0.0024394099600613117,-0.2171609103679657,0.32324931025505066,-9.772772789001465
1745652040.2055132,0.004271018318831921,0.0005798159982077777,0.0029969331808388233,-0.33091968297958374,0.40405258536338806,-9.804828643798828
1745652040.209814,0.0008139729616232216,-0.0015249873977154493,0.003347796853631735,-0.19998469948768616,0.35923275351524353,-9.759034156799316
1745652040.2132149,0.0038652189541608095,-0.004073501564562321,0.0012266525300219655,-0.35853227972984314,0.43913835287094116,-9.8091402053833
1745652040.243311,0.003637326881289482,0.0023456921335309744,0.0010115779004991055,-0.2186526507139206,0.34013330936431885,-9.791712760925293
1745652040.2478473,0.0019176790956407785,-0.002551431767642498,0.003702980000525713,-0.2999365031719208,0.39479050040245056,-9.787932395935059
1745652040.2510145,0.0050895800814032555,0.0007255205418914557,0.0028467129450291395,-0.28841906785964966,0.3800279498100281,-9.759038925170898
1745652040.2524428,-0.00010597093205433339,-0.004216246772557497,0.002217886969447136,-0.24047720432281494,0.36998623609542847,-9.751863479614258
1745652040.284751,0.0039701685309410095,0.0019527182448655367,0.0016212636837735772,-0.3370663821697235,0.3985712230205536,-9.83069896697998
1745652040.288057,0.0033713518641889095,-0.00132079073227942,0.002259274711832404,-0.18264038860797882,0.34787967801094055,-9.763415336608887
1745652040.2934337,0.000815893174149096,0.00037696646177209914,0.0011161052389070392,-0.33923888206481934,0.4235038161277771,-9.77039623260498
1745652040.2945228,0.0030495203100144863,-0.0005512555362656713,0.0016772564267739654,-0.21300427615642548,0.3237130641937256,-9.777048110961914
1745652040.2990277,0.001034678891301155,-0.0018586015794426203,0.0015248589916154742,-0.31000015139579773,0.4133414328098297,-9.782474517822266
1745652040.3287156,0.005661201197654009,0.0017150333151221275,0.00048201470053754747,-0.2565450966358185,0.36575356125831604,-9.782427787780762
1745652040.3330288,0.0019475396256893873,0.003603891236707568,-0.0008548615733161569,-0.29564085602760315,0.3835980296134949,-9.800216674804688
1745652040.3375616,0.0014122340362519026,-0.0020829718559980392,-0.00020102369308006018,-0.1921655237674713,0.3745362460613251,-9.777528762817383
1745652040.3698103,0.003622648771852255,-0.0008865642594173551,0.0005684086354449391,-0.33403927087783813,0.4146813452243805,-9.772260665893555
1745652040.3807976,0.0005037354421801865,0.0015565634239464998,-0.0011352821020409465,-0.1725006103515625,0.3417784571647644,-9.747884750366211
1745652040.3808517,0.002177251037210226,-0.002151215448975563,-0.001016056863591075,-0.31890469789505005,0.4606347978115082,-9.783599853515625
1745652040.3812714,0.0023287865333259106,0.0032720949966460466,-0.0004021017230115831,-0.2124413549900055,0.34181585907936096,-9.76374626159668
1745652040.3840148,0.0020728548988699913,-0.0036707501858472824,-0.0015450799837708473,-0.24874556064605713,0.43632563948631287,-9.761283874511719
1745652040.4159677,0.004006731789559126,0.0032492473255842924,-0.00029264105251058936,-0.2820371985435486,0.39148369431495667,-9.795231819152832
1745652040.4196723,-0.0005921099800616503,-0.0027841876726597548,0.0011065221624448895,-0.2104637175798416,0.3841131925582886,-9.768280029296875
1745652040.423974,0.004686673637479544,0.002163794357329607,-0.002765777288004756,-0.32295483350753784,0.4395200312137604,-9.786712646484375
1745652040.429747,-0.0004380304308142513,0.0001954414910869673,0.0006958842859603465,-0.17491522431373596,0.3434981405735016,-9.738268852233887
1745652040.4577332,0.003134141443297267,-0.0009555983124300838,-0.0009268841822631657,-0.3341078758239746,0.46246081590652466,-9.779754638671875
1745652040.4601686,-0.000835646758787334,0.0015962288016453385,-0.0006698815850540996,-0.19084976613521576,0.3215422034263611,-9.788602828979492
1745652040.4624338,0.0009338683448731899,-0.0040809535421431065,-0.0007844756473787129,-0.2935921549797058,0.4730413854122162,-9.775266647338867
1745652040.4727774,0.0034185578115284443,0.004144296981394291,-0.0009510373929515481,-0.2582823634147644,0.33022937178611755,-9.774871826171875
1745652040.4733386,0.00011141495633637533,-0.003203822299838066,3.250014196964912e-05,-0.22444963455200195,0.44259268045425415,-9.768228530883789
1745652040.5002174,0.004633511416614056,0.0027892726939171553,0.0003451189841143787,-0.3253892958164215,0.4068306088447571,-9.821760177612305
1745652040.5039537,-0.0006146078812889755,-0.00101848307531327,0.0006519799353554845,-0.17401355504989624,0.37613457441329956,-9.729899406433105
1745652040.507658,0.0051954141817986965,-0.00046245165867730975,5.973700899630785e-05,-0.35291343927383423,0.46717914938926697,-9.768980026245117
1745652040.511881,0.00028196218772791326,0.002380957128480077,-0.001349819009192288,-0.1831691861152649,0.3369694650173187,-9.794357299804688
1745652040.5447474,0.0027437584940344095,-0.003204191103577614,-0.0006472537061199546,-0.3157007396221161,0.47437864542007446,-9.770669937133789
1745652040.545699,0.003729607444256544,0.003104562871158123,0.0024974229745566845,-0.2506426274776459,0.3325461745262146,-9.782001495361328
1745652040.5482495,0.001999667612835765,-0.0028816652484238148,0.0015180101618170738,-0.32113203406333923,0.4775003492832184,-9.76800537109375
1745652040.5506809,0.0041233631782233715,0.003013967303559184,-0.0004001310153398663,-0.211150124669075,0.3088810443878174,-9.778563499450684
1745652040.5865624,-0.0007599090458825231,-0.0038460958749055862,0.002701222663745284,-0.2642822563648224,0.46960362792015076,-9.751516342163086
1745652040.5890388,0.005063009448349476,0.0017855337355285883,0.0005012552137486637,-0.2881030738353729,0.3685869574546814,-9.80284309387207
1745652040.5936623,-0.0004778298025485128,-0.002269577933475375,0.0029128887690603733,-0.21085500717163086,0.3995838165283203,-9.767953872680664
1745652040.5975978,0.007406217511743307,0.0005483864806592464,0.000997979543171823,-0.3423710763454437,0.4303264617919922,-9.80463981628418
1745652040.6274133,-0.0016955120954662561,-0.0006970181129872799,0.0032111373730003834,-0.1742403209209442,0.35319021344184875,-9.758575439453125
1745652040.6383169,0.00591487530618906,-0.002200706396251917,0.0014776570023968816,-0.3331485688686371,0.4749029576778412,-9.785588264465332
1745652040.6383739,0.0028619144577533007,0.0014410122530534863,0.0012806758750230074,-0.20739337801933289,0.32517489790916443,-9.778609275817871
1745652040.6386726,0.0007400134345516562,-0.0035515869967639446,0.0032672733068466187,-0.2835443615913391,0.46239423751831055,-9.761209487915039
1745652040.6409633,0.006147774402052164,0.003315035719424486,0.0013519322965294123,-0.26875799894332886,0.3450104296207428,-9.797147750854492
1745652040.671187,-0.0006379308179020882,-0.0029152370989322662,0.0030366904102265835,-0.2343304604291916,0.42640814185142517,-9.756916046142578
1745652040.6744542,0.006894432939589024,0.0005489669274538755,0.001732074306346476,-0.329305499792099,0.3950521945953369,-9.809971809387207
1745652040.6768138,0.0006164202932268381,0.00024379478418268263,0.0037611026782542467,-0.1852848082780838,0.35886016488075256,-9.7606201171875
1745652040.680188,0.001260335324332118,-0.0006807960453443229,0.0016615471104159951,-0.35320600867271423,0.4185005724430084,-9.789665222167969
1745652040.7150955,0.003662004368379712,-0.0004938720376230776,-0.00013003739877603948,-0.19719983637332916,0.3621199131011963,-9.768457412719727
1745652040.7184618,-0.0002024601708399132,-0.004443061538040638,0.0011543435975909233,-0.3057093322277069,0.388193279504776,-9.790521621704102
1745652040.721108,0.005366805009543896,0.002002048771828413,0.0010907442774623632,-0.2555214464664459,0.367717444896698,-9.759212493896484
1745652040.722837,-0.0007562066311948001,-0.0032888848800212145,-0.0007815423305146396,-0.2502579092979431,0.36605948209762573,-9.766460418701172
1745652040.7242656,0.005347214639186859,-0.000661776983179152,0.0007186089060269296,-0.31263357400894165,0.396244615316391,-9.788925170898438
1745652040.7576299,0.0012688657734543085,-0.00218500685878098,0.001201211242005229,-0.18718811869621277,0.3515855669975281,-9.74316692352295
1745652040.7601395,0.0017005940899252892,-0.0004232113715261221,0.0006391559727489948,-0.34040188789367676,0.4077695310115814,-9.798830032348633
1745652040.7630765,0.0029075071215629578,-0.0018835958326235414,0.00048667710507288575,-0.18578532338142395,0.3499281406402588,-9.762139320373535
1745652040.7644181,-0.00018268769781570882,-0.002487321151420474,-1.837196759879589e-05,-0.3126154839992523,0.4027358889579773,-9.785001754760742
1745652040.8025613,0.002197468187659979,0.0020572964567691088,-0.0014347464311867952,-0.22735455632209778,0.3648805022239685,-9.74932861328125
1745652040.8034754,0.0013573567848652601,-0.005150613375008106,-0.0007391053950414062,-0.2531708776950836,0.38287919759750366,-9.766769409179688
1745652040.8059225,0.002922424813732505,0.0018642585491761565,-5.0117076170863584e-05,-0.29800382256507874,0.39399805665016174,-9.797656059265137
1745652040.8087244,0.0006278330693021417,-0.004058236256241798,-3.8460428186226636e-05,-0.20123448967933655,0.35701555013656616,-9.76395320892334
1745652040.8433635,0.0022369413636624813,-0.0008401765371672809,-0.0021783343981951475,-0.3427572250366211,0.39930883049964905,-9.745271682739258
1745652040.8457065,0.0018620718037709594,-0.001590652740560472,-0.0007697339751757681,-0.16645212471485138,0.34748053550720215,-9.757800102233887
1745652040.847274,-0.0008688969537615776,-0.0021251230500638485,-0.0005131954676471651,-0.33194178342819214,0.42178717255592346,-9.809873580932617
1745652040.8496685,0.0011885690037161112,-0.00022708978212904185,-0.00012313485785853118,-0.20480167865753174,0.34353113174438477,-9.743507385253906
1745652040.8516986,-0.001004758640192449,-0.004277893807739019,-0.0007701640715822577,-0.28048673272132874,0.42099127173423767,-9.756128311157227
1745652040.8862574,0.004072575829923153,-0.0002461104595568031,-0.0007044678786769509,-0.2872585952281952,0.4006803631782532,-9.823079109191895
1745652040.8900032,-0.0005996350082568824,-0.004656746052205563,0.000159003961016424,-0.21940293908119202,0.3700745403766632,-9.753927230834961
1745652040.8936253,-0.0007245374144986272,-0.004541285801678896,0.0006222400697879493,-0.2372046411037445,0.4118904173374176,-9.762374877929688
1745652040.9327471,0.0051390985026955605,0.00033212959533557296,-0.0019246494630351663,-0.33698520064353943,0.3919050097465515,-9.810577392578125
1745652040.9340472,-0.0013349562650546432,-0.002422281773760915,0.0003922872128896415,-0.17830082774162292,0.3742589056491852,-9.727336883544922
1745652040.9377034,0.003233735915273428,-0.0017618879210203886,-0.00041480333311483264,-0.33590155839920044,0.4314039647579193,-9.788345336914062
1745652040.9418383,0.0014281325275078416,0.00035162418498657644,-0.0005961061106063426,-0.17752431333065033,0.3367304503917694,-9.774650573730469
1745652040.9444568,0.0009145708754658699,-0.0034829911310225725,-0.0002720781194511801,-0.33442720770835876,0.46619462966918945,-9.766801834106445
1745652040.975264,0.0016967799747362733,0.0025654302444308996,0.0007632888737134635,-0.23200984299182892,0.33430951833724976,-9.762861251831055
1745652040.9788928,-0.00251779705286026,-0.004465125035494566,-0.0005633102846331894,-0.2727106213569641,0.4374188780784607,-9.756263732910156
1745652040.9843855,0.006131528411060572,0.003516813274472952,0.0003831805079244077,-0.3070886433124542,0.37137457728385925,-9.79002571105957
1745652040.986466,-0.002387047978118062,-0.003644172800704837,0.0002100470883306116,-0.21339137852191925,0.4000614285469055,-9.720705032348633
1745652041.0197597,0.0051736244931817055,-0.0003294082416687161,-0.0011309878900647163,-0.35032767057418823,0.429433673620224,-9.78296184539795
1745652041.0221448,-0.0030919082928448915,-0.00023739789321552962,0.00143818324431777,-0.20769944787025452,0.3429121673107147,-9.783934593200684
1745652041.0233479,0.001652770908549428,-0.0018961892928928137,0.0010854629799723625,-0.3561519980430603,0.4803257882595062,-9.778444290161133
1745652041.0253875,0.0026429230347275734,0.0015877299010753632,0.0011104315053671598,-0.20789387822151184,0.31631961464881897,-9.768882751464844
1745652041.061757,0.0020675095729529858,0.0029849132988601923,0.001950096688233316,-0.2383277416229248,0.32822784781455994,-9.764012336730957
1745652041.065153,0.001996136736124754,-1.2550456631288398e-05,0.0019487725803628564,-0.3243134915828705,0.46649283170700073,-9.78797435760498
1745652041.0691826,0.005830158479511738,0.006201343610882759,0.001698675798252225,-0.2946120500564575,0.3691926598548889,-9.78030014038086
1745652041.0722492,0.00013208528980612755,-0.0023472150787711143,0.001549136359244585,-0.22945614159107208,0.4183068871498108,-9.749547958374023
1745652041.1000202,0.006595449056476355,0.0027247292455285788,0.0027717824559658766,-0.3401392102241516,0.4251454770565033,-9.822891235351562
1745652041.1025958,0.00095482321921736,-0.000993016641587019,0.00044493976747617126,-0.19381007552146912,0.38012343645095825,-9.792340278625488
1745652041.1041887,0.006815785076469183,0.00024857581593096256,0.0013338330900296569,-0.3386300504207611,0.4499399662017822,-9.807792663574219
1745652041.1061578,0.002423407044261694,-0.00033143884502351284,0.00377850653603673,-0.18507684767246246,0.3323586881160736,-9.796310424804688
1745652041.1083555,0.0070668430998921394,-0.003552734386175871,-0.0007703052833676338,-0.3085004985332489,0.4723871648311615,-9.791173934936523
1745652041.145943,0.007107740733772516,0.0009570358088240027,0.001646566204726696,-0.20368070900440216,0.3191106915473938,-9.798877716064453
1745652041.1468904,0.0015402777353301644,-0.002606772817671299,0.0024914550594985485,-0.22313544154167175,0.4353880286216736,-9.785271644592285
1745652041.1501777,0.006838728673756123,0.0010440796613693237,0.00043825601460412145,-0.2894570231437683,0.3922504484653473,-9.813130378723145
1745652041.1525939,-0.0008488483726978302,-0.0025379012804478407,-9.400304406881332e-06,-0.16765189170837402,0.36235225200653076,-9.750541687011719
1745652041.1891768,0.005926238372921944,0.00047358800657093525,0.002599438652396202,-0.2951565682888031,0.42005816102027893,-9.828158378601074
1745652041.1930823,0.002031989162787795,-0.001436547376215458,0.0018787803128361702,-0.13366051018238068,0.3210342526435852,-9.797195434570312
1745652041.1981847,0.0029553512576967478,-0.003634695429354906,0.002852867590263486,-0.2679233253002167,0.4327174127101898,-9.804181098937988
1745652041.200704,0.0039806971326470375,0.00035512930480763316,0.004208567552268505,-0.18599526584148407,0.3423120677471161,-9.808960914611816
1745652041.2046595,0.0023670196533203125,-0.005980892106890678,0.002448004437610507,-0.23901858925819397,0.4273810386657715,-9.818387031555176
1745652041.2320051,0.006452669855207205,-0.00020021568343508989,0.00305679882876575,-0.24661973118782043,0.3635922968387604,-9.788955688476562
1745652041.2343175,0.0016294904053211212,-0.004434713162481785,0.003403063863515854,-0.1753699779510498,0.36417895555496216,-9.755434036254883
1745652041.235521,0.006736828479915857,-0.0016228093300014734,0.0025693594943732023,-0.3265497088432312,0.41271060705184937,-9.825628280639648
1745652041.2380528,0.002174638444557786,-0.004125403705984354,0.004627159796655178,-0.17957784235477448,0.33709612488746643,-9.781006813049316
1745652041.2746558,0.0031118455808609724,-0.003088616766035557,0.004833192098885775,-0.20730523765087128,0.3399278223514557,-9.772204399108887
1745652041.2770967,0.0012455785181373358,-0.003717827145010233,0.0023410296998918056,-0.3519681990146637,0.4145318865776062,-9.795846939086914
1745652041.2788732,0.00411258963868022,-0.0013372728135436773,0.0020826919935643673,-0.23221226036548615,0.3407272696495056,-9.781067848205566
1745652041.2809184,-4.765966514241882e-05,-0.0071935527957975864,0.0030973958782851696,-0.3241989016532898,0.3917408883571625,-9.784244537353516
1745652041.2848847,0.005216121207922697,-0.0008061753469519317,0.0029962058179080486,-0.2720832824707031,0.34721407294273376,-9.78759479522705
1745652041.317053,-0.0008419365622103214,-0.007018248550593853,0.003338497132062912,-0.2553873062133789,0.3680841624736786,-9.769055366516113
1745652041.3195543,0.003244566498324275,-0.0021413839422166348,0.002583269029855728,-0.309496134519577,0.38295167684555054,-9.772320747375488
1745652041.320819,-0.0018864050507545471,-0.007668838836252689,0.004161225166171789,-0.20504474639892578,0.3145017921924591,-9.747626304626465
1745652041.3218992,0.0018404728034511209,-0.005473092198371887,0.0013375008711591363,-0.33883756399154663,0.3924972414970398,-9.790510177612305
1745652041.3608913,-0.0011420678347349167,-0.0017248833319172263,0.0013393587432801723,-0.18035148084163666,0.33039602637290955,-9.765750885009766
1745652041.3638723,-0.0013646043371409178,-0.0068121301010251045,0.0030339141376316547,-0.3158089518547058,0.39529216289520264,-9.788984298706055
1745652041.3673716,0.0013970248401165009,-0.0010825460776686668,0.0017686334904283285,-0.21389570832252502,0.35508617758750916,-9.751100540161133
1745652041.3696957,-0.00418124021962285,-0.006935202516615391,0.0034729898907244205,-0.25206178426742554,0.3443535268306732,-9.764692306518555
1745652041.4042783,0.00027292969753034413,-0.00039347418351098895,0.002523933770135045,-0.26893487572669983,0.38791829347610474,-9.796475410461426
1745652041.4068577,0.006848474498838186,-0.002989442553371191,-0.007724714931100607,-0.1676689088344574,0.3463841378688812,-9.853021621704102
1745652041.4083052,-0.0013972894521430135,-0.007816883735358715,-0.006395098753273487,-0.12020181119441986,0.4412514567375183,-9.825677871704102
1745652041.4114504,0.00950716994702816,-0.0025822275783866644,-0.007471011485904455,-0.26167064905166626,0.46702995896339417,-9.802233695983887
1745652041.444709,-0.0014145612949505448,-0.005711128003895283,-0.007953069172799587,-0.10396671295166016,0.36610177159309387,-9.71360969543457
1745652041.448472,0.007900136522948742,-0.006779920309782028,-0.007043966092169285,-0.22379770874977112,0.4648677706718445,-9.772090911865234
1745652041.450291,-0.001057892106473446,-0.007418448571115732,-0.004994444083422422,-0.06291463971138,0.2920384407043457,-9.849504470825195
1745652041.4530559,0.001599809154868126,-0.010758979246020317,-0.003052014159038663,-0.20379650592803955,0.42844533920288086,-9.882055282592773
1745652041.4548492,-0.0009148403187282383,-0.005311975721269846,-0.0017134880181401968,-0.15874513983726501,0.2755867540836334,-9.822178840637207
1745652041.5821075,-0.003112815786153078,-0.015359586104750633,-0.0007220070692710578,-0.18569700419902802,0.4456004500389099,-9.763087272644043
1745652041.5827062,0.0014332340797409415,-0.004120689816772938,-0.0005460139364004135,-0.256770521402359,0.4215354025363922,-9.803716659545898
1745652041.593304,-0.0030693516600877047,-0.011402273550629616,0.0025727953761816025,-0.15046699345111847,0.44689759612083435,-9.715686798095703
1745652041.6796541,0.005822251085191965,-0.005848562344908714,0.003182141575962305,-0.32236430048942566,0.5684406161308289,-9.756791114807129
1745652041.695328,0.003516770200803876,-0.007447047624737024,0.0006718183867633343,-0.1678602695465088,0.4465538561344147,-9.760726928710938
1745652041.7102487,0.008405027911067009,-0.011389322578907013,0.0011977460235357285,-0.2928306460380554,0.5598456263542175,-9.805953025817871
1745652041.712333,0.008573608472943306,-0.0069620488211512566,0.0009364990401081741,-0.19382424652576447,0.37350839376449585,-9.902371406555176
1745652041.7147894,0.007686351891607046,-0.014485528692603111,0.0016340985894203186,-0.23164407908916473,0.49086499214172363,-9.83442497253418
1745652041.769624,0.01316467672586441,-0.010342730209231377,0.0035572063643485308,-0.2887241542339325,0.39480823278427124,-9.832504272460938
1745652041.7746117,0.0036715292371809483,-0.018834706395864487,0.004146934486925602,-0.24191109836101532,0.3915400505065918,-9.760326385498047
1745652041.7790985,0.010508314706385136,-0.013153878040611744,0.004900266416370869,-0.3882283568382263,0.38211390376091003,-9.778360366821289
1745652041.7816942,-0.0002291593700647354,-0.01379978097975254,0.005625723861157894,-0.22100897133350372,0.29016050696372986,-9.716315269470215
1745652041.810699,0.002334980294108391,-0.01368785835802555,0.0075796544551849365,-0.4118853509426117,0.39733293652534485,-9.753607749938965
1745652041.8542764,-0.007779983337968588,-0.009689648635685444,0.007609711028635502,-0.23224374651908875,0.3906477093696594,-9.75925350189209
1745652041.8579545,-0.003821171820163727,-0.012261790223419666,0.006065110210329294,-0.3353908061981201,0.5423492193222046,-9.756819725036621
1745652041.868857,-0.00190231972374022,-0.008474081754684448,0.0053495243191719055,-0.2503809332847595,0.400632381439209,-9.79365062713623
1745652041.869668,-0.000735384994186461,-0.013325062580406666,0.004195663146674633,-0.24505707621574402,0.48212164640426636,-9.777142524719238
1745652041.8711395,0.004180620424449444,-0.00594309763982892,0.0032386588864028454,-0.30269983410835266,0.4330223500728607,-9.80392837524414
1745652041.9283133,0.004495969507843256,-0.011984668672084808,0.0026072782929986715,-0.18953357636928558,0.3751560151576996,-9.766846656799316
1745652041.9540021,0.008182916790246964,-0.008963671512901783,0.002251218305900693,-0.32673779129981995,0.4193667471408844,-9.770195960998535
1745652041.9540975,0.007273918483406305,-0.009355799295008183,0.00141379632987082,-0.18145757913589478,0.3204406499862671,-9.787301063537598
1745652041.9554965,0.005155863240361214,-0.009006595239043236,0.0017261359607800841,-0.29945775866508484,0.3757769763469696,-9.805265426635742
1745652041.958047,0.008108855225145817,-0.0060815950855612755,0.002322268206626177,-0.21788673102855682,0.3048464059829712,-9.810540199279785
1745652041.9591374,0.000680639233905822,-0.013955557718873024,0.0024905260652303696,-0.24510899186134338,0.3192416727542877,-9.806866645812988
1745652041.99284,0.005967871285974979,-0.008205344900488853,0.001397177460603416,-0.2989007532596588,0.3658021092414856,-9.786494255065918
1745652041.9929395,-0.0006840449059382081,-0.013277605175971985,0.0012640818022191525,-0.1921062171459198,0.2727057933807373,-9.76180362701416
1745652041.9930153,0.0024389508180320263,-0.00960854534059763,0.0018977724248543382,-0.3367327153682709,0.3933422267436981,-9.790079116821289
1745652041.997281,-0.005274193827062845,-0.006386324763298035,-0.002503294963389635,-0.1730407476425171,0.424231618642807,-9.76484489440918
1745652041.997333,0.003131665987893939,0.00017027505964506418,-0.0008879328379407525,-0.3070708215236664,0.42709678411483765,-9.782361030578613
1745652041.998673,-0.004876412451267242,-0.00208302796818316,0.00023042093380354345,-0.15198522806167603,0.3971726894378662,-9.724740982055664
1745652042.0050287,0.002271153498440981,-0.00040071323746815324,0.0006022790330462158,-0.32223695516586304,0.49869924783706665,-9.80088996887207
1745652042.007762,-7.61693372623995e-05,0.0022986452095210552,0.0009217154001817107,-0.15699851512908936,0.3554042875766754,-9.80526351928711
1745652042.0092988,0.0009560398757457733,-0.0024721012450754642,0.00035162424319423735,-0.30412721633911133,0.5160154104232788,-9.780950546264648
1745652042.0204864,0.0035064793191850185,0.005456860177218914,0.0008252235129475594,-0.2741093039512634,0.3891170918941498,-9.75822925567627
1745652042.0341117,-0.0011813835008069873,-0.002328720409423113,0.0006868446944281459,-0.26978421211242676,0.48525866866111755,-9.732263565063477
1745652042.0367332,0.007847312837839127,0.004932192619889975,0.0022345338948071003,-0.3475968837738037,0.4357609748840332,-9.812843322753906
1745652042.039044,0.0010549131548032165,0.002003482775762677,0.002766572404652834,-0.24299712479114532,0.41012081503868103,-9.735825538635254
1745652042.0409927,0.007859045639634132,0.0017886270070448518,0.004171750508248806,-0.4201655387878418,0.46639275550842285,-9.751680374145508
1745652042.0512805,0.001837418181821704,0.0031344324816018343,0.004286645445972681,-0.2793422043323517,0.3364732265472412,-9.75745964050293
1745652042.0620053,0.005149693228304386,-0.0002505634038243443,0.003237952245399356,-0.42287272214889526,0.4480706751346588,-9.835760116577148
1745652042.0622964,0.0018188661197200418,0.005225612316280603,0.005703479517251253,-0.3217436671257019,0.3161284327507019,-9.7986478805542
1745652042.0639267,-0.0023363232612609863,-0.0034147766418755054,0.0070787640288472176,-0.35139980912208557,0.4450669288635254,-9.698614120483398
1745652042.0654151,0.0029900805093348026,0.0034386138431727886,0.006030588876456022,-0.4043462872505188,0.34073516726493835,-9.770589828491211
1745652042.086381,-0.0057295565493404865,-0.0016455741133540869,0.00853264145553112,-0.3124026656150818,0.3915154039859772,-9.752202987670898
1745652042.0864968,0.0033382705878466368,0.0021339624654501677,0.009195013903081417,-0.4345382750034332,0.42887043952941895,-9.790826797485352
1745652042.091566,-0.005250759422779083,0.001276805647648871,0.006343459244817495,-0.2651694715023041,0.3229799270629883,-9.717248916625977
1745652042.096879,-0.0018793285125866532,-0.0008919277461245656,0.009454541839659214,-0.41019773483276367,0.45610013604164124,-9.734102249145508
1745652042.0987022,-0.0033340477384626865,0.0031106246169656515,0.008056653663516045,-0.2842656970024109,0.3265908658504486,-9.760698318481445
1745652042.101707,0.009626961313188076,0.0072788274846971035,0.004655245691537857,-0.2402646839618683,0.40699848532676697,-9.830822944641113
1745652042.1056187,0.004224746488034725,-0.0010077564511448145,0.003202273277565837,-0.18401458859443665,0.3440806269645691,-9.789342880249023
1745652042.1069257,0.010881508700549603,0.004297022707760334,0.0037929811514914036,-0.29789143800735474,0.4106157422065735,-9.77773666381836
1745652042.110799,0.008506747893989086,0.003268016502261162,0.002499174792319536,-0.1709182858467102,0.30804747343063354,-9.741938591003418
1745652042.1133175,0.00778402853757143,0.0018498962745070457,0.004106117412447929,-0.31765222549438477,0.3887830078601837,-9.81175708770752
1745652042.116408,0.009670257568359375,0.006892946548759937,0.0039819651283323765,-0.19233453273773193,0.3152896761894226,-9.788190841674805
1745652042.1242316,0.0037964130751788616,-0.00034775020321831107,0.002617449965327978,-0.28476226329803467,0.35221028327941895,-9.768733978271484
1745652042.1243289,0.008550787344574928,0.006568625569343567,0.004818923771381378,-0.2806195318698883,0.34574341773986816,-9.761049270629883
1745652042.1255949,0.0033947951160371304,-0.0010075413156300783,0.0025223088450729847,-0.2507966160774231,0.29241007566452026,-9.781698226928711
1745652042.1288614,0.005162274930626154,0.006136239971965551,0.002680794568732381,-0.36498817801475525,0.3947339653968811,-9.77903938293457
1745652042.1329105,0.0034694895148277283,0.0003675207553897053,0.002204173943027854,-0.21427693963050842,0.33269304037094116,-9.743511199951172
1745652042.135284,0.002018542494624853,0.0018738806247711182,0.00021386511798482388,-0.3961401879787445,0.41763558983802795,-9.778881072998047
1745652042.1389053,0.0036748298443853855,0.004247076343744993,0.0009130214457400143,-0.27543339133262634,0.35211655497550964,-9.75552749633789
1745652042.1419482,-0.0019548481795936823,0.0011803330853581429,-0.0011313242139294744,-0.3960607647895813,0.40564942359924316,-9.758549690246582
1745652042.143733,0.005701049230992794,0.006583367474377155,0.0002478237438481301,-0.3268772065639496,0.3848028779029846,-9.744651794433594
1745652042.1452472,0.0024098255671560764,2.4209637558669783e-05,0.002093343995511532,-0.33918753266334534,0.469379186630249,-9.797080993652344
1745652042.1464765,-0.0007400148897431791,0.0017147226026281714,0.00212502246722579,-0.2152261734008789,0.3465138077735901,-9.779516220092773
1745652042.1478174,-0.0010964309331029654,-0.005283634178340435,0.0025146007537841797,-0.30555909872055054,0.486490398645401,-9.759294509887695
1745652042.1575089,0.0027036492247134447,0.0028522745706140995,0.0024088777136057615,-0.30455446243286133,0.38054731488227844,-9.784832954406738
1745652042.1575918,-0.0030884291045367718,-0.005969212390482426,0.0012200986966490746,-0.25847792625427246,0.47160688042640686,-9.773837089538574
1745652042.15764,0.005260743200778961,-0.0015012258663773537,0.002042073290795088,-0.3743005394935608,0.4422523081302643,-9.7726411819458
1745652042.1790926,4.455894304555841e-05,-0.0029779861215502024,0.0011880567763000727,-0.24086904525756836,0.41160163283348083,-9.739278793334961
1745652042.1819785,0.004149483051151037,-0.0025519318878650665,0.00044247988262213767,-0.4142390787601471,0.5100582242012024,-9.773150444030762
1745652042.184169,0.0013702776050195098,-0.00226835859939456,0.001378391869366169,-0.24641437828540802,0.3655966520309448,-9.773152351379395
1745652042.1946278,0.0025004891213029623,-0.004522781353443861,0.0016141230007633567,-0.359952837228775,0.5133059620857239,-9.780214309692383
1745652042.222379,0.004170028027147055,-0.0013770433142781258,0.0005802729865536094,-0.30191874504089355,0.34921613335609436,-9.767559051513672
1745652042.2258637,0.002338486025109887,-0.00806900579482317,0.002749326638877392,-0.2843906879425049,0.4479382038116455,-9.745903015136719
1745652042.228763,0.00573898758739233,-0.0016349587822332978,0.0005708197131752968,-0.35684067010879517,0.3927314281463623,-9.782941818237305
1745652042.2324188,0.0007156281499192119,-0.005864676088094711,0.0015983075136318803,-0.22786423563957214,0.3570842146873474,-9.747400283813477
1745652042.2339585,0.0039057962130755186,-0.002621810417622328,0.0009280388476327062,-0.36458420753479004,0.45791083574295044,-9.79004192352295
1745652042.264644,-0.00026772753335535526,-0.003984780050814152,0.0031876980792731047,-0.20388665795326233,0.33331626653671265,-9.773433685302734
1745652042.2689416,0.00011876206554006785,-0.007962584495544434,0.0033364773262292147,-0.31609657406806946,0.4283739924430847,-9.775318145751953
1745652042.2714605,0.003081114264205098,-0.004391045309603214,0.0033003487624228,-0.24641628563404083,0.38133352994918823,-9.791661262512207
1745652042.2752824,-0.0007297754054889083,-0.007975633256137371,0.002509378595277667,-0.2338707447052002,0.4085780084133148,-9.773676872253418
1745652042.3088157,0.003985469229519367,-0.005254169926047325,0.004718955140560865,-0.2841639816761017,0.4094234108924866,-9.800358772277832
1745652042.3142447,-0.0007136051426641643,-0.008179126307368279,0.002104467246681452,-0.15876048803329468,0.395128071308136,-9.776464462280273
1745652042.317478,0.0029945115093141794,-0.011237584985792637,0.0052284421399235725,-0.33384960889816284,0.4489338994026184,-9.798392295837402
1745652042.319774,0.019752811640501022,-0.0032472587190568447,0.0022982978262007236,-0.30420875549316406,0.4530150890350342,-9.814401626586914
1745652042.3499713,-0.0033330959267914295,-0.010699881240725517,0.0012367626186460257,-0.3811587989330292,0.35478752851486206,-9.763082504272461
1745652042.3529406,0.010793580673635006,-0.0009201845386996865,0.0015583537751808763,-0.3953889310359955,0.22690406441688538,-9.63197135925293
1745652042.3542376,-0.0076861875131726265,-0.006437037140130997,0.006047183647751808,-0.08650694042444229,0.23216600716114044,-9.616453170776367
1745652042.3575766,0.010811512358486652,-0.010959019884467125,-0.0023566619493067265,-0.5225600004196167,0.7502375841140747,-10.03901481628418
1745652042.3613572,0.009528602473437786,-0.007258122321218252,-0.0023478767834603786,-0.3018196225166321,0.4631425738334656,-10.069463729858398
1745652042.396369,0.02133915200829506,-0.005852416157722473,-0.003205702407285571,-0.3980335593223572,0.5428042411804199,-9.475406646728516
1745652042.398217,0.0022581734228879213,-0.005690463352948427,-0.0023292968980968,-0.3234708309173584,0.02542753890156746,-9.499029159545898
1745652042.4013376,-0.008367352187633514,-0.009592060931026936,-0.0046048411168158054,-0.43514442443847656,0.4392051100730896,-9.857290267944336
1745652042.4042895,0.011607790365815163,-0.002835043938830495,-0.0090606939047575,-0.3669724464416504,0.5186396837234497,-10.153083801269531
1745652042.4378295,0.008075254037976265,-0.009461221285164356,-0.003769482718780637,-0.2544080317020416,0.4144889712333679,-9.762906074523926
1745652042.442576,0.005823718383908272,-0.0029191437643021345,-0.0028535337187349796,-0.4822297990322113,0.11408098042011261,-9.556389808654785
1745652042.4462187,-0.011383297853171825,-0.0036090598441660404,-0.0030483254231512547,-0.35153454542160034,0.12661509215831757,-9.483048439025879
1745652042.4501655,-0.010003997012972832,-0.0036250618286430836,-0.0016717392718419433,-0.3488752543926239,0.4734610617160797,-9.918350219726562
1745652042.480256,0.004573593381792307,0.010900570079684258,0.00024422892602160573,-0.3107171654701233,0.3538360595703125,-9.63679027557373
1745652042.488095,0.005916937254369259,0.013967057690024376,-0.0015732519095763564,-0.31423813104629517,0.33370092511177063,-9.827275276184082
1745652042.4882631,0.0016157202189788222,0.01629703678190708,-2.5790277504711412e-05,-0.1937783658504486,0.28111642599105835,-9.809014320373535
1745652042.4883735,-0.024607019498944283,0.010561012662947178,-0.004275223705917597,-0.46154457330703735,0.5033991932868958,-9.700923919677734
1745652042.5236843,0.006847111973911524,0.025686806067824364,0.0012727377470582724,-0.23094865679740906,-0.03428857401013374,-9.599717140197754
1745652042.5272822,-0.04982384294271469,0.01895318552851677,0.008778026327490807,0.027181968092918396,0.262617826461792,-9.47581958770752
1745652042.5279038,-0.010784678161144257,0.012701915577054024,0.007059817668050528,-0.4321351647377014,0.20520146191120148,-10.392873764038086
1745652042.5297153,-0.045474983751773834,0.020655039697885513,0.008943733759224415,-0.2697928547859192,0.6370614767074585,-9.611844062805176
1745652042.536444,0.00753920990973711,0.020808856934309006,0.015481248497962952,-0.1719236820936203,0.5177618861198425,-9.615784645080566
1745652042.5678582,-0.017832791432738304,0.007958482019603252,0.014603378251194954,-0.25263360142707825,0.9011293649673462,-9.835564613342285
1745652042.5769184,0.02105712890625,0.015912380069494247,0.012105384841561317,-0.26866573095321655,-0.0006296932697296143,-10.21487808227539
1745652042.5795755,-0.02595236338675022,0.021713552996516228,0.0097182122990489,-0.5550340414047241,1.1516499519348145,-9.245831489562988
1745652042.5809376,0.036432333290576935,0.013609807007014751,0.009898606687784195,-0.12390272319316864,0.007575094699859619,-9.678857803344727
1745652042.6078906,-0.015592616982758045,0.011488904245197773,0.0035296492278575897,-0.3045647144317627,1.4389374256134033,-9.833880424499512
1745652042.6107454,0.04674290120601654,0.025871286168694496,0.00487139169126749,-0.5212447047233582,-0.46757692098617554,-10.158252716064453
1745652042.612881,-0.02397245541214943,0.04743565618991852,0.014962839893996716,-0.3561641573905945,0.7098267674446106,-8.733610153198242
1745652042.614454,-0.007461911533027887,-0.0047298758290708065,0.016208399087190628,0.14190071821212769,-0.6545863151550293,-9.505898475646973
1745652042.6172314,-0.00565328449010849,0.032416846603155136,0.014084515161812305,-0.45971331000328064,1.3766125440597534,-10.709243774414062
1745652042.6538353,-0.013491076417267323,0.02726578153669834,0.015037445351481438,-0.3882277011871338,0.07844923436641693,-10.297080993652344
1745652042.657706,0.045078206807374954,0.010730700567364693,0.012877846136689186,-0.262296587228775,1.482348918914795,-8.747082710266113
1745652042.6652105,-0.012722020968794823,0.014702063985168934,0.0033189491368830204,-0.18359361588954926,0.05030598118901253,-9.758813858032227
1745652042.6668894,-0.08207321912050247,0.04291745275259018,0.0747813880443573,0.14571601152420044,0.7632752656936646,-8.891258239746094
1745652042.6945367,-0.08098413795232773,0.021180061623454094,0.07835453003644943,0.2365141212940216,1.3123098611831665,-9.786088943481445
1745652042.6994648,-0.021424967795610428,0.016618672758340836,0.060743290930986404,0.18561720848083496,1.9346370697021484,-10.96845531463623
1745652042.7029183,0.005961945746093988,0.011572797782719135,0.04678719490766525,-0.08689244836568832,1.9634701013565063,-10.56138801574707
1745652042.7049477,0.05389443039894104,0.005100866314023733,0.0315229557454586,-0.18589851260185242,1.5263822078704834,-9.327044486999512
1745652042.708245,0.0458805188536644,-0.005471155047416687,0.016383985057473183,-0.32538357377052307,1.2359275817871094,-9.196660995483398
1745652042.7399206,0.0540580153465271,-0.0033200059551745653,0.005970157217234373,-0.28363633155822754,1.22640860080719,-10.073427200317383
1745652042.7471159,0.08258871734142303,-0.011218552477657795,-0.002816125052049756,-0.0717792958021164,0.9862563014030457,-10.290523529052734
1745652042.7471783,0.09781913459300995,-0.0010144831612706184,-0.007381518837064505,-0.4557994306087494,0.8157858848571777,-9.740232467651367
1745652042.7481222,0.07843764871358871,0.009203522466123104,-0.00450223870575428,-0.49783754348754883,-0.05484601855278015,-9.126428604125977
1745652042.7822437,0.08041210472583771,0.020561207085847855,0.0008128604968078434,-0.37745434045791626,0.10125573724508286,-8.8577241897583
1745652042.7857757,0.09184861928224564,0.04126407951116562,0.014190956950187683,-0.27054375410079956,-0.3930363953113556,-9.619575500488281
1745652042.7912765,0.029722359031438828,0.031784284859895706,0.027797475457191467,0.05360506847500801,-0.94172602891922,-10.095071792602539
1745652042.7933557,0.05926498770713806,0.05944667011499405,0.042663462460041046,-0.1472264975309372,-0.4957330822944641,-9.676408767700195
1745652042.8230932,-0.0470438152551651,0.04779478535056114,0.05177842453122139,0.14596745371818542,-1.1193149089813232,-9.332985877990723
1745652042.8265016,0.07702074199914932,0.06148092821240425,0.10183743387460709,-0.1173928827047348,0.6372919678688049,-8.679944038391113
1745652042.8285813,0.030435096472501755,0.04414419084787369,0.1061064824461937,-0.13422821462154388,0.024968434125185013,-9.034050941467285
1745652042.836841,0.042133450508117676,0.04715556651353836,0.11191978305578232,-0.130160853266716,-0.2375688999891281,-10.516877174377441
1745652042.8678775,-0.026715213432908058,0.07775026559829712,0.11608582735061646,-0.06362199038267136,-0.5902506113052368,-10.281900405883789
1745652042.8705113,-0.07038083672523499,0.0803280919790268,0.1267329752445221,-0.0861731767654419,-0.8430054783821106,-8.809097290039062
1745652042.8724248,-0.10829977691173553,0.08425967395305634,0.14184264838695526,0.12783686816692352,-1.0453203916549683,-8.58802604675293
1745652042.8734677,-0.22705689072608948,0.07816018164157867,0.1590176820755005,0.1696050614118576,-1.0537832975387573,-10.019918441772461
1745652042.8744164,-0.20277395844459534,0.09510096162557602,0.1626984179019928,0.7017116546630859,0.4856026768684387,-10.600484848022461
1745652042.911595,-0.2247052937746048,0.043433502316474915,0.15043702721595764,0.34439390897750854,1.6796417236328125,-10.474075317382812
1745652042.9119358,-0.1394682675600052,0.05500872805714607,0.14484186470508575,-0.3562464714050293,1.3755111694335938,-10.160038948059082
1745652042.9145484,-0.14649854600429535,0.0903179720044136,0.15173760056495667,-0.5497387051582336,0.5831301808357239,-9.238798141479492
1745652042.915932,-0.13717980682849884,0.07456499338150024,0.16480016708374023,-0.19034962356090546,0.009958909824490547,-8.42237663269043
1745652042.9528108,-0.13558456301689148,0.08718259632587433,0.1764952391386032,0.619945228099823,0.8834576606750488,-9.323893547058105
1745652042.9564075,-0.12421602010726929,0.05613185837864876,0.18243029713630676,0.38985204696655273,1.4393972158432007,-11.240510940551758
1745652042.9597852,-0.02200859785079956,0.07916878163814545,0.1769726723432541,-0.04969268664717674,1.6124416589736938,-10.476125717163086
1745652042.9639688,-0.05135544389486313,0.09935186058282852,0.17578811943531036,-0.25867074728012085,0.9169348478317261,-8.711788177490234
1745652042.9662166,-0.04425888508558273,0.07697220146656036,0.1805010735988617,0.15973079204559326,0.23374620079994202,-8.900429725646973
1745652042.996898,-0.06667915731668472,0.06542482227087021,0.1835864633321762,0.7481204271316528,1.0862599611282349,-10.673013687133789
1745652042.9992647,-0.034861017018556595,0.06646720319986343,0.1790408343076706,-0.2538568377494812,0.8243447542190552,-11.142641067504883
1745652043.004381,-0.03621968626976013,0.08447737246751785,0.18228456377983093,-0.32121381163597107,0.7718057632446289,-8.666893005371094
1745652043.039528,-0.0844050720334053,0.01705140434205532,0.14285731315612793,0.5131584405899048,0.4864024221897125,-10.134498596191406
1745652043.041833,-0.10775651037693024,0.03210274130105972,0.147245854139328,-0.5397225618362427,-0.3843701481819153,-8.989253044128418
1745652043.0465071,-0.25068554282188416,0.03229309618473053,0.12677910923957825,-0.5572665333747864,0.5616148710250854,-8.907392501831055
1745652043.0507276,-0.2084001749753952,0.0018224630039185286,0.0977894514799118,0.0738205835223198,1.447153091430664,-9.637547492980957
1745652043.0569994,-0.14229503273963928,-0.042864102870225906,0.07847832143306732,-0.6853669881820679,3.0203278064727783,-11.218266487121582
1745652043.0826735,-0.08938457071781158,0.011459778062999249,0.07976942509412766,-1.4275625944137573,1.1361156702041626,-11.065171241760254
1745652043.0857503,-0.024628642946481705,0.043008189648389816,0.0929986909031868,-0.7115370631217957,0.6246960759162903,-7.622916221618652
1745652043.0882368,-0.06850339472293854,0.050197452306747437,0.10685886442661285,0.2702641189098358,0.02288174070417881,-7.39572286605835
1745652043.0925047,-0.03237894922494888,0.01805083081126213,0.11168713867664337,1.8233520984649658,0.43766385316848755,-10.541122436523438
1745652043.1233897,0.0002887606678996235,0.052206575870513916,0.10607244074344635,0.8634871244430542,1.46992027759552,-12.064339637756348
1745652043.1257215,0.04135650768876076,0.04116319864988327,0.1069241613149643,0.03033747710287571,0.4263145327568054,-9.523691177368164
1745652043.128001,-0.009606145322322845,0.035209231078624725,0.10585538297891617,-0.6159937977790833,0.611754834651947,-7.951033592224121
1745652043.1301146,-0.07864676415920258,0.04393290728330612,0.09333567321300507,-0.6434041261672974,-0.6846845746040344,-10.281529426574707
1745652043.133386,-0.10832104831933975,0.04211493581533432,0.09248356521129608,-0.5802983045578003,-0.23286107182502747,-10.569465637207031
1745652043.1727571,-0.23530623316764832,0.07160286605358124,0.09999768435955048,-0.9249774813652039,-1.4210036993026733,-9.184253692626953
1745652043.1746318,-0.26663777232170105,0.03743119537830353,0.0896848738193512,0.6555655002593994,1.173580527305603,-7.670863151550293
1745652043.1798508,-0.06256246566772461,0.15647761523723602,0.049141887575387955,0.18199798464775085,1.2528865337371826,-8.074442863464355
1745652043.182908,-0.057124704122543335,0.06849858164787292,0.05727740377187729,0.3463338017463684,1.6021913290023804,-6.805960655212402
1745652043.2150092,-0.08827297389507294,0.07186304777860641,0.0653529018163681,0.2322876900434494,0.07576721906661987,-13.242401123046875
1745652043.2173305,-0.029079681262373924,0.12010624259710312,0.05159704014658928,1.2135515213012695,1.79837965965271,-12.607736587524414
1745652043.2202075,0.0072898478247225285,0.0708865076303482,0.020847681909799576,0.6611722707748413,2.967921257019043,-7.286774635314941
1745652043.2220619,0.03075307048857212,-0.004811577964574099,-0.009008195251226425,0.27605271339416504,2.6522297859191895,-7.671525001525879
1745652043.2238464,0.16600684821605682,0.03635546937584877,-0.018229877576231956,-0.394859254360199,2.285198211669922,-12.881195068359375
1745652043.255799,0.1510210633277893,0.09555873274803162,-4.0061772779154126e-06,-0.6645439267158508,-0.683273196220398,-11.939661026000977
1745652043.2583597,0.15127627551555634,0.07828439772129059,0.03029833734035492,0.050446540117263794,-0.9122902154922485,-5.808384418487549
1745652043.261931,0.004384428728371859,0.01292961835861206,0.0501803383231163,0.7905408143997192,-1.238396406173706,-7.758719444274902
1745652043.2660372,-0.0017240301240235567,0.030719686299562454,0.045820653438568115,0.9161868095397949,0.37657037377357483,-13.809844970703125
1745652043.2998013,-0.000676572322845459,0.09778406471014023,0.018922962248325348,0.19002409279346466,1.3074387311935425,-11.712803840637207
1745652043.3020368,-0.08414546400308609,0.06818356364965439,-0.0011959002586081624,0.27380135655403137,0.4111771583557129,-5.8972272872924805
1745652043.3034608,-0.08756400644779205,0.03294859081506729,-0.014214253053069115,0.4048728048801422,0.3433360457420349,-7.481732368469238
1745652043.3132536,-0.12087687104940414,0.0592496395111084,-0.0019119434291496873,-0.5174140930175781,-0.27739980816841125,-13.079368591308594
1745652043.3415198,-0.16909322142601013,0.11448635160923004,0.00827738456428051,-0.4196612238883972,0.38357454538345337,-10.96367073059082
1745652043.346941,-0.06743831187486649,0.07287938892841339,0.009936023503541946,0.280611515045166,1.8099110126495361,-6.24542236328125
1745652043.349716,-0.056784890592098236,0.029683005064725876,0.005609142128378153,-0.32452839612960815,2.489530086517334,-9.667497634887695
1745652043.3520272,0.03973844647407532,0.08951986581087112,-0.009600913152098656,0.06417461484670639,2.392974376678467,-13.285562515258789
1745652043.3531823,0.14125074446201324,0.11741510778665543,-0.01861092634499073,0.3211821913719177,1.6058757305145264,-9.309829711914062
1745652043.3838174,0.12754766643047333,0.094180166721344,-0.01482742466032505,0.1413024216890335,0.8962026834487915,-5.831120491027832
1745652043.385743,0.05422484129667282,0.056323327124118805,-0.01950760744512081,0.44199854135513306,-0.7484890818595886,-11.525822639465332
1745652043.3882263,0.05509470775723457,0.09820057451725006,-0.01634679175913334,0.10362835228443146,0.03282850235700607,-12.185850143432617
1745652043.390315,0.020253295078873634,0.11106531322002411,-0.021400246769189835,-0.0015243649249896407,-0.011074933223426342,-7.593602180480957
1745652043.4311807,-0.015690799802541733,0.08580364286899567,-0.02584567666053772,0.24658656120300293,-0.16226288676261902,-6.544931888580322
1745652043.4324782,-0.11019732803106308,0.05785621330142021,-0.02875843271613121,0.5278033018112183,0.2920677661895752,-11.459564208984375
1745652043.435735,-0.05437224358320236,0.11310577392578125,-0.03665449470281601,0.18403148651123047,0.8223505020141602,-13.037153244018555
1745652043.4388175,-0.06575050204992294,0.11546196043491364,-0.040947772562503815,0.04778611660003662,1.221497893333435,-8.153925895690918
1745652043.4748201,-0.04778463765978813,0.09583007544279099,-0.038724809885025024,0.17578206956386566,1.0921905040740967,-6.750758171081543
1745652043.4797587,-0.04434870555996895,0.08932799845933914,-0.0453154519200325,0.8502309918403625,1.6082088947296143,-10.564794540405273
1745652043.4861188,0.049776431173086166,0.11396672576665878,-0.04492327943444252,0.8752320408821106,1.178595781326294,-12.335116386413574
1745652043.4946008,0.05571676418185234,0.09849031269550323,-0.03854529932141304,0.7078455686569214,1.391339898109436,-9.104940414428711
1745652043.4969532,0.09395443648099899,0.08503387123346329,-0.036081038415431976,0.19416365027427673,0.9635650515556335,-8.23994255065918
1745652043.5147,0.12756463885307312,0.09585049003362656,-0.0401751846075058,-0.03305824473500252,1.6473801136016846,-10.148233413696289
1745652043.5181906,0.1185087189078331,0.12799006700515747,-0.045556310564279556,0.061419494450092316,1.0094633102416992,-10.817121505737305
1745652043.5194638,0.20263493061065674,0.1392681896686554,-0.05783935636281967,0.32840973138809204,0.952441394329071,-8.586568832397461
1745652043.5239239,0.09703685343265533,0.05397845059633255,-0.08306394517421722,0.4469664692878723,0.8180006742477417,-10.451351165771484
1745652043.556568,0.07924368232488632,0.04598880186676979,-0.08698878437280655,0.43996691703796387,1.160714030265808,-8.44262409210205
1745652043.5580509,0.10796685516834259,0.035239145159721375,-0.09338442236185074,0.6424435377120972,0.5989250540733337,-8.845719337463379
1745652043.5606878,0.10382793098688126,0.03698375076055527,-0.0953206792473793,0.7392413020133972,0.7403794527053833,-10.764947891235352
1745652043.5628662,0.12467636913061142,0.04453728720545769,-0.09081585705280304,0.5929768681526184,0.25455740094184875,-10.875706672668457
1745652043.565718,0.12494026124477386,0.04630483686923981,-0.08800467103719711,0.4570671617984772,0.2804798483848572,-8.963529586791992
1745652043.6029468,0.08854810893535614,0.020990395918488503,-0.08739800751209259,0.4207870364189148,0.3831712603569031,-8.861523628234863
1745652043.6031015,0.11224766820669174,0.038369376212358475,-0.09157273173332214,0.4511314332485199,0.8184212446212769,-10.295015335083008
1745652043.6065798,0.09824405610561371,0.037038739770650864,-0.10487284511327744,0.5841639637947083,0.9382908940315247,-10.371284484863281
1745652043.6066437,0.1273210495710373,0.037924107164144516,-0.11342233419418335,0.5859739184379578,0.8638755679130554,-9.246665000915527
1745652043.6435158,0.11504648625850677,0.02447931468486786,-0.11760667711496353,0.6363450884819031,0.7525166273117065,-9.230923652648926
1745652043.648089,0.1304643452167511,0.017580749467015266,-0.11449571698904037,0.5279544591903687,0.4231027662754059,-10.367416381835938
1745652043.6505108,0.1549220234155655,0.04388111084699631,-0.11229753494262695,0.5461114645004272,0.6641542315483093,-10.379341125488281
1745652043.6534324,0.1514853835105896,0.02813936211168766,-0.10911325365304947,0.55083829164505,0.6918517351150513,-9.255433082580566
1745652043.685116,0.1966852843761444,0.029280638322234154,-0.11010704934597015,0.47145670652389526,0.9183067083358765,-9.12630558013916
1745652043.688794,0.19692137837409973,0.021604901179671288,-0.11645098775625229,0.6658700704574585,1.1257848739624023,-10.112536430358887
1745652043.6922336,0.22575294971466064,0.024299323558807373,-0.12425742298364639,0.4449593126773834,0.6810227632522583,-10.40302848815918
1745652043.6993697,0.22110572457313538,0.027549725025892258,-0.12666375935077667,0.36475610733032227,0.5001224279403687,-9.646013259887695
1745652043.6994162,0.20987586677074432,0.016809171065688133,-0.13013401627540588,0.3755325376987457,0.34635549783706665,-9.29589557647705
1745652043.7277522,0.20255932211875916,0.02401576191186905,-0.13112840056419373,0.5517722964286804,0.1703168898820877,-9.914487838745117
1745652043.7309322,0.1864359825849533,0.014739150181412697,-0.12969715893268585,0.7588142156600952,0.3520530164241791,-10.199861526489258
1745652043.7346642,0.2055591642856598,0.018552038818597794,-0.13217268884181976,0.6498699188232422,0.3499900996685028,-9.831428527832031
1745652043.7378469,0.23431706428527832,0.0004937020130455494,-0.13902755081653595,0.3579249978065491,0.5253967046737671,-9.545870780944824
1745652043.775331,0.26248034834861755,0.010911297984421253,-0.1420353204011917,0.676243007183075,0.4892447590827942,-10.01419448852539
1745652043.7775028,0.250152587890625,-0.0018117415020242333,-0.1440366506576538,0.7840348482131958,0.4370006024837494,-10.091562271118164
1745652043.7799482,0.258970707654953,0.005041827447712421,-0.1455913782119751,0.5218945145606995,0.280045747756958,-9.850298881530762
1745652043.7821705,0.247767835855484,-0.0011480455286800861,-0.1450653076171875,0.6900860667228699,0.1879272609949112,-9.432857513427734
1745652043.8126485,0.2532298266887665,-0.007226626388728619,-0.1459825038909912,0.5034764409065247,0.323081910610199,-9.853205680847168
1745652043.815146,0.24342425167560577,0.00299817300401628,-0.1472620815038681,0.6452465057373047,0.24958737194538116,-10.060508728027344
1745652043.8178666,0.25737228989601135,-0.009103158488869667,-0.1483079195022583,0.3124876022338867,0.5062937140464783,-9.760115623474121
1745652043.819177,0.26333752274513245,0.0013868948444724083,-0.15283827483654022,0.4318160116672516,0.4182929992675781,-9.485121726989746
1745652043.8203511,0.2638172507286072,-0.011834533885121346,-0.15573492646217346,0.526642918586731,0.45944738388061523,-9.82724666595459
1745652043.863463,0.28266263008117676,-0.0076547651551663876,-0.15877817571163177,0.4793415665626526,0.2673170864582062,-10.25062084197998
1745652043.863568,0.27812710404396057,-0.009249609895050526,-0.1575482189655304,0.5839414000511169,0.15190386772155762,-9.78300952911377
1745652043.8636272,0.27463263273239136,-0.008884338662028313,-0.1558990776538849,0.39525797963142395,0.0013606890570372343,-9.491228103637695
1745652043.8648043,0.2737017273902893,-0.013370735570788383,-0.15086770057678223,0.776647686958313,-0.031072145327925682,-9.628562927246094
1745652043.9007778,0.24989470839500427,-0.02729150652885437,-0.1924189329147339,0.4867371916770935,-0.1681104451417923,-9.640661239624023
1745652043.9036062,0.24949674308300018,-0.02880505658686161,-0.19085793197155,0.4101318418979645,-0.38153085112571716,-9.81287956237793
1745652043.9042265,0.2481016367673874,-0.03139614313840866,-0.19208596646785736,0.6515226364135742,-0.33802324533462524,-9.848623275756836
1745652043.9063478,0.247449591755867,-0.02940264344215393,-0.19352738559246063,0.4601670205593109,-0.3385564088821411,-9.979321479797363
1745652043.9449172,0.2330736368894577,-0.030531316995620728,-0.19642190635204315,0.5651384592056274,-0.5203955769538879,-9.796732902526855
1745652043.9508333,0.2342287003993988,-0.035782672464847565,-0.19682857394218445,0.4637882113456726,-0.343302458524704,-9.56779956817627
1745652043.9518108,0.22070613503456116,-0.02822735905647278,-0.19761598110198975,0.5152024030685425,-0.5460781455039978,-9.830744743347168
1745652043.9543493,0.21734580397605896,-0.034493979066610336,-0.1969243586063385,0.37946972250938416,-0.3447416424751282,-9.920587539672852
1745652043.9553218,0.21317891776561737,-0.028082117438316345,-0.1997148096561432,0.4541378915309906,-0.5075849890708923,-9.669370651245117
1745652043.9855642,0.216487318277359,-0.030774075537919998,-0.2001599371433258,0.45527228713035583,-0.30966442823410034,-9.638288497924805
1745652043.9878197,0.2094716578722,-0.030230309814214706,-0.2031739205121994,0.3818286061286926,-0.3710804879665375,-9.843584060668945
1745652043.9889002,0.21389639377593994,-0.025499442592263222,-0.1999749392271042,0.5601370334625244,-0.5451263189315796,-9.756208419799805
1745652043.992694,0.20801898837089539,-0.028453361243009567,-0.20135191082954407,0.3170692026615143,-0.34496456384658813,-9.743478775024414
1745652044.0288453,0.21096685528755188,-0.022331619635224342,-0.20087862014770508,0.5215550661087036,-0.6655507683753967,-9.703303337097168
1745652044.0324266,0.20487698912620544,-0.027549803256988525,-0.20233602821826935,0.38793137669563293,-0.2654189169406891,-9.698911666870117
1745652044.0350401,0.19708119332790375,-0.01851382665336132,-0.20640318095684052,0.44232797622680664,-0.5946511030197144,-9.818368911743164
1745652044.037774,0.18967103958129883,-0.027922313660383224,-0.20886783301830292,0.45634761452674866,-0.40418148040771484,-9.655531883239746
1745652044.0712914,0.18272268772125244,-0.022137071937322617,-0.20895223319530487,0.3435606062412262,-0.6667827367782593,-9.804092407226562
1745652044.073445,0.17997044324874878,-0.019456591457128525,-0.2115168571472168,0.5420780181884766,-0.5583502054214478,-9.7788724899292
1745652044.0756094,0.17033743858337402,-0.023366468027234077,-0.20997826755046844,0.3277067244052887,-0.5813036561012268,-9.813735008239746
1745652044.078658,0.16851726174354553,-0.019604912027716637,-0.2090574949979782,0.5341366529464722,-0.6893392205238342,-9.697530746459961
1745652044.0828397,0.16330701112747192,-0.027108654379844666,-0.21098215878009796,0.3931407928466797,-0.41431254148483276,-9.70517635345459
1745652044.1157005,0.16284164786338806,-0.019637811928987503,-0.2075853794813156,0.45291584730148315,-0.763664722442627,-9.893194198608398
1745652044.1174572,0.13819831609725952,-0.020913925021886826,-0.21444924175739288,0.39451146125793457,-0.540863573551178,-9.741056442260742
1745652044.119577,0.13706788420677185,-0.0160665325820446,-0.21468248963356018,0.5266553163528442,-0.706429123878479,-9.720592498779297
1745652044.1229587,0.12747234106063843,-0.024064941331744194,-0.2176099270582199,0.43483471870422363,-0.49946126341819763,-9.725218772888184
1745652044.1575406,0.12873071432113647,-0.013118935748934746,-0.21645531058311462,0.5450037717819214,-0.767745852470398,-9.803912162780762
1745652044.1612642,0.12048296630382538,-0.018943170085549355,-0.21848945319652557,0.38454705476760864,-0.4841572642326355,-9.73619556427002
1745652044.1631265,0.12298573553562164,-0.00998934730887413,-0.2190506011247635,0.4133059084415436,-0.723478376865387,-9.635746955871582
1745652044.1648028,0.10999606549739838,-0.012798646464943886,-0.21750441193580627,0.4657078683376312,-0.5638020634651184,-9.584722518920898
1745652044.1667666,0.1171782836318016,-0.01103894505649805,-0.22048354148864746,0.3048774003982544,-0.6688224077224731,-9.897674560546875
1745652044.2050073,0.11610627174377441,-0.007159328553825617,-0.2196398228406906,0.5448094606399536,-0.6128941774368286,-9.754057884216309
1745652044.205062,0.11142407357692719,-0.01248213741928339,-0.22409984469413757,0.3308107256889343,-0.5384793281555176,-9.707319259643555
1745652044.208585,0.1069992184638977,-0.005331740714609623,-0.22108693420886993,0.5431641340255737,-0.7666321992874146,-9.704095840454102
1745652044.2138543,0.09186667948961258,-0.009999235160648823,-0.22455854713916779,0.46319764852523804,-0.6553459763526917,-9.705755233764648
1745652044.243488,0.09510092437267303,-0.0024707335978746414,-0.2221236228942871,0.4380805492401123,-0.875484824180603,-9.819141387939453
1745652044.2484174,-0.016846109181642532,0.00624544033780694,-0.23798882961273193,0.3895226716995239,-0.6122933626174927,-10.073188781738281
1745652044.2516527,-0.03523034602403641,0.011216478422284126,-0.23484298586845398,0.5106064081192017,-0.8102299571037292,-9.993907928466797
1745652044.2527974,-0.017924988642334938,0.008610447868704796,-0.23576900362968445,0.3641085624694824,-0.7003175616264343,-9.46868896484375
1745652044.2895436,-0.0447147861123085,0.008607864379882812,-0.23394282162189484,0.5267046093940735,-0.8291711807250977,-9.479371070861816
1745652044.2921643,-0.04480903595685959,0.003461801214143634,-0.2332635223865509,0.4444977343082428,-0.7547594308853149,-10.019246101379395
1745652044.2965717,-0.049895476549863815,0.012352906167507172,-0.23179034888744354,0.4890936017036438,-0.715410053730011,-9.9266996383667
1745652044.300468,-0.0691780224442482,0.009383280761539936,-0.2347073256969452,0.3965223729610443,-0.7097516655921936,-9.588457107543945
1745652044.329313,-0.05151737853884697,0.006543537136167288,-0.2325677126646042,0.43783077597618103,-0.7082943916320801,-9.557229042053223
1745652044.3334994,-0.07472847402095795,0.006906791590154171,-0.23360130190849304,0.535833477973938,-0.5374206304550171,-9.931766510009766
1745652044.334894,-0.06359660625457764,0.008661633357405663,-0.23423853516578674,0.2772526741027832,-0.6308006048202515,-10.04486083984375
1745652044.3376284,-0.06906132400035858,0.007374177686870098,-0.23080627620220184,0.6349459886550903,-0.6530672907829285,-9.458805084228516
1745652044.3425217,-0.06416863203048706,0.006736403796821833,-0.23061533272266388,0.3827926218509674,-0.4645760655403137,-9.657914161682129
1745652044.3752239,-0.062220506370067596,0.0038516749627888203,-0.22970132529735565,0.5037752985954285,-0.7147239446640015,-10.058094024658203
1745652044.3766885,-0.058138251304626465,0.005384121555835009,-0.22791151702404022,0.4936063885688782,-0.4662242829799652,-9.81333065032959
1745652044.3782804,-0.057711996138095856,0.011760956607758999,-0.229518324136734,0.3736749291419983,-0.6014044284820557,-9.600615501403809
1745652044.381049,-0.06759853661060333,-0.0026157426182180643,-0.22768227756023407,0.610295295715332,-0.6696814298629761,-9.640947341918945
1745652044.4161859,-0.06011179834604263,0.0017028998117893934,-0.22964176535606384,0.3759034276008606,-0.5179756283760071,-9.965473175048828
1745652044.4185057,-0.07691902667284012,0.010752273723483086,-0.22981873154640198,0.5404309034347534,-0.8029354214668274,-9.896111488342285
1745652044.4216251,-0.07030148804187775,-0.002250753343105316,-0.22871649265289307,0.31147661805152893,-0.5257426500320435,-9.578775405883789
1745652044.4297404,-0.07965125143527985,0.005573985632508993,-0.22792485356330872,0.5798100233078003,-0.765108585357666,-9.550031661987305
1745652044.4297795,-0.08322931826114655,0.005381362978368998,-0.22959086298942566,0.467768132686615,-0.4399811625480652,-9.939218521118164
1745652044.4604075,-0.0860472247004509,0.0009416276589035988,-0.22866809368133545,0.3958054184913635,-0.6944411396980286,-9.9274263381958
1745652044.465239,-0.07902838289737701,-0.005684538744390011,-0.2254449427127838,0.362000048160553,-0.4283261299133301,-9.775607109069824
1745652044.468919,-0.07369746267795563,0.0016542170196771622,-0.22435839474201202,0.5921253561973572,-0.6903253793716431,-9.827741622924805
1745652044.4750824,-0.0809754803776741,0.003301659133285284,-0.2214394062757492,0.5186494588851929,-0.39440250396728516,-9.842617988586426
1745652044.50326,-0.0814412385225296,-0.0026280905585736036,-0.22334697842597961,0.36095744371414185,-0.6204128861427307,-9.825289726257324
1745652044.5063097,-0.08167117834091187,-0.0021822999697178602,-0.22419114410877228,0.7099303603172302,-0.5240576267242432,-9.568459510803223
1745652044.5085945,-0.081281878054142,0.003956719301640987,-0.22358791530132294,0.28498104214668274,-0.3225939869880676,-9.894758224487305
1745652044.5116065,-0.0903012678027153,-0.0046071563847362995,-0.22393397986888885,0.5723983645439148,-0.6552429795265198,-9.894365310668945
1745652044.5470154,-0.07344331592321396,-0.005255856551229954,-0.2234702855348587,0.39327114820480347,-0.33630579710006714,-9.653562545776367
1745652044.5497153,-0.08294570446014404,0.0064944373443722725,-0.22283346951007843,0.4353121817111969,-0.5786169767379761,-9.781023025512695
1745652044.5563462,-0.07591374218463898,-0.009272055700421333,-0.22164371609687805,0.4674554467201233,-0.35980305075645447,-9.757437705993652
1745652044.559534,-0.07567250728607178,-0.0015097358264029026,-0.22342996299266815,0.45334315299987793,-0.5411109924316406,-9.784595489501953
1745652044.5887067,-0.08247256278991699,0.0006280135130509734,-0.2203473299741745,0.5513079762458801,-0.4322928786277771,-9.79903793334961
1745652044.5963776,-0.07253336161375046,-0.009130696766078472,-0.22224298119544983,0.32828348875045776,-0.49075382947921753,-9.792160987854004
1745652044.6001673,-0.04022891819477081,-0.016174232587218285,-0.2149008959531784,0.3345698416233063,-0.1374252736568451,-9.892802238464355
1745652044.6043782,-0.04820440709590912,-0.014078524895012379,-0.21670007705688477,0.44895100593566895,-0.5856223702430725,-9.85938549041748
1745652044.6325862,-0.03229136765003204,-0.016430532559752464,-0.21314005553722382,0.476518452167511,-0.2512281537055969,-9.596694946289062
1745652044.6359937,-0.05211498215794563,-0.014419788494706154,-0.21186025440692902,0.3847801685333252,-0.5072565674781799,-9.8617525100708
1745652044.6400492,-0.04257554933428764,-0.02321753278374672,-0.21308493614196777,0.5296908617019653,-0.37593787908554077,-9.835862159729004
1745652044.6447833,-0.04713256657123566,-0.010410889983177185,-0.21325168013572693,0.34287229180336,-0.2798871099948883,-9.768386840820312
1745652044.6491547,-0.057824261486530304,-0.018645519390702248,-0.2147456705570221,0.5424714088439941,-0.5035839676856995,-9.659120559692383
1745652044.6753027,-0.044940222054719925,-0.023481067270040512,-0.2136160433292389,0.40723609924316406,-0.19613751769065857,-9.739776611328125
1745652044.6785982,-0.061057787388563156,-0.01317373663187027,-0.21402105689048767,0.5375956892967224,-0.4608970582485199,-9.99602222442627
1745652044.679671,-0.040864184498786926,-0.019827960059046745,-0.21279437839984894,0.34562405943870544,-0.17282170057296753,-9.788254737854004
1745652044.6897779,-0.04540742561221123,-0.017621612176299095,-0.21278409659862518,0.41633114218711853,-0.3139278292655945,-9.561558723449707
1745652044.7179885,-0.040973976254463196,-0.019580122083425522,-0.21075670421123505,0.5455413460731506,-0.19812822341918945,-9.662925720214844
1745652044.720719,-0.035240910947322845,-0.015436743386089802,-0.2128281146287918,0.2535795271396637,-0.13217070698738098,-10.034555435180664
1745652044.7229586,-0.03495209664106369,-0.02280234731733799,-0.2148512899875641,0.6043925285339355,-0.3332103490829468,-9.780073165893555
1745652044.7261515,-0.020051326602697372,-0.013552132062613964,-0.21240751445293427,0.3567880690097809,-0.11456851661205292,-9.659819602966309
1745652044.731597,-0.027679914608597755,-0.02300315536558628,-0.21358659863471985,0.4659792482852936,-0.3915775418281555,-9.768378257751465
1745652044.7628207,-0.01565585657954216,-0.023035794496536255,-0.2148354947566986,0.42218613624572754,-0.1793590933084488,-9.830423355102539
1745652044.7652094,-0.030539143830537796,-0.011131231673061848,-0.21445903182029724,0.4228782057762146,-0.44726699590682983,-9.777666091918945
1745652044.7682147,-0.025659432634711266,-0.02644326165318489,-0.21377968788146973,0.4806279242038727,-0.3042597472667694,-9.634864807128906
1745652044.7724683,-0.02408236637711525,-0.017823947593569756,-0.21413390338420868,0.39748615026474,-0.34451037645339966,-9.814239501953125
1745652044.8062584,-0.030186031013727188,-0.020313914865255356,-0.2129550725221634,0.5302736163139343,-0.3284692168235779,-9.932611465454102
1745652044.8079376,-0.02293364703655243,-0.02137514017522335,-0.2133663147687912,0.2571347951889038,-0.2513839602470398,-9.784995079040527
1745652044.8104284,-0.0231217872351408,-0.012136799283325672,-0.21317851543426514,0.31704774498939514,-0.19507762789726257,-9.622682571411133
1745652044.811217,-0.019455362111330032,-0.02860046550631523,-0.21430662274360657,0.5261240601539612,-0.2599172294139862,-9.778109550476074
1745652044.8508985,-0.005830173380672932,-0.014284777455031872,-0.21526789665222168,0.3422831594944,-0.06434862315654755,-9.875862121582031
1745652044.854622,-0.021735120564699173,-0.01966788060963154,-0.2155616581439972,0.5138451457023621,-0.3676842451095581,-9.758893966674805
1745652044.8557255,-0.0014580294955521822,-0.022164925932884216,-0.21377556025981903,0.32843583822250366,-0.10710681974887848,-9.650419235229492
1745652044.8576868,-0.009319252334535122,-0.020786939188838005,-0.2156893014907837,0.48614755272865295,-0.33943700790405273,-9.800195693969727
1745652044.891337,0.002761443378403783,-0.01942659728229046,-0.21508431434631348,0.36382943391799927,-0.0791657567024231,-9.882607460021973
1745652044.8941166,-0.005856269970536232,-0.017453964799642563,-0.2156865894794464,0.3782753348350525,-0.35543474555015564,-9.73971939086914
1745652044.896007,0.0006237920606508851,-0.025052612647414207,-0.21351130306720734,0.5578543543815613,-0.2782045006752014,-9.571147918701172
1745652044.898397,-0.004679917357861996,-0.016295071691274643,-0.2141188681125641,0.27372223138809204,-0.29576894640922546,-9.93507194519043
1745652044.901793,-0.005354363936930895,-0.024077247828245163,-0.21349552273750305,0.5433993935585022,-0.42186617851257324,-9.813201904296875
1745652044.9344544,-0.0004203595162834972,-0.01921350322663784,-0.21380798518657684,0.2904348075389862,-0.1893809735774994,-9.69091510772705
1745652044.9354875,-0.016486668959259987,-0.01842280849814415,-0.21404719352722168,0.4656268060207367,-0.46977606415748596,-9.740049362182617
1745652044.9390461,0.03699495270848274,-0.0050202421844005585,-0.2161848247051239,0.32636940479278564,-0.19331641495227814,-9.772425651550293
1745652044.977327,0.015101363882422447,-0.006958755664527416,-0.21688151359558105,0.5122140645980835,-0.26347780227661133,-9.690037727355957
1745652044.9792485,0.03541075810790062,-0.003342068986967206,-0.21946778893470764,0.20078349113464355,-0.18112942576408386,-9.819710731506348
1745652044.9808643,0.02205820567905903,-0.007743475493043661,-0.2177460491657257,0.44857993721961975,-0.3193034529685974,-9.756243705749512
1745652044.9820843,0.04305882379412651,-0.0010205528233200312,-0.22127635776996613,0.3277866244316101,-0.07876606285572052,-9.771453857421875
1745652045.0184875,0.0336909219622612,-0.0005781242507509887,-0.22166605293750763,0.3704472482204437,-0.3039570152759552,-9.813567161560059
1745652045.0218768,0.04162653535604477,-0.008307757787406445,-0.22133775055408478,0.4394078254699707,-0.12561476230621338,-9.670708656311035
1745652045.023788,0.03828238695859909,0.002642099978402257,-0.22088965773582458,0.3251704275608063,-0.3206043839454651,-9.808484077453613
1745652045.0282645,0.03699921444058418,-0.005934490356594324,-0.2199621945619583,0.38730403780937195,-0.3563784658908844,-9.842676162719727
1745652045.030493,0.047199547290802,0.0007759717991575599,-0.22063413262367249,0.29704609513282776,-0.2793463170528412,-9.779328346252441
1745652045.0644224,0.031197112053632736,-0.004986374638974667,-0.2205093652009964,0.45385774970054626,-0.44876307249069214,-9.760339736938477
1745652045.0666258,0.0423089899122715,-0.0026379257906228304,-0.22185614705085754,0.2887853980064392,-0.18951787054538727,-9.795705795288086
1745652045.0701718,0.025668960064649582,-0.0031267001759260893,-0.22205868363380432,0.4483913481235504,-0.48057276010513306,-9.799898147583008
1745652045.0747507,0.032980777323246,-0.002211273880675435,-0.22231833636760712,0.3778989613056183,-0.2668367326259613,-9.742769241333008
1745652045.1049469,0.024664103984832764,0.002119245007634163,-0.2206902951002121,0.36142271757125854,-0.3982338309288025,-9.821371078491211
1745652045.1075604,0.0193953700363636,-0.009670211002230644,-0.2223084270954132,0.4660542905330658,-0.3471825122833252,-9.783562660217285
1745652045.1096077,0.036708008497953415,0.00547956395894289,-0.22328321635723114,0.2846301198005676,-0.28382015228271484,-9.828462600708008
1745652045.1139967,0.018151715397834778,-0.005132253281772137,-0.22172851860523224,0.48935961723327637,-0.23475821316242218,-9.678709030151367
1745652045.1147594,0.034723419696092606,-0.0023657288402318954,-0.22368133068084717,0.30489805340766907,-0.1800520420074463,-9.732702255249023
1745652045.150843,0.028239458799362183,0.0009464129689149559,-0.2234576940536499,0.38000351190567017,-0.23378029465675354,-9.865987777709961
1745652045.15237,0.03870195150375366,-0.0026289070956408978,-0.2229766845703125,0.3581836223602295,-0.18647508323192596,-9.833541870117188
1745652045.1534667,0.043576259166002274,0.004980738274753094,-0.22689056396484375,0.35609644651412964,-0.28364530205726624,-9.746917724609375
1745652045.1559575,0.043336525559425354,-0.006371643394231796,-0.2253677397966385,0.4537981450557709,-0.1944909244775772,-9.698114395141602
1745652045.1933737,0.02543717622756958,-0.003124977694824338,-0.22120317816734314,0.45771366357803345,-0.4974385201931,-9.85362434387207
1745652045.1948416,0.0401061549782753,-0.0038021604996174574,-0.2221759855747223,0.3036583662033081,-0.2980683743953705,-9.846723556518555
1745652045.1969552,0.027043605223298073,0.002415978815406561,-0.2243766486644745,0.360811710357666,-0.4402967393398285,-9.691248893737793
1745652045.198701,0.023604772984981537,-0.004601932596415281,-0.2249583750963211,0.38144451379776,-0.33239927887916565,-9.66717529296875
1745652045.2334173,0.028255652636289597,0.0030762769747525454,-0.22438541054725647,0.3660433292388916,-0.3777189254760742,-9.843244552612305
1745652045.2357728,0.014372694306075573,-0.0054831737652421,-0.2254217118024826,0.444497287273407,-0.3233353793621063,-9.896217346191406
1745652045.2375748,0.036711666733026505,0.0051293885335326195,-0.2257288247346878,0.287137508392334,-0.28299570083618164,-9.776040077209473
1745652045.2404134,0.01878504827618599,-0.0026670994702726603,-0.22494781017303467,0.4912561774253845,-0.2847750782966614,-9.572988510131836
1745652045.2410598,0.033093344420194626,-0.0009789761388674378,-0.2253248691558838,0.3736288547515869,-0.26536479592323303,-9.791725158691406
1745652045.2852547,0.02743859961628914,0.0032956376671791077,-0.2257155179977417,0.4238243103027344,-0.2690981328487396,-9.932860374450684
1745652045.2889569,0.03148747608065605,-0.004586816765367985,-0.22657510638237,0.3701286017894745,-0.25257179141044617,-9.746883392333984
1745652045.2911668,0.03834133595228195,0.006378156132996082,-0.22678068280220032,0.32482782006263733,-0.2805650532245636,-9.726557731628418
1745652045.2921576,0.0359797403216362,-0.008291397243738174,-0.225881427526474,0.4689255654811859,-0.2640823423862457,-9.736906051635742
1745652045.322638,0.02996644377708435,-0.006117414683103561,-0.22108027338981628,0.4944946765899658,-0.22675101459026337,-9.466899871826172
1745652045.3265777,0.049009352922439575,-0.004257681779563427,-0.22203870117664337,0.2903875708580017,-0.2736648917198181,-10.085381507873535
1745652045.327894,0.024022160097956657,-0.005781232379376888,-0.22178137302398682,0.48588067293167114,-0.5083860158920288,-9.9542818069458
1745652045.331862,0.033532291650772095,-0.002842367859557271,-0.2204013615846634,0.390079528093338,-0.5280669927597046,-9.514801979064941
1745652045.3726704,0.012438938021659851,-0.003427307354286313,-0.22089166939258575,0.4252626299858093,-0.5838948488235474,-9.638110160827637
1745652045.3728504,0.0012394972145557404,-0.017820777371525764,-0.2173745185136795,0.45330891013145447,-0.5663622617721558,-10.04721450805664
1745652045.3729298,0.012315035797655582,0.0030780788511037827,-0.21811480820178986,0.3361609876155853,-0.43973541259765625,-9.931496620178223
1745652045.3730078,-0.01917826384305954,-0.007984473370015621,-0.21749866008758545,0.3611433506011963,-0.4648039937019348,-9.554971694946289
1745652045.3754745,0.006544025149196386,-0.011381303891539574,-0.2192775309085846,0.31740081310272217,-0.375092089176178,-9.57655143737793
1745652045.4082947,-0.020857499912381172,-0.0022862832993268967,-0.21635451912879944,0.5010404586791992,-0.3726242184638977,-9.90394115447998
1745652045.4087303,0.006384813226759434,-0.007676045410335064,-0.21851487457752228,0.2638382017612457,-0.25270920991897583,-9.983832359313965
1745652045.409826,-0.005290575325489044,-0.004341799765825272,-0.2188452184200287,0.43896952271461487,-0.26696962118148804,-9.530927658081055
1745652045.416362,-0.0022791228257119656,-0.005067264661192894,-0.21740999817848206,0.3963722586631775,-0.2337794005870819,-9.605935096740723
1745652045.4521406,0.005339798051863909,-0.005082363728433847,-0.21745364367961884,0.39114871621131897,-0.22559933364391327,-10.009130477905273
1745652045.4538422,0.008215745911002159,-0.007861649617552757,-0.2179957926273346,0.5472538471221924,-0.26722341775894165,-9.924604415893555
1745652045.456041,0.023672565817832947,0.00012900587171316147,-0.21983309090137482,0.2948499321937561,-0.12717826664447784,-9.675583839416504
1745652045.4571302,0.00974840484559536,-0.01272851787507534,-0.22040167450904846,0.46344321966171265,-0.34410008788108826,-9.587416648864746
1745652045.4944668,0.025780990719795227,-0.0060670459643006325,-0.2187192440032959,0.29576024413108826,-0.23023322224617004,-9.832345008850098
1745652045.498263,0.006508271209895611,-0.0023547899909317493,-0.2199546992778778,0.39455729722976685,-0.5251862406730652,-9.959901809692383
1745652045.5018153,0.025174546986818314,-0.010629327967762947,-0.2193869799375534,0.3702341914176941,-0.3060795068740845,-9.727033615112305
1745652045.5067017,0.008241149596869946,-0.0033238674513995647,-0.2193099558353424,0.41322261095046997,-0.4713210165500641,-9.698941230773926
1745652045.5127892,0.005285249091684818,-0.013226062059402466,-0.22061631083488464,0.417304128408432,-0.4403558373451233,-9.878641128540039
1745652045.537858,-0.017404671758413315,-0.007024909369647503,-0.2212996929883957,0.4413584768772125,-0.3084866404533386,-9.724634170532227
1745652045.5394177,-0.006018299609422684,-0.008640261366963387,-0.22061634063720703,0.3915770649909973,-0.20308539271354675,-9.674306869506836
1745652045.541713,-0.0009260604274459183,-0.006621790584176779,-0.22134840488433838,0.34376463294029236,-0.25118738412857056,-9.815311431884766
1745652045.5428555,0.004486886318773031,-0.006004148628562689,-0.2216360867023468,0.45697665214538574,-0.23201222717761993,-9.83623218536377
1745652045.582544,0.018069766461849213,-0.003125735092908144,-0.219758540391922,0.2875367999076843,-0.12503714859485626,-9.751058578491211
1745652045.5852287,0.006646481342613697,-0.007079926319420338,-0.22089548408985138,0.49019351601600647,-0.336748331785202,-9.618696212768555
1745652045.586856,0.02138189971446991,-0.006799239665269852,-0.2213209867477417,0.2984772324562073,-0.22783443331718445,-9.815593719482422
1745652045.591319,0.01499746274203062,-0.0006251792656257749,-0.22023573517799377,0.4494865834712982,-0.5065454244613647,-9.899202346801758
1745652045.6229148,0.01917949691414833,-0.009693259373307228,-0.22204521298408508,0.3316134512424469,-0.2791171967983246,-9.773040771484375
1745652045.6254585,0.006980753503739834,-0.006651072297245264,-0.22046799957752228,0.4147281050682068,-0.5249441862106323,-9.703256607055664
1745652045.6274867,0.0036660865880548954,-0.0064933402463793755,-0.22110386192798615,0.4450024664402008,-0.4336860775947571,-9.81252384185791
1745652045.6288683,-0.00032757726148702204,-0.009432725608348846,-0.2209779918193817,0.2758806645870209,-0.3691186010837555,-9.902655601501465
1745652045.6309855,-0.011396387591958046,-0.007687991019338369,-0.21980485320091248,0.540431559085846,-0.6393036842346191,-9.710299491882324
1745652045.666964,-0.004164434503763914,-0.008499210700392723,-0.2181430608034134,0.2725832462310791,-0.22580714523792267,-9.716634750366211
1745652045.670892,-0.0051300241611897945,-0.01061768364161253,-0.2158523052930832,0.45822224020957947,-0.5413087010383606,-9.660038948059082
1745652045.6759574,-0.011296146549284458,-0.010542960837483406,-0.2169944792985916,0.34797775745391846,-0.20635583996772766,-9.677080154418945
1745652045.6789956,-0.010292117483913898,-0.004820546135306358,-0.2164483368396759,0.4020920395851135,-0.5756204128265381,-9.988710403442383
1745652045.708798,-0.01238818559795618,-0.014871361665427685,-0.21533477306365967,0.37806811928749084,-0.09375165402889252,-9.780160903930664
1745652045.711501,-0.005067316349595785,-0.0007989893783815205,-0.2157164067029953,0.3499023914337158,-0.4144654870033264,-9.76932430267334
1745652045.7136617,-0.0022136219777166843,-0.012675884179770947,-0.2155238687992096,0.39052948355674744,-0.14417633414268494,-9.632762908935547
1745652045.7153208,0.00210769334807992,-0.005624200217425823,-0.2165704071521759,0.34188616275787354,-0.21441611647605896,-9.83650016784668
1745652045.7504766,0.008696498349308968,-0.005024500656872988,-0.2154320478439331,0.45951128005981445,-0.19532302021980286,-9.849691390991211
1745652045.7531636,0.005504010245203972,-0.009380697272717953,-0.21606793999671936,0.2779146730899811,-0.2266661375761032,-9.74435806274414
1745652045.7543201,0.015501335263252258,-0.002199313137680292,-0.21654081344604492,0.42495197057724,-0.3781598210334778,-9.745260238647461
1745652045.757429,0.0100564481690526,-0.012036271393299103,-0.21560458838939667,0.3218704164028168,-0.24245791137218475,-9.836954116821289
1745652045.7601483,0.019623585045337677,-0.001501320512033999,-0.2146967202425003,0.34311190247535706,-0.45693930983543396,-9.862284660339355
1745652045.7956657,0.002959012519568205,-0.01031511276960373,-0.2171223908662796,0.40503543615341187,-0.23211555182933807,-9.644145011901855
1745652045.8068237,0.008718952536582947,-0.006225069053471088,-0.2141806185245514,0.30889254808425903,-0.4880901277065277,-9.759360313415527
1745652045.8069668,0.0027070012874901295,-0.007715586572885513,-0.21420952677726746,0.4482695460319519,-0.3595050573348999,-9.800780296325684
1745652045.8070424,-7.67959063523449e-05,-0.0065828962251544,-0.214814230799675,0.2433212250471115,-0.3478865623474121,-9.915420532226562
1745652045.8361325,0.003524377243593335,-0.0035355915315449238,-0.21314601600170135,0.38327381014823914,-0.43264856934547424,-9.686845779418945
1745652045.8380835,-0.004048625938594341,-0.01049176137894392,-0.21289357542991638,0.33119386434555054,-0.187476247549057,-9.642305374145508
1745652045.8406625,0.0047719418071210384,0.0008198061841540039,-0.21319475769996643,0.3811662197113037,-0.38906916975975037,-9.911442756652832
1745652045.8438652,-0.004043816588819027,-0.01142789889127016,-0.2131306678056717,0.42729729413986206,-0.1641218364238739,-9.848841667175293
1745652045.845852,0.011333035305142403,0.001508732559159398,-0.21412985026836395,0.3210689127445221,-0.36217933893203735,-9.781747817993164
1745652045.8820415,0.003972512204200029,-0.007371034473180771,-0.2141941487789154,0.4002543091773987,-0.16310928761959076,-9.612879753112793
1745652045.8845925,0.023344730958342552,-0.00022145026014186442,-0.21386675536632538,0.265188992023468,-0.34668073058128357,-9.904635429382324
1745652045.8888466,0.007799631450325251,-0.009040066972374916,-0.21153530478477478,0.4392925798892975,-0.35221177339553833,-9.673678398132324
1745652045.8911433,0.01738548092544079,0.00022418014123104513,-0.21184034645557404,0.30086079239845276,-0.42349204421043396,-9.75444221496582
1745652045.9236116,0.007647372782230377,-0.005023163743317127,-0.20988669991493225,0.41887253522872925,-0.3824095129966736,-9.8298921585083
1745652045.9273968,0.005190760362893343,-0.009829407557845116,-0.20841021835803986,0.2879045009613037,-0.3627525568008423,-9.880189895629883
1745652045.9307115,0.013427305035293102,0.002601181622594595,-0.2086600512266159,0.41779476404190063,-0.41042670607566833,-9.716832160949707
1745652045.9351737,-0.008526498451828957,-0.009319616481661797,-0.2075897753238678,0.30611559748649597,-0.24545645713806152,-9.670161247253418
1745652045.9655972,0.009007669985294342,-0.0043524643406271935,-0.2087794542312622,0.4070281982421875,-0.4170096516609192,-9.861486434936523
1745652045.9705396,-0.0053255027160048485,-0.007013305090367794,-0.20856356620788574,0.44499579071998596,-0.15589210391044617,-9.81771469116211
1745652045.9721434,0.014335094019770622,2.7118436264572665e-05,-0.2094566822052002,0.19105660915374756,-0.3704815208911896,-9.808966636657715
1745652045.976529,0.005989450961351395,-0.009198108687996864,-0.2076834887266159,0.5038151741027832,-0.15782146155834198,-9.479673385620117
1745652045.9812987,0.010494077578186989,-0.0005697548040188849,-0.2086121141910553,0.30300718545913696,-0.29313957691192627,-9.856355667114258
1745652046.010568,0.017385220155119896,-0.003085013013333082,-0.20775048434734344,0.3894983232021332,-0.1915067434310913,-9.959196090698242
1745652046.0116515,0.012780426070094109,-0.009048590436577797,-0.20770709216594696,0.3751508593559265,-0.30503183603286743,-9.765881538391113
1745652046.0141306,0.007437071297317743,-0.0028822903987020254,-0.19959571957588196,0.3994961380958557,-0.42239171266555786,-9.835379600524902
1745652046.0159628,0.013616785407066345,-0.0113945621997118,-0.20238324999809265,0.332014262676239,-0.054540179669857025,-9.797086715698242
1745652046.0546486,0.014732616022229195,-0.009288230910897255,-0.20150761306285858,0.34444114565849304,-0.4080731272697449,-9.769103050231934
1745652046.0583625,0.0252159982919693,-0.006266801618039608,-0.2013988047838211,0.4214724898338318,-0.1995665729045868,-9.691045761108398
1745652046.0619824,0.021372247487306595,-0.0096189109608531,-0.2006676197052002,0.2637714743614197,-0.3065420687198639,-9.83252239227295
1745652046.0658815,0.019041698426008224,-0.009375144727528095,-0.2006688117980957,0.4459686279296875,-0.42953959107398987,-9.750150680541992
1745652046.094987,0.013859403319656849,-0.00745429378002882,-0.20139138400554657,0.27182531356811523,-0.3287103474140167,-9.684815406799316
1745652046.0979185,0.011379582807421684,-0.0017673656111583114,-0.1975376456975937,0.4252709448337555,-0.5286555886268616,-9.765172004699707
1745652046.102051,0.003878581803292036,-0.017733663320541382,-0.1994696855545044,0.3525225520133972,-0.26357167959213257,-9.859114646911621
1745652046.1029696,0.009950235486030579,-0.005153738893568516,-0.19933228194713593,0.39383354783058167,-0.5254102945327759,-9.876513481140137
1745652046.1044073,-0.0004104681429453194,-0.01165188942104578,-0.1979130208492279,0.3298245966434479,-0.2462405413389206,-9.65423583984375
1745652046.1390536,0.0005432350444607437,-0.011200366541743279,-0.19816330075263977,0.26197314262390137,-0.4348464906215668,-9.702065467834473
1745652046.1405456,0.0026472259778529406,-0.01052516233175993,-0.19943097233772278,0.501384437084198,-0.30124127864837646,-9.684930801391602
1745652046.1434257,0.0018245503306388855,-0.008254168555140495,-0.19701489806175232,0.24852652847766876,-0.23049335181713104,-9.983190536499023
1745652046.1458926,0.011628196574747562,-0.005351230036467314,-0.19982893764972687,0.4095199704170227,-0.3396959602832794,-9.759859085083008
1745652046.1795633,-0.0027946271002292633,-0.014595064334571362,-0.1992236226797104,0.32776790857315063,-0.14850623905658722,-9.56495189666748
1745652046.182159,0.01696914993226528,-0.0009845405584201217,-0.19678442180156708,0.3694555461406708,-0.4383586049079895,-9.891698837280273
1745652046.185935,0.0060071879997849464,-0.013818686828017235,-0.19978956878185272,0.4014114439487457,-0.18868055939674377,-9.822793960571289
1745652046.1900864,0.02047254890203476,-0.003343118354678154,-0.1981648951768875,0.24997258186340332,-0.3994605541229248,-9.836456298828125
1745652046.1936023,0.006240996532142162,-0.009859363548457623,-0.1981300562620163,0.4508589804172516,-0.19908690452575684,-9.528088569641113
1745652046.2242632,0.01090327650308609,-0.008210649713873863,-0.19824951887130737,0.3060799539089203,-0.38786834478378296,-9.780147552490234
1745652046.2259965,0.008395994082093239,-0.005808185786008835,-0.19781772792339325,0.41507166624069214,-0.2613551616668701,-9.928863525390625
1745652046.2302353,0.010195350274443626,-0.0057111321948468685,-0.19367080926895142,0.2200891524553299,-0.3999975323677063,-9.649907112121582
1745652046.2328172,-0.005979526322335005,-0.008320469409227371,-0.19528833031654358,0.4623422622680664,-0.2708216607570648,-9.629365921020508
1745652046.2723033,0.0004073415766470134,-0.010710525326430798,-0.19570747017860413,0.3552899956703186,-0.3327482342720032,-9.984959602355957
1745652046.2757204,-0.0021436368115246296,-0.0035268752835690975,-0.19756369292736053,0.38888752460479736,-0.25828617811203003,-9.936128616333008
1745652046.2784956,0.0020604548044502735,-0.00868101418018341,-0.19628196954727173,0.31535881757736206,-0.32608383893966675,-9.604290008544922
1745652046.2811708,0.007669621147215366,-0.007608943618834019,-0.19596591591835022,0.3360675871372223,-0.23269549012184143,-9.54115104675293
1745652046.3089304,-0.004651528783142567,-0.005596197210252285,-0.1940869688987732,0.45486539602279663,-0.3082691431045532,-9.87476634979248
1745652046.3128202,0.017548872157931328,-0.004821649752557278,-0.1948806345462799,0.25317996740341187,-0.2243296355009079,-9.980568885803223
1745652046.3182883,0.0006198241608217359,-0.005666748620569706,-0.1956736296415329,0.42285093665122986,-0.29947420954704285,-9.652130126953125
1745652046.3202164,0.01953553780913353,-0.0028115171007812023,-0.19482135772705078,0.23417377471923828,-0.23586468398571014,-9.661768913269043
1745652046.3231192,0.009695678949356079,-0.006462971214205027,-0.19653448462486267,0.4332800507545471,-0.38321295380592346,-9.875155448913574
1745652046.3549356,0.01654788665473461,-0.006067464593797922,-0.1958383023738861,0.2894114553928375,-0.20180478692054749,-9.901803970336914
1745652046.357798,0.004423453006893396,-0.0028356078546494246,-0.19478178024291992,0.34742364287376404,-0.4687654376029968,-9.671487808227539
1745652046.3598514,0.0044962870888412,-0.007223074324429035,-0.19386625289916992,0.38875409960746765,-0.34530946612358093,-9.577295303344727
1745652046.362404,0.008682982996106148,-0.005738487001508474,-0.1939512938261032,0.2769148647785187,-0.1825728714466095,-9.820544242858887
1745652046.3986907,0.021005863323807716,-0.0004981982638128102,-0.1924075186252594,0.2806442379951477,-0.4060083329677582,-9.841267585754395
1745652046.402903,0.00030838287784717977,-0.005218590144068003,-0.19064629077911377,0.42941251397132874,-0.28517621755599976,-9.58252239227295
1745652046.4087994,0.010927258990705013,0.0011026642750948668,-0.19235722720623016,0.27413734793663025,-0.45308488607406616,-9.774613380432129
1745652046.4128952,0.0006005183095112443,-0.0046430351212620735,-0.1909521520137787,0.4656807780265808,-0.379854679107666,-9.834206581115723
1745652046.4402938,-0.0021830566693097353,-0.009720463305711746,-0.1924237161874771,0.2731700837612152,-0.3459784984588623,-9.906603813171387
1745652046.4443054,0.0005714196595363319,0.0018281243974342942,-0.1894395798444748,0.39693009853363037,-0.4381863474845886,-9.742989540100098
1745652046.4477,-0.007287369575351477,-0.008963647298514843,-0.1880883276462555,0.3349175453186035,-0.23451609909534454,-9.644586563110352
1745652046.4502988,0.004614212084561586,-0.002876030746847391,-0.19118651747703552,0.30890539288520813,-0.39066410064697266,-9.854537010192871
1745652046.4826798,-0.011228087358176708,-0.009285357780754566,-0.18985559046268463,0.45432740449905396,-0.1538809984922409,-9.762877464294434
1745652046.4847314,0.010493189096450806,0.000816325016785413,-0.19165855646133423,0.2612718939781189,-0.285538911819458,-9.846630096435547
1745652046.4877732,-0.003864289727061987,-0.006740267388522625,-0.18680298328399658,0.47194090485572815,-0.15744316577911377,-9.65962028503418
1745652046.492421,0.009359036572277546,-0.008789965882897377,-0.19141042232513428,0.24173560738563538,-0.37537968158721924,-9.871342658996582
1745652046.4924943,0.00898485817015171,-0.000920757302083075,-0.18826048076152802,0.4522222578525543,-0.250831663608551,-9.809225082397461
1745652046.5262792,0.007796833757311106,-0.004249981604516506,-0.19036856293678284,0.32840344309806824,-0.27542704343795776,-9.796456336975098
1745652046.5263498,0.01925818994641304,-0.007606048136949539,-0.18761412799358368,0.35565876960754395,-0.3203825056552887,-9.71021842956543
1745652046.528932,0.00037522651837207377,-0.006685910280793905,-0.1884545087814331,0.448085218667984,-0.24761228263378143,-9.679348945617676
1745652046.5303497,0.011980132199823856,-0.001220401027239859,-0.1872311234474182,0.22664132714271545,-0.40695828199386597,-9.91730785369873
1745652046.5684845,0.002213898114860058,-0.008816528134047985,-0.18909551203250885,0.4027248024940491,-0.3429238796234131,-9.778966903686523
1745652046.5699303,0.014800487086176872,-0.004152017645537853,-0.18781158328056335,0.2746126055717468,-0.2765195369720459,-9.723760604858398
1745652046.5720065,-0.004151448607444763,-0.005300936289131641,-0.1869819611310959,0.4200863242149353,-0.38367828726768494,-9.762532234191895
1745652046.5740502,0.009754708968102932,-0.006043874658644199,-0.1860504299402237,0.28756335377693176,-0.2866913080215454,-9.839442253112793
1745652046.576229,0.019012905657291412,-0.005227666348218918,-0.18611130118370056,0.20610308647155762,-0.034557245671749115,-9.741978645324707
1745652046.6119986,0.003642243565991521,-0.006272413767874241,-0.1855468451976776,0.4425218105316162,-0.39956003427505493,-9.838815689086914
1745652046.615716,0.0195346437394619,-0.00568785797804594,-0.18559056520462036,0.27789610624313354,-0.10030978918075562,-9.760354995727539
1745652046.6196303,0.011042582802474499,-0.0027836791705340147,-0.18612678349018097,0.3633905351161957,-0.4075474739074707,-9.732190132141113
1745652046.6298301,0.01692129299044609,-0.008761949837207794,-0.1837061047554016,0.4038637578487396,-0.277442991733551,-9.820198059082031
1745652046.6554503,0.018609510734677315,-0.004219524562358856,-0.1839899718761444,0.24607853591442108,-0.32775378227233887,-9.958853721618652
1745652046.657445,0.017120277509093285,-0.006027773953974247,-0.18271848559379578,0.45995527505874634,-0.348029226064682,-9.662023544311523
1745652046.6600206,0.013106903061270714,-0.006211192812770605,-0.18148353695869446,0.21331357955932617,-0.23485350608825684,-9.705745697021484
1745652046.66253,0.010749872773885727,-0.006409895606338978,-0.18349573016166687,0.49600106477737427,-0.5177836418151855,-9.817873001098633
1745652046.6655664,0.00856282189488411,-0.008406432345509529,-0.18135640025138855,0.262707382440567,-0.18264329433441162,-9.895727157592773
1745652046.7026277,0.004118164069950581,0.001885420409962535,-0.1804267019033432,0.28781455755233765,-0.5190373659133911,-9.847793579101562
1745652046.7041848,0.009561233222484589,-0.011101635172963142,-0.1828296035528183,0.36563268303871155,-0.19377480447292328,-9.542332649230957
1745652046.7065392,0.0028000562451779842,-0.0023266244679689407,-0.17957626283168793,0.30154237151145935,-0.37604326009750366,-9.828336715698242
1745652046.7084613,0.002807234413921833,-0.006906880531460047,-0.18154701590538025,0.47423845529556274,-0.30975303053855896,-9.902728080749512
1745652046.740994,0.0007268444751389325,-0.0035506486892700195,-0.1765957772731781,0.3701898455619812,-0.36554792523384094,-9.816458702087402
1745652046.7436614,0.014325348660349846,-0.0017495241481810808,-0.17401626706123352,0.23012499511241913,-0.29790955781936646,-9.576823234558105
1745652046.7457285,-0.0046320222318172455,-0.0007038267212919891,-0.1752346307039261,0.48257654905319214,-0.38277775049209595,-9.675562858581543
1745652046.7474923,0.010784757323563099,-0.001816598349250853,-0.17494243383407593,0.20711073279380798,-0.2534230351448059,-10.00574779510498
1745652046.7906654,0.003465227084234357,0.0005243561463430524,-0.17473173141479492,0.466235488653183,-0.3906534016132355,-9.830401420593262
1745652046.795225,0.006383872590959072,-0.001798194251023233,-0.17399939894676208,0.28473398089408875,-0.15830960869789124,-9.609262466430664
1745652046.7967,0.002493432490155101,0.0036423467099666595,-0.17593348026275635,0.36857375502586365,-0.37452608346939087,-9.758077621459961
1745652046.7999058,0.010561316274106503,-0.005007891915738583,-0.17437469959259033,0.39628881216049194,-0.22945883870124817,-9.941344261169434
1745652046.8263066,0.013699138537049294,0.0014414491597563028,-0.17483721673488617,0.25493869185447693,-0.21393553912639618,-9.817436218261719
1745652046.8293197,0.012025701813399792,0.002531070727854967,-0.17569473385810852,0.4656941294670105,-0.3127177357673645,-9.570730209350586
1745652046.8308358,0.016539692878723145,-0.004793389234691858,-0.17438599467277527,0.24091407656669617,-0.13816574215888977,-9.720072746276855
1745652046.8318522,0.01021164283156395,0.003266462590545416,-0.17693938314914703,0.449512779712677,-0.4469321668148041,-9.907143592834473
1745652046.8342416,0.013695264235138893,-0.0026091092731803656,-0.17511412501335144,0.2602698504924774,-0.16994038224220276,-9.896327018737793
1745652046.87197,0.016545569524168968,0.0034751531202346087,-0.1756957471370697,0.33929529786109924,-0.5466539859771729,-9.724248886108398
1745652046.8743885,0.011665736325085163,-0.0036103767342865467,-0.17355544865131378,0.3822333514690399,-0.19027121365070343,-9.573690414428711
1745652046.8759968,0.005586265120655298,-0.003815671429038048,-0.17414556443691254,0.29595428705215454,-0.49114179611206055,-9.95830249786377
1745652046.87945,0.008872345089912415,-0.0008261380717158318,-0.17398503422737122,0.5079771280288696,-0.32907772064208984,-9.841489791870117
1745652046.9148588,0.0020689251832664013,0.00039650528924539685,-0.1745615303516388,0.19723176956176758,-0.29892390966415405,-9.716601371765137
1745652046.9173903,0.004941836930811405,-0.0019565466791391373,-0.17412981390953064,0.42164215445518494,-0.4632928967475891,-9.621774673461914
1745652046.9182153,-0.002240948611870408,-0.007359134498983622,-0.17442014813423157,0.34115487337112427,-0.1998308151960373,-9.825386047363281
1745652046.9204032,0.004369786009192467,0.0027045253664255142,-0.1736338883638382,0.390682190656662,-0.4482938349246979,-10.003217697143555
1745652046.9603138,0.011726371943950653,-0.007512621581554413,-0.17475450038909912,0.3551545739173889,-0.19357064366340637,-9.897109985351562
1745652046.9604337,0.021907197311520576,0.0006356502999551594,-0.17422710359096527,0.3326917290687561,-0.3761332333087921,-9.794163703918457
1745652046.9618194,0.00423224363476038,-0.002740122377872467,-0.17576630413532257,0.3576206564903259,-0.2794415354728699,-9.553961753845215
1745652046.96923,0.01585496962070465,-0.001215590862557292,-0.17419999837875366,0.31144359707832336,-0.4602634310722351,-9.783172607421875
1745652046.99706,0.0015904741594567895,-0.007342011667788029,-0.17436428368091583,0.423689603805542,-0.33121564984321594,-9.954723358154297
1745652047.0009873,0.008586270734667778,-0.0015455521643161774,-0.17382743954658508,0.27536386251449585,-0.3799284100532532,-9.916075706481934
1745652047.0046227,0.0024385787546634674,-0.0013902566861361265,-0.1735793948173523,0.39892035722732544,-0.3728247582912445,-9.53770923614502
1745652047.0060244,-0.005069666542112827,-0.008433500304818153,-0.17321506142616272,0.28271979093551636,-0.2936237156391144,-9.678583145141602
1745652047.008949,0.004239609930664301,-0.0035215255338698626,-0.1729707419872284,0.4330322742462158,-0.3806535601615906,-9.909971237182617
1745652047.0423982,-0.009043636731803417,-0.005728299729526043,-0.1741754710674286,0.384931355714798,-0.2022644579410553,-9.897254943847656
1745652047.0451984,0.011387212201952934,0.00038257287815213203,-0.17600075900554657,0.25474607944488525,-0.25313884019851685,-9.721902847290039
1745652047.049002,-0.00924654770642519,-0.009881118312478065,-0.17436537146568298,0.5069478154182434,-0.2750997841358185,-9.547605514526367
1745652047.0510218,0.01338755339384079,-0.0017809218261390924,-0.17547377943992615,0.23211956024169922,-0.25853732228279114,-9.996335983276367
1745652047.084225,0.004258139990270138,-0.006503672804683447,-0.17392373085021973,0.4214251935482025,-0.25265878438949585,-9.913721084594727
1745652047.0866644,0.0217086561024189,-0.0054738023318350315,-0.17444609105587006,0.2971668839454651,-0.16970375180244446,-9.612098693847656
1745652047.0910459,0.0053041488863527775,-0.014046430587768555,-0.17764504253864288,0.2685568034648895,-0.15190431475639343,-9.616868019104004
1745652047.0955374,0.0081120440736413,-0.0057868389412760735,-0.1761384904384613,0.4404236376285553,-0.4741557240486145,-9.867561340332031
1745652047.100136,0.013867800123989582,-0.017589766532182693,-0.17715950310230255,0.32830649614334106,-0.07046590745449066,-9.911213874816895
1745652047.1288893,0.02161119133234024,-0.0031410071533173323,-0.17536555230617523,0.3081893026828766,-0.38074687123298645,-9.866105079650879
1745652047.1355011,0.019687693566083908,-0.015301065519452095,-0.1780429482460022,0.4352148473262787,-0.13650013506412506,-9.509964942932129
1745652047.1392236,0.01751214638352394,-0.008054928854107857,-0.17812125384807587,0.2673199474811554,-0.34506121277809143,-9.779051780700684
1745652047.140434,0.018605323508381844,-0.009730879217386246,-0.17664864659309387,0.4491787850856781,-0.33021968603134155,-9.851041793823242
1745652047.1716142,0.01745549775660038,-0.012345398776233196,-0.1763392835855484,0.20134499669075012,-0.3240355849266052,-9.911617279052734
1745652047.1764393,0.023844968527555466,-0.004443545825779438,-0.17559561133384705,0.39434951543807983,-0.4495986998081207,-9.688974380493164
1745652047.1809273,0.006357511039823294,-0.015659982338547707,-0.17666879296302795,0.32408636808395386,-0.23498697578907013,-9.686239242553711
1745652047.1837406,0.01586868241429329,-0.008226148784160614,-0.17667259275913239,0.34248653054237366,-0.4999632239341736,-9.942753791809082
1745652047.1858952,0.005033223889768124,-0.015022647567093372,-0.1756763458251953,0.43678054213523865,-0.1662365198135376,-9.709925651550293
1745652047.2147658,0.010235629975795746,-0.0065827639773488045,-0.1777767390012741,0.2691935896873474,-0.48490944504737854,-9.763355255126953
1745652047.216691,0.007002532482147217,-0.011478157714009285,-0.17547975480556488,0.41275206208229065,-0.2589111626148224,-9.686152458190918
1745652047.2205799,0.006132698617875576,-0.013431750237941742,-0.1739198863506317,0.2930819094181061,-0.3340178430080414,-9.901662826538086
1745652047.2247174,0.010302838869392872,-0.008504824712872505,-0.17447803914546967,0.40722131729125977,-0.2595520615577698,-9.860079765319824
1745652047.2606995,0.009674405679106712,-0.009594397619366646,-0.17589545249938965,0.3044532835483551,-0.24257126450538635,-9.720035552978516
1745652047.263388,0.02326154336333275,-0.00964140985161066,-0.1761445850133896,0.29918172955513,-0.29502302408218384,-9.640923500061035
1745652047.2668355,0.01191605906933546,-0.011962699703872204,-0.17671355605125427,0.41983556747436523,-0.20529977977275848,-9.744283676147461
1745652047.2714882,0.027324188500642776,-0.003958395682275295,-0.17776507139205933,0.29497891664505005,-0.3314206004142761,-9.938926696777344
1745652047.3005419,0.007355295121669769,-0.014394951052963734,-0.17627990245819092,0.3868960738182068,-0.2710331976413727,-9.743162155151367
1745652047.3022618,0.02487752214074135,-0.008478499948978424,-0.17615091800689697,0.24789535999298096,-0.4016861021518707,-9.767823219299316
1745652047.305061,0.02089274488389492,-0.003348766593262553,-0.17249521613121033,0.23216791450977325,-0.3281240463256836,-9.767843246459961
1745652047.3075883,-0.0027967223431915045,-0.00835842452943325,-0.17154239118099213,0.4129200577735901,-0.36348775029182434,-9.677375793457031
1745652047.3442342,0.01564793288707733,-0.014572130516171455,-0.17448845505714417,0.26062437891960144,-0.27053046226501465,-9.787263870239258
1745652047.3442762,0.0005180406733416021,-0.004857697524130344,-0.17296624183654785,0.4672210216522217,-0.33496659994125366,-9.82342529296875
1745652047.3484845,0.01921282894909382,-0.00885638128966093,-0.17277827858924866,0.28582650423049927,-0.22513370215892792,-9.806589126586914
1745652047.3546226,0.00804846826940775,-0.008964363485574722,-0.17470018565654755,0.32947078347206116,-0.31649860739707947,-9.704933166503906
1745652047.354731,0.006891083903610706,-0.008391765877604485,-0.17146821320056915,0.40621820092201233,-0.29996588826179504,-9.738466262817383
1745652047.3983002,0.017977451905608177,-0.006399136036634445,-0.17343929409980774,0.20737092196941376,-0.2240789383649826,-9.92081356048584
1745652047.4000428,0.010307198390364647,-0.00877623911947012,-0.1742168664932251,0.44226378202438354,-0.3727664649486542,-9.776388168334961
1745652047.4031641,0.029189428314566612,-0.004481857642531395,-0.17226506769657135,0.25164657831192017,-0.11514031887054443,-9.681657791137695
1745652047.4051363,0.011366138234734535,-0.0059841712936758995,-0.17325296998023987,0.4131912589073181,-0.44379130005836487,-9.780089378356934
1745652047.4279606,0.021821564063429832,-0.010565337724983692,-0.17351797223091125,0.264525830745697,-0.24238364398479462,-9.844780921936035
1745652047.4311495,0.012708529829978943,-0.004895939491689205,-0.17295125126838684,0.32901695370674133,-0.5084571838378906,-9.794995307922363
1745652047.4354055,0.015843091532588005,-0.0072662970051169395,-0.1717153787612915,0.3687118887901306,-0.3564913272857666,-9.75832748413086
1745652047.4424624,0.008131684735417366,-0.006894834339618683,-0.16535380482673645,0.34085291624069214,-0.28537288308143616,-9.906244277954102
1745652047.4432483,0.020648928359150887,0.005598674528300762,-0.16596218943595886,0.27959972620010376,-0.366205632686615,-9.784648895263672
1745652047.4732478,0.005313756875693798,-0.002697761869058013,-0.16538883745670319,0.3746985197067261,-0.4066797196865082,-9.681921005249023
1745652047.4752004,0.021476227790117264,-0.00031010954990051687,-0.1633593589067459,0.27183350920677185,-0.36815381050109863,-9.842233657836914
1745652047.4801435,-0.004827579949051142,-0.0041387127712368965,-0.1626950353384018,0.47737202048301697,-0.4431743621826172,-9.903884887695312
1745652047.4816327,0.010473139584064484,-0.00212327903136611,-0.1607077419757843,0.21721383929252625,-0.3563612997531891,-9.850604057312012
1745652047.5161526,-0.0040464578196406364,0.0010165011044591665,-0.16288475692272186,0.4273149371147156,-0.3549194931983948,-9.571572303771973
1745652047.5162249,-0.003964652772992849,-0.008184215985238552,-0.16375204920768738,0.294508159160614,-0.3034403324127197,-9.737072944641113
1745652047.5176985,0.0012609080877155066,0.0025306646712124348,-0.1629926860332489,0.36974066495895386,-0.3268461227416992,-9.940289497375488
1745652047.5272074,-0.007776701357215643,-0.004870563745498657,-0.16425848007202148,0.3808736205101013,-0.3032315671443939,-9.848255157470703
1745652047.527334,0.003917501773685217,-0.001330244936980307,-0.16358140110969543,0.2280077487230301,-0.2771301865577698,-9.736588478088379
1745652047.560286,-0.0018808770691975951,-0.002800160786136985,-0.16276445984840393,0.4481895864009857,-0.32172781229019165,-9.612220764160156
1745652047.5629334,0.011670785956084728,-0.0022795465774834156,-0.1629120409488678,0.2737010419368744,-0.09571883082389832,-9.825502395629883
1745652047.5644724,0.0007479088380932808,0.0011012982577085495,-0.1631547510623932,0.458761990070343,-0.390900194644928,-9.847837448120117
1745652047.5664887,0.013626834377646446,-0.006438705138862133,-0.16280224919319153,0.21695730090141296,-0.10696272552013397,-9.714770317077637
1745652047.6029065,0.004587081260979176,0.0018354486674070358,-0.1638675481081009,0.4029538035392761,-0.4789036810398102,-9.75139045715332
1745652047.6065454,0.013034967705607414,-0.0032133706845343113,-0.163436621427536,0.3383328914642334,-0.19719581305980682,-9.86260986328125
1745652047.6105173,0.012738612480461597,0.0023550556506961584,-0.16467098891735077,0.22875352203845978,-0.36561697721481323,-9.867033004760742
1745652047.6207278,0.005308802239596844,-0.004818272311240435,-0.16319134831428528,0.44407111406326294,-0.32965049147605896,-9.544862747192383
1745652047.644877,0.0014116984093561769,0.001384312054142356,-0.16388987004756927,0.22486086189746857,-0.33047664165496826,-9.706347465515137
1745652047.6467836,0.0015479779103770852,-4.523517418419942e-05,-0.16294537484645844,0.47953271865844727,-0.48762592673301697,-9.894225120544434
1745652047.6486566,0.00014707744412589818,-0.0034556519240140915,-0.16415809094905853,0.2415342777967453,-0.23548714816570282,-9.92474365234375
1745652047.651044,-0.010181075893342495,-0.0016465317457914352,-0.1627814620733261,0.44461187720298767,-0.23748929798603058,-9.709897994995117
1745652047.6525352,-0.0016826471546664834,-0.007715425454080105,-0.16320061683654785,0.33577093482017517,-0.31725701689720154,-9.856409072875977
1745652047.6916647,0.0029206702020019293,0.004113500006496906,-0.16520877182483673,0.3504677712917328,-0.34591197967529297,-9.82081127166748
1745652047.6917784,-0.0015781723195686936,-0.005288173444569111,-0.16147784888744354,0.3673338294029236,-0.17889229953289032,-9.634994506835938
1745652047.6952748,0.0029461223166435957,0.0013043187791481614,-0.1639966517686844,0.28811389207839966,-0.34113839268684387,-9.701261520385742
1745652047.69739,0.0011831313604488969,-0.007894685491919518,-0.16257399320602417,0.43850845098495483,-0.21911287307739258,-9.774678230285645
1745652047.7318537,0.004533985164016485,0.005169237963855267,-0.1640705019235611,0.2421034872531891,-0.322523832321167,-9.940751075744629
1745652047.733969,0.005663649644702673,-0.0046920510940253735,-0.1655009537935257,0.41185611486434937,-0.3535011410713196,-9.705670356750488
1745652047.736464,0.010671352967619896,-0.0013169789453968406,-0.16375061869621277,0.2601090669631958,-0.220662921667099,-9.645310401916504
1745652047.7396243,-0.007232496980577707,0.001320493407547474,-0.16413970291614532,0.4189411997795105,-0.4539686143398285,-9.858830451965332
1745652047.78582,0.002940953942015767,-0.007448340300470591,-0.16166755557060242,0.34574735164642334,-0.3521864414215088,-9.824419021606445
1745652047.7859187,0.0014585404423996806,0.0058486126363277435,-0.16452853381633759,0.3664964735507965,-0.4055202901363373,-9.73127555847168
1745652047.7881918,-0.011621614918112755,-0.008046088740229607,-0.16117413341999054,0.3672507703304291,-0.31269463896751404,-9.71467113494873
1745652047.7913136,0.0006143372738733888,-0.0011780671775341034,-0.16466201841831207,0.30518069863319397,-0.35991817712783813,-9.854716300964355
1745652047.8166327,-9.352275810670108e-05,-0.00969916582107544,-0.16567590832710266,0.48461318016052246,-0.3728962540626526,-9.768867492675781
1745652047.8198817,-0.008865228854119778,-0.011413945816457272,-0.16684871912002563,0.3036276698112488,-0.23369507491588593,-9.691095352172852
1745652047.8242984,-0.0049155219458043575,-0.0020996788516640663,-0.1654844433069229,0.39233916997909546,-0.4137544631958008,-9.792646408081055
1745652047.8272789,-0.011522184126079082,-0.01576913334429264,-0.16718825697898865,0.31016939878463745,-0.1193016991019249,-9.799455642700195
1745652047.8306952,0.008074844256043434,-0.005105842836201191,-0.16529670357704163,0.3141201138496399,-0.3237198293209076,-9.787973403930664
1745652047.8609595,-0.010335907340049744,-0.007886883802711964,-0.16543088853359222,0.42435169219970703,-0.06974723935127258,-9.677053451538086
1745652047.8655493,0.007684732787311077,-0.00734932953491807,-0.1680808663368225,0.21258237957954407,-0.30024003982543945,-9.870952606201172
1745652047.8705702,0.004125854931771755,-0.01164846308529377,-0.1673026829957962,0.4203280508518219,-0.16022197902202606,-9.744329452514648
1745652047.875675,0.012105672620236874,-0.005125480704009533,-0.1671847403049469,0.2870612144470215,-0.27636751532554626,-9.836507797241211
1745652047.9035134,0.01465815119445324,-0.0061440132558345795,-0.16737017035484314,0.35701560974121094,-0.2690642774105072,-9.752965927124023
1745652047.9063993,0.008071264252066612,-0.012871791608631611,-0.16844534873962402,0.3667064607143402,-0.2431812584400177,-9.689059257507324
1745652047.9105625,0.0065621561370790005,-0.0018724541878327727,-0.16957280039787292,0.34288477897644043,-0.38425785303115845,-9.831875801086426
1745652047.9136,0.001667829928919673,-0.011332441121339798,-0.16646316647529602,0.3486478924751282,-0.35226020216941833,-9.82551383972168
1745652047.9163322,0.014737313613295555,-0.0029994817450642586,-0.16809800267219543,0.2995469868183136,-0.29300156235694885,-9.786202430725098
1745652047.9462647,-0.008627998642623425,-0.015057770535349846,-0.16804280877113342,0.39160555601119995,-0.3756190836429596,-9.752161979675293
1745652047.9500577,0.00754989217966795,-0.008795557543635368,-0.16597215831279755,0.25524330139160156,-0.26612964272499084,-9.790914535522461
1745652047.9535577,-0.00494246045127511,-0.005584037397056818,-0.16731151938438416,0.4277658462524414,-0.34546905755996704,-9.790010452270508
1745652047.9585655,-0.0010431378614157438,-0.013099427334964275,-0.1659461110830307,0.2489127367734909,-0.20899467170238495,-9.80445671081543
1745652047.991812,-0.00010550953447818756,-0.006858885288238525,-0.16584934294223785,0.42391929030418396,-0.3994372487068176,-9.721731185913086
1745652047.9946947,-0.00045737065374851227,-0.00791389774531126,-0.165246844291687,0.3548520803451538,-0.15780627727508545,-9.79041862487793
1745652047.9968154,0.004502489231526852,-0.0056007010862231255,-0.16667547821998596,0.27584442496299744,-0.29822802543640137,-9.876045227050781
1745652048.000052,-0.0028270818293094635,-0.015169176273047924,-0.16464069485664368,0.47719699144363403,-0.297614723443985,-9.678594589233398
1745652048.0028133,0.016402753069996834,-0.0034995260648429394,-0.16619089245796204,0.17265382409095764,-0.16345271468162537,-9.787924766540527
1745652048.0332472,0.014498774893581867,-0.010082724504172802,-0.1687578409910202,0.30870944261550903,-0.18861013650894165,-9.838861465454102
1745652048.0357337,0.018206719309091568,-0.004431314300745726,-0.16781245172023773,0.2827732563018799,-0.3730359673500061,-9.860040664672852
1745652048.0395854,0.015915922820568085,-0.010048436000943184,-0.16721782088279724,0.38806551694869995,-0.2903243601322174,-9.6704740524292
1745652048.0419111,0.013183975592255592,-0.004268988035619259,-0.1637336015701294,0.23846213519573212,-0.2566900849342346,-9.78564453125
1745652048.078558,0.003375979606062174,-0.010531269013881683,-0.16459590196609497,0.5131620168685913,-0.5053816437721252,-9.843568801879883
1745652048.0786417,0.018307555466890335,-0.005576011724770069,-0.16599203646183014,0.1980205774307251,-0.19524133205413818,-9.814784049987793
1745652048.0787084,-0.00468476815149188,-0.006521952338516712,-0.16572973132133484,0.39061036705970764,-0.4698444902896881,-9.720868110656738
1745652048.0827034,0.011657435446977615,-0.013217841275036335,-0.1646205335855484,0.29429513216018677,-0.22490842640399933,-9.710914611816406
1745652048.1199386,-0.0025667932350188494,-0.0021101543679833412,-0.16333772242069244,0.34449058771133423,-0.34572699666023254,-9.85835075378418
1745652048.1239624,0.0008432174217887223,-0.012521907687187195,-0.16449178755283356,0.36991289258003235,-0.2546214163303375,-9.823335647583008
1745652048.1251924,0.006511008832603693,-0.004078233148902655,-0.16393253207206726,0.2848362326622009,-0.2032419741153717,-9.7022705078125
1745652048.1270401,0.002431171480566263,-0.008609975688159466,-0.16322292387485504,0.4512862265110016,-0.30398446321487427,-9.678807258605957
1745652048.1312823,0.009847643785178661,-0.011520180851221085,-0.16433727741241455,0.2609257102012634,-0.07337663322687149,-9.858858108520508
1745652048.161782,0.019250590354204178,-0.007312229368835688,-0.15984617173671722,0.2738424837589264,-0.10498583316802979,-9.814184188842773
1745652048.1644723,0.011341067962348461,0.0041641960851848125,-0.15917785465717316,0.36468982696533203,-0.4246399998664856,-9.8836030960083
1745652048.1659794,0.028514239937067032,-0.01068420335650444,-0.15974295139312744,0.30043524503707886,-0.05460578203201294,-9.592656135559082
1745652048.1683593,0.016148963943123817,0.00043655623449012637,-0.16130051016807556,0.352409303188324,-0.3426043391227722,-9.730417251586914
1745652048.2062953,0.027786385267972946,-0.003243396058678627,-0.1612521857023239,0.37507620453834534,-0.12908843159675598,-9.825345993041992
1745652048.2080054,0.018156621605157852,-0.0019196942448616028,-0.16214749217033386,0.2127334177494049,-0.32907629013061523,-9.893832206726074
1745652048.211577,0.02980043925344944,-0.0027321563102304935,-0.1604132205247879,0.4458118975162506,-0.3987509310245514,-9.615588188171387
