timestamp,angular_vel_x,angular_vel_y,angular_vel_z,linear_acc_x,linear_acc_y,linear_acc_z
1745650827.1329904,0.005742424633353949,-0.010401250794529915,0.005131129175424576,-0.4837720990180969,0.36709022521972656,-9.804503440856934
1745650827.1425312,0.003073568921536207,-0.0066577838733792305,0.0012246330734342337,-0.35262709856033325,0.22978493571281433,-9.818986892700195
1745650827.1465294,0.0061776647344231606,-0.013263593427836895,0.002102134982123971,-0.37556904554367065,0.3869667947292328,-9.795260429382324
1745650827.1587002,0.010179250501096249,-0.009752698242664337,-0.0016743658343330026,-0.38085776567459106,0.27037519216537476,-9.828850746154785
1745650827.1671321,0.003039461327716708,-0.011847523041069508,-0.00046306545846164227,-0.26422107219696045,0.2603115439414978,-9.77984619140625
1745650827.1697605,0.011012133210897446,-0.011852542869746685,-0.004579304251819849,-0.38428136706352234,0.29954466223716736,-9.805890083312988
1745650827.174097,0.0018300435040146112,-0.01171156670898199,-0.0037322435528039932,-0.21926851570606232,0.2127823382616043,-9.825722694396973
1745650827.1797757,0.00526420259848237,-0.012597987428307533,-0.004099030513316393,-0.3832581639289856,0.32414525747299194,-9.84936809539795
1745650827.1822715,0.0043026152998209,-0.00870446301996708,-0.004380188882350922,-0.278774231672287,0.14304283261299133,-9.765362739562988
1745650827.209741,0.004874060396105051,-0.014010411687195301,-0.005300094373524189,-0.3462124168872833,0.31287357211112976,-9.70734691619873
1745650827.2126515,0.0069994754157960415,-0.009361660107970238,-0.002344701439142227,-0.34570032358169556,0.20324468612670898,-9.852266311645508
1745650827.2180948,0.003314609406515956,-0.004835040308535099,0.005257873795926571,-0.641096293926239,0.30864399671554565,-9.65676212310791
1745650827.2519724,0.0034264884889125824,-0.00014072004705667496,0.0027070017531514168,-0.6446728706359863,0.14612486958503723,-9.714930534362793
1745650827.2553208,-2.996772491314914e-05,-0.0011355532333254814,0.005048784893006086,-0.6538007259368896,0.24740466475486755,-9.698580741882324
1745650827.25853,0.0033822585828602314,0.004453389439731836,0.006211434490978718,-0.7568926811218262,0.24585887789726257,-9.6914644241333
1745650827.2607782,-0.0022563636302948,0.0026236227713525295,0.005448940210044384,-0.6371734738349915,0.23192358016967773,-9.697362899780273
1745650827.2641137,0.002630651695653796,0.0033722184598445892,0.005533387418836355,-0.7875025868415833,0.34474626183509827,-9.751958847045898
1745650827.295869,0.003309584455564618,0.0038530088495463133,0.0034106478560715914,-0.64640212059021,0.245696023106575,-9.750699043273926
1745650827.2980206,0.0031474449206143618,0.0004085555556230247,0.004602042026817799,-0.7526966333389282,0.38016098737716675,-9.752693176269531
1745650827.3017173,0.005382840055972338,0.0019952082075178623,0.0022349192295223475,-0.659474790096283,0.23088344931602478,-9.744029998779297
1745650827.305737,0.0004652967327274382,-0.0034189552534371614,0.004111840855330229,-0.6255379915237427,0.3210466504096985,-9.726301193237305
1745650827.3388906,0.005658175330609083,0.0015208242693915963,-0.00025269825709983706,-0.6883528828620911,0.25553950667381287,-9.799612045288086
1745650827.342103,-0.0010262326104566455,-0.0024748612195253372,0.00043172627920284867,-0.5430734753608704,0.2163718044757843,-9.736214637756348
1745650827.345427,0.0018167340895161033,0.0008600925793871284,-5.7334545999765396e-05,-0.6433308124542236,0.22152447700500488,-9.694974899291992
1745650827.347848,-0.00598254194483161,0.003801722778007388,0.000736301124561578,-0.46925467252731323,0.11280864477157593,-9.705924987792969
1745650827.349998,-0.007976580411195755,0.001599233248271048,1.4574919077858794e-05,-0.5422753691673279,0.17804980278015137,-9.755719184875488
1745650827.3826969,-0.008571220561861992,0.0070436494424939156,0.0016142487293109298,-0.40219753980636597,0.12805286049842834,-9.776995658874512
1745650827.383745,-0.012054331600666046,0.002779237926006317,0.0014212533133104444,-0.38552919030189514,0.181814044713974,-9.784513473510742
1745650827.385694,-0.009363343007862568,0.006966117769479752,0.00086146843386814,-0.3815140128135681,0.29126712679862976,-9.79332447052002
1745650827.3950617,-0.010680519044399261,0.005721756257116795,0.0016187193104997277,-0.2521677613258362,0.2490757703781128,-9.79761791229248
1745650827.4247782,-0.0006570684490725398,0.006723497994244099,0.001358898589387536,-0.35893043875694275,0.37221473455429077,-9.816347122192383
1745650827.428051,-0.0005265879444777966,0.006032390519976616,-0.000946739106439054,-0.18444156646728516,0.23943305015563965,-9.806203842163086
1745650827.4318151,0.007252371869981289,0.0019245229195803404,-0.000831801793538034,-0.34186142683029175,0.41762906312942505,-9.858808517456055
1745650827.4362967,0.009785735979676247,0.006355945952236652,-0.0023519096430391073,-0.23299571871757507,0.22637204825878143,-9.897844314575195
1745650827.4714234,0.0205365177243948,0.004271306563168764,-0.0013748336350545287,-0.3430948853492737,0.2161235511302948,-9.805953979492188
1745650827.4746754,0.012763666920363903,0.0027218773029744625,-0.0006452555535361171,-0.31075143814086914,0.21607311069965363,-9.75287914276123
1745650827.4781122,0.022719044238328934,0.005726185627281666,0.0006545406067743897,-0.46894121170043945,0.19384679198265076,-9.785017967224121
1745650827.4878776,0.00998670607805252,0.0037596956826746464,0.0022134538739919662,-0.36474543809890747,0.08823134005069733,-9.73050308227539
1745650827.5141015,0.012967875227332115,0.006265557371079922,0.00046718251542188227,-0.5503175258636475,0.19617235660552979,-9.750393867492676
1745650827.514164,0.005560804158449173,0.00844806618988514,0.0025354146491736174,-0.45320987701416016,0.09494902193546295,-9.774404525756836
1745650827.516711,0.00011373842426110059,0.004591002594679594,0.002933474723249674,-0.5421203970909119,0.1699158102273941,-9.769147872924805
1745650827.518453,-0.0015009251656010747,0.008941581472754478,0.0029583401046693325,-0.5562824010848999,0.19248828291893005,-9.756746292114258
1745650827.5195227,-0.004692281596362591,0.004417724907398224,0.0021655268501490355,-0.5356823205947876,0.2017916887998581,-9.748495101928711
1745650827.559777,-0.004568539559841156,0.008468764834105968,0.0011519115651026368,-0.6633971333503723,0.3195456266403198,-9.801791191101074
1745650827.5598474,-0.009052994661033154,0.002991460030898452,0.0004353827389422804,-0.5522176027297974,0.2545112073421478,-9.75478744506836
1745650827.5612974,-0.002290609059855342,0.002262785332277417,-0.0006350085604935884,-0.7174197435379028,0.3794112205505371,-9.741569519042969
1745650827.5635083,-0.006280377507209778,0.005605227313935757,-0.0008887375588528812,-0.5975936651229858,0.2519540786743164,-9.745392799377441
1745650827.5955548,-0.003685802686959505,-0.006382340099662542,-0.0006731399334967136,-0.6337717175483704,0.2569228708744049,-9.76699161529541
1745650827.5993216,-0.006493298802524805,-0.004542031325399876,0.0005475954385474324,-0.453585684299469,0.20158302783966064,-9.740559577941895
1745650827.6028214,-0.004120496101677418,-0.00915585272014141,0.0010724652092903852,-0.577846884727478,0.3180723786354065,-9.785026550292969
1745650827.6055477,-0.006603351328521967,-0.004901769571006298,-0.0017606697510927916,-0.4067012369632721,0.16972488164901733,-9.796377182006836
1745650827.6089487,-0.006272993050515652,-0.010381164029240608,8.33472004160285e-05,-0.4547826647758484,0.3263280391693115,-9.764178276062012
1745650827.6413834,-0.0013766458723694086,-0.005451242905110121,0.0010013602441176772,-0.41698503494262695,0.20485833287239075,-9.81844711303711
1745650827.6436162,-0.004906743299216032,-0.010965613648295403,0.0014629658544436097,-0.35066747665405273,0.2820160686969757,-9.78437328338623
1745650827.646062,0.0027529620565474033,-0.004115586169064045,0.0015772266779094934,-0.41487637162208557,0.23861172795295715,-9.7838134765625
1745650827.6496713,-0.0015969611704349518,-0.00915459729731083,0.00046262191608548164,-0.29036542773246765,0.2114063799381256,-9.740911483764648
1745650827.684403,0.006275360472500324,-0.00460684671998024,0.004147891886532307,-0.43416157364845276,0.30348652601242065,-9.809582710266113
1745650827.6862302,0.0018640793859958649,-0.0047683618031442165,0.002749734790995717,-0.29513511061668396,0.18081694841384888,-9.770572662353516
1745650827.6898358,0.009017388336360455,-0.0055808210745453835,0.0020873716566711664,-0.39738088846206665,0.3208295404911041,-9.725427627563477
1745650827.6928937,0.008111126720905304,0.0007466287352144718,0.0028958464972674847,-0.3465130627155304,0.1692247837781906,-9.775322914123535
1745650827.6957164,0.006549011915922165,-0.004617298953235149,0.0038462188094854355,-0.35588932037353516,0.3245360851287842,-9.790891647338867
1745650827.7275414,0.01015221793204546,0.000653412367682904,0.001111671095713973,-0.4561428427696228,0.21747252345085144,-9.829919815063477
1745650827.7294722,0.005576617084443569,-0.0045561823062598705,0.00247744913212955,-0.34438103437423706,0.2375965118408203,-9.7661714553833
1745650827.7364256,0.010898892767727375,-0.00420867744833231,0.001997849438339472,-0.5249953866004944,0.2938076853752136,-9.817922592163086
1745650827.7392154,0.005957050248980522,-0.005485254339873791,0.0009389813058078289,-0.41602540016174316,0.1810673326253891,-9.79621696472168
1745650827.772496,0.008775724098086357,-0.007514283061027527,0.0005075624212622643,-0.5606987476348877,0.3006208837032318,-9.755168914794922
1745650827.7817984,0.004689296707510948,-0.004015221726149321,0.0004560649977065623,-0.5365998148918152,0.1620253026485443,-9.744244575500488
1745650827.781956,0.001984993228688836,-0.009045789018273354,0.0015224067028611898,-0.566082775592804,0.24832923710346222,-9.737496376037598
1745650827.7820354,0.004807531367987394,-0.003472663462162018,-0.000525495212059468,-0.6463690400123596,0.20181040465831757,-9.771329879760742
1745650827.8127768,-0.001599112874828279,-0.006309180054813623,0.0007293650996871293,-0.556972861289978,0.1994110643863678,-9.729530334472656
1745650827.8165348,-0.0032378151081502438,-0.007008424494415522,-0.0006941988249309361,-0.6550814509391785,0.28443440794944763,-9.74417495727539
1745650827.8214295,-0.0012763829436153173,-0.0037427812349051237,0.0017730195540934801,-0.5612496137619019,0.2516036927700043,-9.754308700561523
1745650827.8231838,-0.0017281236359849572,-0.007620575837790966,-0.00011268345406278968,-0.5728901028633118,0.3189297020435333,-9.75208854675293
1745650827.8561413,0.0018677035113796592,-0.0025868085213005543,-0.002141330623999238,-0.5668979287147522,0.2897702753543854,-9.785760879516602
1745650827.859798,-0.001983222085982561,-0.007001057267189026,0.0011690011015161872,-0.4759579598903656,0.27621692419052124,-9.745451927185059
1745650827.863009,0.0062425569631159306,-0.004035242833197117,-0.000711803266312927,-0.5789031982421875,0.3481624126434326,-9.778550148010254
1745650827.8643727,0.001548064174130559,-0.004349973052740097,-0.002421453595161438,-0.40024334192276,0.22075912356376648,-9.769979476928711
1745650827.8680174,0.006949433125555515,-0.004602859728038311,-0.0020323768258094788,-0.5224971175193787,0.3126480281352997,-9.760945320129395
1745650827.9009256,0.0038751023821532726,-0.003946881741285324,-0.0012208264088258147,-0.40339040756225586,0.15458618104457855,-9.759263038635254
1745650827.902773,0.0038154777139425278,-0.004470203071832657,-0.002621044171974063,-0.45346927642822266,0.2886660397052765,-9.751848220825195
1745650827.905572,0.003513529896736145,0.0006670352886430919,-0.0010459457989782095,-0.44113367795944214,0.14172616600990295,-9.779306411743164
1745650827.9065628,0.00011232621181989089,-0.002995192538946867,-0.0007864348590373993,-0.389295756816864,0.2373744696378708,-9.735727310180664
1745650827.9450958,0.005050530191510916,0.003027199534699321,0.00010069176641991362,-0.4866293966770172,0.19331495463848114,-9.784762382507324
1745650827.9451709,0.004062577150762081,-0.0004499101487454027,0.000956132251303643,-0.5323500633239746,0.3084806799888611,-9.772188186645508
1745650827.9452226,0.004377267323434353,0.006127390079200268,0.003144002053886652,-0.4916768968105316,0.15689606964588165,-9.80005168914795
1745650827.946171,-0.0005026337457820773,-0.0002980988356284797,0.0038129636086523533,-0.4755905270576477,0.27838000655174255,-9.73825454711914
1745650827.9845035,0.005333757493644953,0.0037313736975193024,0.0007071715081110597,-0.5890034437179565,0.19618837535381317,-9.774310111999512
1745650827.987954,-0.0035133310593664646,0.0007284480379894376,0.001969982171431184,-0.4701613485813141,0.22908005118370056,-9.765310287475586
1745650827.991782,0.0039336951449513435,0.0019823559559881687,0.003183611435815692,-0.6164741516113281,0.28883618116378784,-9.796567916870117
1745650827.9955175,-0.0017531316261738539,0.002816892694681883,0.002156325615942478,-0.46770796179771423,0.18152610957622528,-9.743508338928223
1745650827.999199,0.002564816502854228,-0.00046613914310000837,0.0035321302711963654,-0.594555139541626,0.33054062724113464,-9.734983444213867
1745650828.029815,0.0022782383020967245,0.0014355110470205545,0.0027468339540064335,-0.4993610978126526,0.1945398449897766,-9.79934024810791
1745650828.0316632,-0.00011107614409411326,-0.0005336998146958649,0.0020377282053232193,-0.508273720741272,0.3376896381378174,-9.765237808227539
1745650828.0328374,0.00632254034280777,0.002091856673359871,0.0008033422636799514,-0.5590078234672546,0.22951629757881165,-9.78518295288086
1745650828.033998,-0.0015018561389297247,-0.002218343550339341,-0.0006515946006402373,-0.44384899735450745,0.2670057713985443,-9.746424674987793
1745650828.0718935,0.0070359306409955025,0.00031572883017361164,0.00011422880925238132,-0.5423066020011902,0.2862216830253601,-9.792394638061523
1745650828.0744863,-0.00041473592864349484,0.0001157558654085733,-0.00010202472185483202,-0.38527441024780273,0.19745798408985138,-9.773218154907227
1745650828.0770779,0.003571821842342615,-0.0028357268311083317,-0.0005962046561762691,-0.5205529928207397,0.3171781003475189,-9.771478652954102
1745650828.0810447,0.003319729818031192,0.0020152193028479815,0.00044990330934524536,-0.4094741940498352,0.16380666196346283,-9.785764694213867
1745650828.083222,0.0002232477127108723,-0.005324150435626507,-0.0011489385506138206,-0.43713855743408203,0.31201663613319397,-9.78628921508789
1745650828.1137865,0.0035140931140631437,0.002214321866631508,-0.0011704409262165427,-0.4261278510093689,0.189191073179245,-9.795957565307617
1745650828.118671,-0.0016369387740269303,-0.002824109746143222,-0.0016123226378113031,-0.3655085265636444,0.24521216750144958,-9.745569229125977
1745650828.1216617,0.005104909650981426,-0.0005358279449865222,-0.000505615200381726,-0.5045634508132935,0.25201842188835144,-9.824554443359375
1745650828.1232448,0.0008303515496663749,-0.0018339389935135841,-0.00010904301598202437,-0.34250950813293457,0.207462877035141,-9.799271583557129
1745650828.156713,0.004538141191005707,-0.0030551382806152105,0.0007478726329281926,-0.4807406961917877,0.3122364580631256,-9.77673053741455
1745650828.1607833,0.002015987876802683,0.0015809210017323494,0.0011543193832039833,-0.3474102020263672,0.18148186802864075,-9.782013893127441
1745650828.1647046,0.008983561769127846,-0.0004301851149648428,0.0011181755689904094,-0.5112196207046509,0.24941018223762512,-9.825471878051758
1745650828.1688387,0.0015872195363044739,-0.0026617064140737057,0.0017510049510747194,-0.3823089003562927,0.22628340125083923,-9.77152156829834
1745650828.1715558,0.007310488261282444,-0.0008878099033609033,0.0024644597433507442,-0.5560949444770813,0.30385822057724,-9.776803970336914
1745650828.201426,0.0029508008155971766,-0.00020857458002865314,0.0009308792650699615,-0.4224716126918793,0.17273786664009094,-9.782575607299805
1745650828.2036145,0.005475995130836964,-0.003229700028896332,0.0018987033981829882,-0.5414341688156128,0.3157375454902649,-9.792810440063477
1745650828.2065113,0.0038940012454986572,-0.00041030431748367846,0.0005948651814833283,-0.5000579953193665,0.1789301335811615,-9.793428421020508
1745650828.2079446,-0.001008584164083004,-0.003595819231122732,0.003524698782712221,-0.49121347069740295,0.2867209315299988,-9.721681594848633
1745650828.2433636,0.004619400016963482,-0.0002683791390154511,0.00031882294570095837,-0.570604681968689,0.2162276804447174,-9.785426139831543
1745650828.245549,-0.0032565102446824312,-0.0035964809358119965,0.002423283876851201,-0.4652937948703766,0.24146005511283875,-9.758623123168945
1745650828.247477,0.0038350012619048357,-0.0018899880815297365,0.002665847772732377,-0.6017817258834839,0.2880624234676361,-9.780778884887695
1745650828.2496467,-0.0011575408279895782,-0.001479771570302546,-1.8552876781541272e-06,-0.4536314904689789,0.20757822692394257,-9.760403633117676
1745650828.2881656,0.0016161836683750153,-0.005687017925083637,0.0021547777578234673,-0.5904479026794434,0.3555203378200531,-9.780715942382812
1745650828.2903037,0.001622281619347632,0.0006441284203901887,0.0017700891476124525,-0.49843454360961914,0.19051474332809448,-9.782166481018066
1745650828.2933013,0.0017726973164826632,0.0014075083890929818,-0.00044482588418759406,-0.549578070640564,0.23100173473358154,-9.768594741821289
1745650828.2945716,-0.0018987760413438082,-0.002496546832844615,-0.0015648480039089918,-0.44151726365089417,0.23890440165996552,-9.762191772460938
1745650828.328983,0.0032820142805576324,0.0024472116492688656,0.00023748274543322623,-0.5590499043464661,0.2893941104412079,-9.796815872192383
1745650828.3324258,-0.0027291174046695232,1.6388856238336302e-05,0.0006027399795129895,-0.406174898147583,0.21801526844501495,-9.75697135925293
1745650828.3333473,0.0034129538107663393,-0.0009161025518551469,-0.0006614442099817097,-0.5363366007804871,0.32120901346206665,-9.769007682800293
1745650828.335123,0.0003712255565915257,0.002684367122128606,0.0003817156539298594,-0.4120860993862152,0.18127277493476868,-9.782445907592773
1745650828.3352497,0.0021275763865560293,-0.0017607187619432807,0.00010804941121023148,-0.44581007957458496,0.3172371983528137,-9.760320663452148
1745650828.3759606,0.005395767278969288,0.005041888915002346,0.0002795135660562664,-0.4614315629005432,0.20428180694580078,-9.798835754394531
1745650828.3789847,-0.00025193896726705134,-4.817207809537649e-05,-0.0008463310077786446,-0.39072784781455994,0.2704402208328247,-9.759021759033203
1745650828.3835702,0.007544584572315216,0.003434865502640605,0.0006154925213195384,-0.5041769742965698,0.25566989183425903,-9.8132905960083
1745650828.3855577,0.001390940509736538,0.0008294373983517289,-2.2623407858191058e-05,-0.3395084738731384,0.21311955153942108,-9.75870132446289
1745650828.4142065,0.004956558812409639,0.00013044066145084798,0.00048158076242543757,-0.5124751329421997,0.2929626703262329,-9.760077476501465
1745650828.416937,0.001344981836155057,0.0021880394779145718,-0.00025788560742512345,-0.3885577321052551,0.1614944338798523,-9.77769660949707
1745650828.4185436,0.0023862733505666256,-0.0006887214258313179,0.0005523604340851307,-0.48821496963500977,0.32019585371017456,-9.780604362487793
1745650828.4222443,0.0036286446265876293,0.0069405920803546906,0.0015272994060069323,-0.45742401480674744,0.1768648773431778,-9.793535232543945
1745650828.4264848,-0.000926604145206511,0.0005022784462198615,0.0015286564594134688,-0.4228629171848297,0.29575076699256897,-9.734548568725586
1745650828.4582865,0.0027759685181081295,0.004262185655534267,0.0027805424761027098,-0.5421802997589111,0.24140262603759766,-9.78837776184082
1745650828.4604442,-0.0028541595675051212,0.0017013016622513533,0.0011698133312165737,-0.40622392296791077,0.22278232872486115,-9.748739242553711
1745650828.461792,0.0024048699997365475,0.003395967883989215,0.0012839733390137553,-0.5948258638381958,0.30648690462112427,-9.758045196533203
1745650828.463941,-0.0027761247474700212,0.005482620559632778,0.0023360063787549734,-0.44336915016174316,0.1841183602809906,-9.733209609985352
1745650828.501534,0.00098909973166883,0.0008335349266417325,0.002243444789201021,-0.5619784593582153,0.3297474682331085,-9.765690803527832
1745650828.5022678,-0.0002680530888028443,0.00711063900962472,-6.096316428738646e-05,-0.5157681703567505,0.2148212492465973,-9.797592163085938
1745650828.502327,-0.0015262174420058727,0.001289257314056158,0.0031506535597145557,-0.504379153251648,0.3206847012042999,-9.728878021240234
1745650828.5102735,-0.0025455174036324024,0.004729182459414005,0.0011275894939899445,-0.45860743522644043,0.19045332074165344,-9.736425399780273
1745650828.512117,0.004989046603441238,0.002965081948786974,0.00045600993325933814,-0.5827903151512146,0.3467523157596588,-9.735276222229004
1745650828.5460584,-0.00011998768604826182,0.006862094160169363,0.0018388032913208008,-0.4843141436576843,0.16237057745456696,-9.761686325073242
1745650828.5478337,-0.0008954835939221084,0.0012393470387905836,0.0010542046511545777,-0.509759783744812,0.3321340084075928,-9.739707946777344
1745650828.5503683,0.0038571327459067106,0.007867320440709591,0.0020978909451514482,-0.5432239770889282,0.2054038792848587,-9.7771577835083
1745650828.552326,-0.003174183890223503,0.0036562238819897175,0.0009423598530702293,-0.42952316999435425,0.2474837750196457,-9.754593849182129
1745650828.5892544,0.0032670896034687757,0.005945389624685049,0.0017896650824695826,-0.5658042430877686,0.2528687119483948,-9.788899421691895
1745650828.594673,-0.005476713180541992,0.00431886175647378,0.003328271908685565,-0.3893651068210602,0.19238439202308655,-9.740175247192383
1745650828.5975485,0.002890894655138254,0.0042020780965685844,0.0015611490234732628,-0.5250101685523987,0.31847521662712097,-9.783706665039062
1745650828.6057017,-0.002775802742689848,0.00843384675681591,0.0015654027229174972,-0.405286967754364,0.17241647839546204,-9.788214683532715
1745650828.6313367,-0.0014251448446884751,0.0035533003974705935,0.0011562734143808484,-0.46266666054725647,0.2981117069721222,-9.753252983093262
1745650828.6344981,0.0008851634338498116,0.008361522108316422,0.0023586328607052565,-0.44406038522720337,0.1884206235408783,-9.777755737304688
1745650828.6409116,-0.0029795055743306875,0.001097697066143155,0.00015644433733541518,-0.3863407075405121,0.2744748592376709,-9.772956848144531
1745650828.6442466,0.00398822408169508,-0.002261531073600054,-0.00036723114317283034,-0.45160847902297974,0.3231123089790344,-9.76563835144043
1745650828.6767254,0.002181336050853133,0.0015308319125324488,-0.0006324916030280292,-0.42988961935043335,0.18012785911560059,-9.784401893615723
1745650828.676825,0.0012518612202256918,-0.002495479304343462,0.0006910492666065693,-0.41492947936058044,0.29252874851226807,-9.768948554992676
1745650828.6768777,0.005700952839106321,0.0005414029583334923,-0.0007225213339552283,-0.509057343006134,0.24656131863594055,-9.842508316040039
1745650828.6791136,-0.0009728228906169534,-0.002386935520917177,0.00097230653045699,-0.3590235412120819,0.23421034216880798,-9.768852233886719
1745650828.6812892,0.005365124437958002,-0.001559052150696516,0.00040809056372381747,-0.5638453364372253,0.2952595353126526,-9.776530265808105
1745650828.7173662,0.0014825782272964716,-0.00033884478034451604,0.0010240769479423761,-0.40948790311813354,0.20183217525482178,-9.810626029968262
1745650828.7185047,0.004175321198999882,-0.0045762257650494576,0.002142543438822031,-0.5219654440879822,0.32561931014060974,-9.772759437561035
1745650828.7219007,0.004077434539794922,-2.6154239094466902e-05,-0.0022093956358730793,-0.46134090423583984,0.18629388511180878,-9.773188591003418
1745650828.7241025,0.0005048738676123321,-0.0046049850061535835,0.002579899039119482,-0.47229862213134766,0.30358055233955383,-9.744532585144043
1745650828.760521,0.00609014555811882,-0.0029955857899039984,1.56554851855617e-05,-0.5314805507659912,0.2227185070514679,-9.814125061035156
1745650828.7624204,-0.0004695419338531792,-0.0053672813810408115,0.0006438332493416965,-0.4154340624809265,0.24639873206615448,-9.75672721862793
1745650828.7703998,0.005150666926056147,-0.0028008411172777414,-0.0003623511001933366,-0.5745614767074585,0.28379684686660767,-9.770723342895508
1745650828.770468,-0.0003537322918418795,-0.003110027639195323,0.001132069737650454,-0.41397491097450256,0.1908349096775055,-9.747429847717285
1745650828.7705345,0.001523839309811592,-0.006406812462955713,0.0006681454251520336,-0.5523947477340698,0.33958864212036133,-9.792412757873535
1745650828.8026986,0.0011954859364777803,-0.0021530366502702236,0.0004905410460196435,-0.4512248933315277,0.17832615971565247,-9.791875839233398
1745650828.807138,-0.0010280567221343517,-0.006292238831520081,0.0006031321245245636,-0.4754118025302887,0.3206256330013275,-9.726876258850098
1745650828.81322,0.004223442170768976,-0.0032297540456056595,-0.0006120142643339932,-0.49809956550598145,0.21888966858386993,-9.78678035736084
1745650828.8154926,-0.0018883200827986002,-0.005707670468837023,-0.0007149678422138095,-0.4050673842430115,0.26639658212661743,-9.776684761047363
1745650828.8475974,0.005259370896965265,-0.0040289112366735935,0.0011544107692316175,-0.5345977544784546,0.2917081415653229,-9.798125267028809
1745650828.849969,-0.002472520340234041,-0.0036354560870677233,-0.00031880420283414423,-0.37525156140327454,0.21349942684173584,-9.760509490966797
1745650828.8514354,0.005451978649944067,-0.005905980709940195,-0.0016732371877878904,-0.5363137125968933,0.32486990094184875,-9.805419921875
1745650828.8548057,0.0003430092765484005,-0.0036407564766705036,0.0018995195860043168,-0.39233699440956116,0.17498567700386047,-9.800193786621094
1745650828.8890839,0.005504119209945202,-0.002474151086062193,0.0007705394527874887,-0.4610857367515564,0.19812767207622528,-9.797625541687012
1745650828.8917735,0.0021602094639092684,-0.006688219960778952,3.579611802706495e-05,-0.4157305359840393,0.28331801295280457,-9.764762878417969
1745650828.8927562,0.005110002588480711,-0.004515235777944326,-0.0002612333628349006,-0.5015903115272522,0.2442302405834198,-9.80672550201416
1745650828.8948462,-0.0007511012372560799,-0.004935544449836016,0.0006897913408465683,-0.3594992160797119,0.21515782177448273,-9.744665145874023
1745650828.935731,0.006119917146861553,-0.004897275939583778,0.0019423628691583872,-0.5304325222969055,0.3062739968299866,-9.771186828613281
1745650828.9358406,0.0029614318627864122,-0.0017997401300817728,0.0012015231186524034,-0.3957604467868805,0.1838855743408203,-9.795880317687988
1745650828.9400594,0.003703037276864052,-0.006366295274347067,0.0005177903803996742,-0.5003863573074341,0.33335214853286743,-9.74915599822998
1745650828.9449203,0.0033717129845172167,-0.0030040566343814135,0.0018182536587119102,-0.4687606394290924,0.19478243589401245,-9.767629623413086
1745650828.9739873,-0.0007498400518670678,-0.005473921541124582,0.001098461216315627,-0.4259679317474365,0.30194154381752014,-9.756787300109863
1745650828.97656,0.0065259775146842,-0.0021783672273159027,0.0012961806496605277,-0.5407275557518005,0.2407204657793045,-9.790765762329102
1745650828.9802182,-0.000849447853397578,-0.00535946199670434,0.0017497746739536524,-0.4028039574623108,0.2483994960784912,-9.749171257019043
1745650828.982963,0.0061764041893184185,-0.0042520430870354176,0.0005745819071307778,-0.5688135027885437,0.2901403307914734,-9.755474090576172
1745650829.0177975,0.004991629626601934,0.000638102472294122,0.0017802364891394973,-0.5592352151870728,0.2734249234199524,-9.779626846313477
1745650829.0203373,-0.00026150402845814824,0.0004867849056608975,0.0004985936684533954,-0.40268105268478394,0.1913292407989502,-9.763193130493164
1745650829.0214727,0.0033748268615454435,-0.00039081642171368003,-0.0013318149140104651,-0.5369166135787964,0.31923237442970276,-9.777925491333008
1745650829.0247707,0.003603147342801094,0.002729614730924368,0.0034855492413043976,-0.4377347528934479,0.16833415627479553,-9.787482261657715
1745650829.0258288,-6.773359928047284e-05,-0.0022468825336545706,0.0006169810076244175,-0.4804142117500305,0.3038027286529541,-9.741437911987305
1745650829.063953,0.005456949584186077,0.003590331645682454,0.0003678856883198023,-0.49070149660110474,0.21225395798683167,-9.7918119430542
1745650829.0657592,-5.241054896032438e-05,-0.0018370837206020951,-0.0002334197488380596,-0.40842047333717346,0.2548466920852661,-9.771925926208496
1745650829.0693178,0.005830627866089344,0.0018772926414385438,0.002257062355056405,-0.5306006669998169,0.2908441424369812,-9.800522804260254
1745650829.0710888,0.0018262166995555162,9.168461110675707e-05,0.00019091104331891984,-0.3779202103614807,0.21177855134010315,-9.758584976196289
1745650829.1351898,0.005336292553693056,-0.0011409928556531668,0.0013858017046004534,-0.5187293887138367,0.296606183052063,-9.781097412109375
1745650829.135288,0.004731384105980396,0.001803473918698728,-0.0009643452940508723,-0.3933945894241333,0.19396618008613586,-9.78195858001709
1745650829.135404,0.0034508020617067814,-0.0024921910371631384,5.537063043448143e-05,-0.4546791911125183,0.3150184750556946,-9.765640258789062
1745650829.1482568,0.006538406014442444,0.0009748109732754529,-0.0015377033269032836,-0.4618929922580719,0.16395486891269684,-9.792367935180664
1745650829.1958761,0.0005632356624118984,-0.0023367758840322495,0.0009406548924744129,-0.4151080548763275,0.29161590337753296,-9.755000114440918
1745650829.197727,0.007972626015543938,0.003033800283446908,-0.00034211119054816663,-0.5114275217056274,0.22262172400951385,-9.813665390014648
1745650829.1998124,0.0009313593618571758,-0.0035668325144797564,-0.0004434660077095032,-0.3690813183784485,0.2138681411743164,-9.765214920043945
1745650829.2016172,0.006150670815259218,0.00036549396463669837,-0.000857716309837997,-0.5351883172988892,0.3006581664085388,-9.790913581848145
1745650829.20374,0.00273445388302207,0.0009119710884988308,-3.606187965488061e-05,-0.39455240964889526,0.15759889781475067,-9.776552200317383
1745650829.2556567,0.0030354091431945562,-0.0024574249982833862,0.0005737785249948502,-0.4917479455471039,0.31233301758766174,-9.760602951049805
1745650829.2557817,0.003397925989702344,0.0008207531645894051,-0.0004937628982588649,-0.45862317085266113,0.17539818584918976,-9.800971031188965
1745650829.255838,0.0008581479196436703,-0.004841563291847706,0.0010111115407198668,-0.45275169610977173,0.29619866609573364,-9.749120712280273
1745650829.2690816,0.005047403275966644,0.0008068621973507106,0.0007702650618739426,-0.5296270251274109,0.22171537578105927,-9.792075157165527
1745650829.2697687,-0.00040964974323287606,-0.0024206587113440037,0.0002950076595880091,-0.4126564562320709,0.24034447968006134,-9.770195960998535
1745650829.2698758,0.004129290580749512,-0.0008394325850531459,0.000554421916604042,-0.5543345212936401,0.3119392395019531,-9.793166160583496
1745650829.2699254,0.00021764538541901857,-0.0018167417729273438,0.0001844835642259568,-0.38940495252609253,0.18824025988578796,-9.755823135375977
1745650829.2754002,0.003931940998882055,-0.0035417266190052032,-0.0009985986398532987,-0.5262009501457214,0.32832735776901245,-9.769532203674316
1745650829.321682,0.004330179654061794,4.555021951091476e-05,0.0010172507027164102,-0.4471752643585205,0.17793694138526917,-9.772333145141602
1745650829.3427439,0.0010396814905107021,-0.004564047325402498,-0.0003143769281450659,-0.4679935574531555,0.31468960642814636,-9.75739860534668
1745650829.4105618,0.007163210306316614,-0.0011666477657854557,0.0007502142107114196,-0.5043939352035522,0.2188796103000641,-9.813480377197266
1745650829.430026,-0.000243643851717934,-0.005304715596139431,0.0014316703891381621,-0.4145723283290863,0.28504809737205505,-9.73705005645752
1745650829.4329343,0.006000536028295755,-0.0021127588115632534,0.0008000273373909295,-0.5339815616607666,0.27198269963264465,-9.775403022766113
1745650829.4375014,7.445072697009891e-05,-0.002370194997638464,-0.00324628921225667,-0.39292022585868835,0.1894102394580841,-9.773187637329102
1745650829.453613,0.004999993834644556,-0.0035839728079736233,0.0029801700729876757,-0.5290106534957886,0.3253328800201416,-9.768827438354492
1745650829.4590886,0.003261671168729663,-0.001692022429779172,-0.0012007443001493812,-0.3977378010749817,0.16135594248771667,-9.776317596435547
1745650829.4745817,0.0005155206890776753,-0.005532893352210522,0.0009884024038910866,-0.45645079016685486,0.3174489140510559,-9.778488159179688
1745650829.483667,0.004529234953224659,-0.0012630712008103728,0.00025896058650687337,-0.47040843963623047,0.20245623588562012,-9.791831970214844
1745650829.493403,0.0022982521913945675,-0.0028169865254312754,0.0016784670297056437,-0.40532535314559937,0.18575462698936462,-9.784306526184082
1745650829.5017674,0.0036244771908968687,-0.006035747472196817,0.001306618214584887,-0.5188306570053101,0.320028156042099,-9.763204574584961
1745650829.5018504,0.004164075944572687,-0.0026472515892237425,0.0014920250978320837,-0.47316232323646545,0.17522163689136505,-9.79383659362793
1745650829.5018947,0.0021297845523804426,-0.006932205054908991,0.002312829252332449,-0.4500126242637634,0.3025115132331848,-9.748994827270508
1745650829.505679,0.0057713957503438,-0.0037266723811626434,0.0010994678596034646,-0.539321780204773,0.2178218811750412,-9.783288955688477
1745650829.5228906,7.144342816900462e-05,-0.003667062148451805,0.003205854445695877,-0.4122711718082428,0.2506933808326721,-9.744547843933105
1745650829.5229964,0.005899418145418167,-0.005478783044964075,0.0019091765861958265,-0.5746029019355774,0.285386860370636,-9.782609939575195
1745650829.5246964,0.00027128736837767065,-0.0025543863885104656,0.002570417011156678,-0.41777491569519043,0.19272780418395996,-9.782774925231934
1745650829.5265481,0.006195372901856899,-0.005796889774501324,0.002449031686410308,-0.5632481575012207,0.320787250995636,-9.780932426452637
1745650829.5266142,0.003514505224302411,-0.001124776666983962,0.001530986512079835,-0.47481948137283325,0.17959046363830566,-9.761157035827637
1745650829.5481534,0.0013688629260286689,-0.00791485421359539,0.0029512986075133085,-0.49259597063064575,0.3317234516143799,-9.730352401733398
1745650829.5502226,0.006538667716085911,-0.002535348292440176,-0.0006483973702415824,-0.5577533841133118,0.20702941715717316,-9.80299186706543
1745650829.550986,3.2745767839514883e-06,-0.004348413087427616,0.0030710764694958925,-0.44256648421287537,0.24724626541137695,-9.767515182495117
1745650829.5520499,0.0073268176056444645,-0.0037253485061228275,0.0018615241860970855,-0.5907399654388428,0.2965773940086365,-9.783230781555176
1745650829.5551376,0.0016070154961198568,-0.004333181772381067,0.0018385866424068809,-0.430785596370697,0.20677682757377625,-9.751367568969727
1745650829.5632508,0.0029949869494885206,-0.006191137712448835,0.0018264533719047904,-0.5639091730117798,0.29892200231552124,-9.789373397827148
1745650829.5729973,0.0030844626016914845,-0.000168766055139713,0.002119994955137372,-0.4748770296573639,0.20213857293128967,-9.794756889343262
1745650829.5853524,0.002359820529818535,-0.004364685155451298,9.529622184345499e-05,-0.5056599378585815,0.28461211919784546,-9.74828052520752
1745650829.5948908,0.00480054784566164,-0.0011435484047979116,0.0016685875598341227,-0.5305930376052856,0.23164322972297668,-9.774584770202637
1745650829.5949664,-0.00011187423660885543,-0.004324628040194511,0.002213874598965049,-0.43289369344711304,0.2547612488269806,-9.777931213378906
1745650829.5950184,0.006767717655748129,0.00030262203654274344,0.002003877889364958,-0.5622689127922058,0.27052992582321167,-9.813583374023438
1745650829.5963533,0.001640173839405179,-0.0023946077562868595,0.0017541877459734678,-0.40242648124694824,0.1935577690601349,-9.735517501831055
1745650829.5987225,0.0023367602843791246,-0.00490932259708643,0.002673318376764655,-0.5403021574020386,0.30230894684791565,-9.757646560668945
1745650829.6003547,0.004815800581127405,0.0012316368520259857,0.003168794559314847,-0.49284371733665466,0.21680006384849548,-9.785572052001953
1745650829.6031847,0.0007919875206425786,-0.0022448033560067415,0.002869516611099243,-0.44379138946533203,0.2367093861103058,-9.793373107910156
1745650829.6222239,0.005235828924924135,0.0006452528177760541,0.0018279844662174582,-0.5452903509140015,0.2579675614833832,-9.81309700012207
1745650829.6252697,0.0024250498972833157,-0.002654470968991518,0.0002563689777161926,-0.4132491648197174,0.1904315948486328,-9.759417533874512
1745650829.6280184,0.0014334373408928514,0.00010952274169540033,0.0021993075497448444,-0.5504276156425476,0.2857872247695923,-9.771392822265625
1745650829.6296346,0.004379829857498407,-0.00024282760568894446,0.0026225124020129442,-0.4262097477912903,0.2045634239912033,-9.784531593322754
1745650829.666877,0.000791028724052012,-0.0012960458407178521,0.0011119289556518197,-0.5044383406639099,0.27381953597068787,-9.804365158081055
1745650829.6670158,0.0039635528810322285,0.001534892711788416,0.0016578994691371918,-0.5130268335342407,0.23152323067188263,-9.806750297546387
1745650829.6682317,0.0031341377180069685,-0.0018272887682542205,0.0035284780897200108,-0.44884490966796875,0.24388441443443298,-9.750147819519043
1745650829.6743689,0.004875116981565952,0.0010301232105121017,-0.0001648201432544738,-0.5455769896507263,0.25140905380249023,-9.777008056640625
1745650829.6744084,0.0019914652220904827,-0.0001509076973889023,0.0012262255186215043,-0.41682305932044983,0.2134900540113449,-9.790054321289062
1745650829.7071826,0.002919525373727083,0.0008260274189524353,0.0023551280610263348,-0.5790278315544128,0.3024428188800812,-9.78889274597168
1745650829.7097065,0.005175423342734575,-0.0005283189821057022,2.5371487936354242e-05,-0.4438255727291107,0.205911785364151,-9.75200080871582
1745650829.7129812,0.004074246622622013,0.001150650903582573,9.592164133209735e-05,-0.5698171854019165,0.2377529889345169,-9.75341510772705
1745650829.7165117,-0.0005893846973776817,-0.0015704401303082705,0.0007520400686189532,-0.3972962200641632,0.21295449137687683,-9.748682022094727
1745650829.7480571,0.0026297704316675663,-1.723396053421311e-05,0.0013707177713513374,-0.57209312915802,0.30085238814353943,-9.776118278503418
1745650829.7508082,0.00039926645695231855,0.0019945413805544376,0.00035125267459079623,-0.4247535765171051,0.18360203504562378,-9.759099006652832
1745650829.759845,-0.00016697573300916702,-0.0029076600912958384,0.0007833299459889531,-0.5104138255119324,0.307559072971344,-9.752551078796387
1745650829.7599258,0.004050017800182104,0.0012958894949406385,0.0005852056201547384,-0.4921468198299408,0.19379320740699768,-9.787896156311035
1745650829.7599666,-0.0025660875253379345,-0.0015903629828244448,0.0002783917007036507,-0.43386000394821167,0.2751181125640869,-9.731656074523926
1745650829.7939653,0.004806474782526493,0.0005732547724619508,0.0011234651319682598,-0.5400115251541138,0.2514644265174866,-9.7805757522583
1745650829.796316,-0.0017506188014522195,-0.002924742177128792,-0.00018482530140317976,-0.39928629994392395,0.2289070188999176,-9.763726234436035
1745650829.7983491,0.005184650421142578,-0.0016607011202722788,-0.0010807298822328448,-0.5520882606506348,0.3306727111339569,-9.779289245605469
1745650829.800351,0.0014508292078971863,-0.0009352270280942321,0.0006554428255185485,-0.40994301438331604,0.1745128184556961,-9.767024993896484
1745650829.8346572,0.004923686850816011,-0.00372777646407485,-0.00032535201171413064,-0.5132835507392883,0.33231884241104126,-9.747386932373047
1745650829.8382556,0.004690694622695446,-0.0002606571069918573,0.00022410904057323933,-0.46628719568252563,0.20476491749286652,-9.763731002807617
1745650829.8402526,0.0013710260391235352,-0.005533028393983841,-0.0009559877216815948,-0.41122692823410034,0.26076892018318176,-9.734728813171387
1745650829.8440378,0.006214279215782881,0.0007918993942439556,-0.0021566066425293684,-0.5127184391021729,0.2404370754957199,-9.793173789978027
1745650829.8452072,0.0011496525257825851,-0.004586756229400635,-0.0018034164095297456,-0.3809661865234375,0.19651491940021515,-9.765727996826172
1745650829.8799973,0.006820362992584705,-0.0025148452259600163,1.66962381626945e-05,-0.5274470448493958,0.2704775929450989,-9.802789688110352
1745650829.882588,6.48125060251914e-05,-0.002841056091710925,0.00017133723304141313,-0.3764333128929138,0.16593241691589355,-9.778271675109863
1745650829.8851686,0.004504312761127949,-0.004969180561602116,-0.001098833978176117,-0.47899848222732544,0.2888006567955017,-9.746183395385742
1745650829.9204435,0.0009063147008419037,-0.0028662800323218107,0.00024608802050352097,-0.43115153908729553,0.17199242115020752,-9.770668029785156
1745650829.9241765,0.001674031838774681,-0.0073311785236001015,0.0009974613785743713,-0.4142306447029114,0.29289212822914124,-9.766404151916504
1745650829.925816,0.004756740760058165,-0.001394726918078959,0.0001575872884131968,-0.5044694542884827,0.2511821389198303,-9.79173469543457
1745650829.9291022,0.0027695526368916035,-0.007672738283872604,0.00041178101673722267,-0.5082203149795532,0.3351048529148102,-9.76335620880127
1745650829.9644291,0.0061422428116202354,-0.001433140248991549,-0.00074868428055197,-0.4496559500694275,0.1970858871936798,-9.78972053527832
1745650829.9687026,0.0013496004976332188,-0.007759268395602703,0.0009180602501146495,-0.4592488706111908,0.2835514545440674,-9.720881462097168
1745650829.9728985,0.0073538124561309814,-0.003868095576763153,-0.0006974538555368781,-0.5397511720657349,0.21725773811340332,-9.770263671875
1745650829.9754276,0.002120981691405177,-0.0067336102947592735,0.0006321835680864751,-0.4285847544670105,0.23880915343761444,-9.754709243774414
1745650829.9789023,0.008040507324039936,-0.007709628436714411,0.0004686399479396641,-0.5915161967277527,0.2720838189125061,-9.767867088317871
1745650830.0091941,0.002731447806581855,-0.0040456373244524,0.0007397034205496311,-0.44062885642051697,0.17417755722999573,-9.738996505737305
1745650830.011874,0.0032198086846619844,-0.008354835212230682,0.0028601044323295355,-0.5489933490753174,0.2985140085220337,-9.754388809204102
1745650830.0155056,0.0030904586892575026,-0.002820130903273821,0.0010098690399900079,-0.4797784388065338,0.1717223823070526,-9.789447784423828
1745650830.0207593,0.0012410818599164486,-0.008869457989931107,0.0015687465202063322,-0.5072750449180603,0.2987896502017975,-9.76242446899414
1745650830.0529265,0.0047801174223423,-0.004636938683688641,0.0013558787759393454,-0.5373765230178833,0.2145450860261917,-9.790168762207031
1745650830.0529993,-0.0019020093604922295,-0.008041813969612122,0.001591559499502182,-0.427746444940567,0.24200591444969177,-9.737669944763184
1745650830.0553308,0.00417194003239274,-0.005480506457388401,0.0010400523897260427,-0.5705353617668152,0.29207533597946167,-9.779105186462402
1745650830.0569565,-0.004603850655257702,0.011944012716412544,0.0013931533321738243,-0.524429440498352,0.20061790943145752,-9.76793098449707
1745650830.0951962,-0.006923407316207886,0.010178712196648121,0.0016159822698682547,-0.4931766986846924,0.2878113389015198,-9.740042686462402
1745650830.096484,-0.004032941535115242,0.014163883402943611,0.001578163937665522,-0.5613124966621399,0.2652346193790436,-9.773159980773926
1745650830.0987453,-0.008763067424297333,0.011510135605931282,0.0027259071357548237,-0.42162877321243286,0.24670633673667908,-9.747306823730469
1745650830.1021817,-0.0031635663472115993,0.014232045039534569,0.0014111732598394156,-0.5742691159248352,0.32264167070388794,-9.768884658813477
1745650830.135545,-0.008550142869353294,0.014621864072978497,0.002920466009527445,-0.42785876989364624,0.20626318454742432,-9.753867149353027
1745650830.1399434,-0.0024696658365428448,0.013812558725476265,0.002226542215794325,-0.5350271463394165,0.32403793931007385,-9.779998779296875
1745650830.1429029,-0.003781228791922331,0.017332395538687706,0.001326320692896843,-0.45029106736183167,0.19298532605171204,-9.77297306060791
1745650830.1452992,-0.006435429211705923,0.014292187988758087,0.0019392318790778518,-0.4704219698905945,0.31820791959762573,-9.762715339660645
1745650830.147764,-0.0010915837483480573,0.017024731263518333,0.0024122935719788074,-0.5249546766281128,0.24286894500255585,-9.81606388092041
1745650830.1884854,-0.005293138790875673,0.015973597764968872,0.0018300123047083616,-0.3964858651161194,0.26776933670043945,-9.768582344055176
1745650830.1908114,0.0018047734629362822,0.017087731510400772,0.0006400578422471881,-0.540876030921936,0.3039521276950836,-9.77032470703125
1745650830.193273,-0.0032441976945847273,0.01474666129797697,0.002803055103868246,-0.39087772369384766,0.2384839504957199,-9.784309387207031
1745650830.1949816,0.0013729269849136472,0.017106004059314728,0.001273886882700026,-0.5321860313415527,0.3645373582839966,-9.78624153137207
1745650830.2213762,0.0002599312865640968,0.018419325351715088,0.0011333904694765806,-0.44472694396972656,0.21187551319599152,-9.780535697937012
1745650830.2240565,0.0010628922609612346,0.014774496667087078,0.003048264654353261,-0.49027228355407715,0.3630273938179016,-9.766650199890137
1745650830.2266715,0.006762984208762646,0.018232684582471848,-0.0006195191526785493,-0.5227984189987183,0.22934143245220184,-9.801777839660645
1745650830.228185,0.0010486604878678918,0.014476358890533447,0.0006781528354622424,-0.43857088685035706,0.29851871728897095,-9.764667510986328
1745650830.231608,0.009258255362510681,0.016160499304533005,0.0022182664833962917,-0.5656141042709351,0.30117297172546387,-9.802355766296387
1745650830.2680478,0.002510637044906616,0.014810679480433464,0.001413619378581643,-0.40761351585388184,0.22002756595611572,-9.769485473632812
1745650830.2709074,0.005837264936417341,0.014007143676280975,-0.0014557770919054747,-0.5421789884567261,0.3180793821811676,-9.79012680053711
1745650830.2728102,0.004004937130957842,0.015558294951915741,0.00022745416208636016,-0.4465509355068207,0.1835392415523529,-9.81785774230957
1745650830.277463,0.0012422807049006224,0.013406057842075825,-0.00020242083701305091,-0.4830750524997711,0.31944793462753296,-9.76524543762207
1745650830.3089514,-0.0012047693599015474,0.010878761298954487,0.0022397644352167845,-0.36499258875846863,0.20733758807182312,-9.782188415527344
1745650830.3121,0.003841295838356018,0.010667772963643074,0.0013269750634208322,-0.5120893120765686,0.3174506723880768,-9.799527168273926
1745650830.313765,0.0026192967779934406,0.010322419926524162,0.0015265749534592032,-0.37951818108558655,0.20197799801826477,-9.801504135131836
1745650830.3162928,0.0033570132218301296,0.0072417170740664005,0.0023373046424239874,-0.43809404969215393,0.3607843816280365,-9.806636810302734
1745650830.3187618,0.006557668559253216,0.011600762605667114,0.001214989461004734,-0.39930421113967896,0.22973616421222687,-9.847675323486328
1745650830.353924,0.0016427971422672272,0.006529408507049084,0.00013367571227718145,-0.33972805738449097,0.3142671585083008,-9.788076400756836
1745650830.357131,0.008923952467739582,0.008812508545815945,7.907654799055308e-05,-0.4595119059085846,0.2807936668395996,-9.835005760192871
1745650830.3612244,0.004109920468181372,0.008139192126691341,0.0008123285369947553,-0.2956715226173401,0.24857668578624725,-9.799838066101074
1745650830.3642044,0.011974486522376537,0.0064080641604959965,0.0016097765183076262,-0.4401818811893463,0.31935930252075195,-9.823182106018066
1745650830.3965788,0.005950610619038343,0.0054345210082829,-0.0004825218056794256,-0.2993479371070862,0.18445953726768494,-9.794358253479004
1745650830.3968592,0.010524754412472248,0.002475488930940628,0.002544994931668043,-0.40167516469955444,0.30509519577026367,-9.805477142333984
1745650830.3995268,0.009571369737386703,0.0074774459935724735,0.0017144853482022882,-0.3816206455230713,0.17620015144348145,-9.863581657409668
1745650830.40074,0.005122636444866657,0.0014517316594719887,0.002096910495311022,-0.3595615029335022,0.2748238146305084,-9.802865982055664
1745650830.4387732,0.003803722560405731,-0.01021720189601183,-0.0003039455332327634,-0.5536714196205139,0.2899357080459595,-9.768290519714355
1745650830.441585,0.0038792863488197327,-0.006441974546760321,-0.0024278941564261913,-0.4302213191986084,0.1972036361694336,-9.736221313476562
1745650830.441704,0.0005275920266285539,-0.010093128308653831,-0.001381943584419787,-0.5230056047439575,0.2571655809879303,-9.74594497680664
1745650830.442338,0.004207975696772337,-0.004751404747366905,-0.0005392542807385325,-0.5020112991333008,0.21494893729686737,-9.731498718261719
1745650830.4795825,0.000982690486125648,-0.00941203348338604,-0.0019086997490376234,-0.46831899881362915,0.23575082421302795,-9.72779655456543
1745650830.483481,0.0032432402949780226,-0.003939525224268436,0.0001678331318544224,-0.5668229460716248,0.24160881340503693,-9.767084121704102
1745650830.4848733,-0.00040179560892283916,-0.006633084267377853,-0.003010071814060211,-0.4515019953250885,0.19166895747184753,-9.699904441833496
1745650830.486466,0.0002777045301627368,-0.006726623512804508,-0.0015335794305428863,-0.5997939705848694,0.2689182460308075,-9.732344627380371
1745650830.4880235,0.0008096272358670831,-0.004669130779802799,-0.0004072277224622667,-0.45689788460731506,0.19071276485919952,-9.741194725036621
1745650830.5249135,-0.0029874672181904316,-0.004369878675788641,-0.0019053410505875945,-0.5785199999809265,0.273224413394928,-9.758474349975586
1745650830.5278802,0.0024631298147141933,-0.0016266111051663756,-0.0013128307182341814,-0.5190101861953735,0.23006948828697205,-9.712061882019043
1745650830.5289965,-0.0046064890921115875,-0.005475159268826246,-0.0008817507768981159,-0.5200787782669067,0.2612505853176117,-9.716696739196777
1745650830.533828,0.0014467996079474688,0.0001549593871459365,-0.0011743996292352676,-0.5777363181114197,0.26510506868362427,-9.754892349243164
1745650830.56628,-0.004412906244397163,-0.0033235345035791397,1.4802999430685304e-05,-0.4727317690849304,0.2367132157087326,-9.723027229309082
1745650830.57082,-0.0009644588571973145,-0.001164962537586689,-0.0007613557972945273,-0.6155717968940735,0.2817302644252777,-9.723932266235352
1745650830.5748467,-0.003283285303041339,-0.002610672963783145,-0.0024664204102009535,-0.45641598105430603,0.2111237496137619,-9.719928741455078
1745650830.5799646,-0.0012660340871661901,-0.0005846627755090594,0.00012935008271597326,-0.5915936231613159,0.3008391857147217,-9.759450912475586
1745650830.5850596,-0.0003848049964290112,0.0029624111484736204,-0.0023163501173257828,-0.496492475271225,0.21642270684242249,-9.745492935180664
1745650830.6089518,-0.004158375319093466,-0.002036448335275054,-0.001313455170020461,-0.52410489320755,0.3046180307865143,-9.707411766052246
1745650830.6098335,0.0010371895041316748,0.004584402311593294,0.0003647719568107277,-0.5481622815132141,0.2545848488807678,-9.758100509643555
1745650830.6202927,-0.003678933484479785,-0.0021080011501908302,-0.0014985499437898397,-0.45498818159103394,0.2657633423805237,-9.722639083862305
1745650830.6203275,0.0008218439179472625,0.0038418942131102085,-0.0007802145555615425,-0.5767849683761597,0.3134777247905731,-9.75278091430664
1745650830.6572127,0.00441296212375164,0.006211807020008564,-0.00278678466565907,-0.4854332506656647,0.22134122252464294,-9.773782730102539
1745650830.6613123,-0.0019106488907709718,-0.0003583675133995712,-0.002223288407549262,-0.3943476378917694,0.3006964325904846,-9.7547607421875
1745650830.6637328,0.005631346721202135,0.0052688755095005035,-0.0010548767168074846,-0.5085721611976624,0.2813999056816101,-9.811162948608398
1745650830.666445,-0.0029008130077272654,0.0031828240025788546,-0.003164591733366251,-0.3553360402584076,0.2207326889038086,-9.763397216796875
1745650830.6962457,0.003823366714641452,0.004442066885530949,-0.002842992078512907,-0.5231499671936035,0.31899726390838623,-9.779731750488281
1745650830.6980476,-0.00033191536203958094,0.0035120758693665266,-0.0027970620431005955,-0.39397838711738586,0.18228879570960999,-9.799530982971191
1745650830.6990159,0.0024368048179894686,0.0013118201168254018,-1.8029011698672548e-05,-0.45812076330184937,0.33334046602249146,-9.763461112976074
1745650830.7012205,0.0032488717697560787,0.00616238359361887,-0.0016790973022580147,-0.4264806807041168,0.19315505027770996,-9.776053428649902
1745650830.738164,-0.0024011998903006315,0.0007522412342950702,-0.0008297899039462209,-0.3950175940990448,0.3181988596916199,-9.76267147064209
1745650830.7407756,0.0035168430767953396,0.004878020845353603,0.0002937568642664701,-0.5008202791213989,0.26979365944862366,-9.810591697692871
1745650830.7431254,-0.0013954240130260587,0.002856950741261244,-0.0004514968895819038,-0.35568684339523315,0.2560606598854065,-9.769753456115723
1745650830.743842,0.004244963638484478,0.0017594980308786035,-0.0002662737970240414,-0.5239879488945007,0.3297199010848999,-9.7736234664917
1745650830.7461047,0.0007428915705531836,0.0040134890004992485,0.0014289857354015112,-0.37862473726272583,0.22764846682548523,-9.75860595703125
1745650830.7842357,0.004148154519498348,0.0017629126086831093,0.00019365831394679844,-0.5030123591423035,0.3617919087409973,-9.793383598327637
1745650830.7849393,0.007369425147771835,-0.0037108841352164745,0.0033563326578587294,-0.4922598898410797,0.15122894942760468,-9.800138473510742
1745650830.7904317,0.0004429479595273733,-0.010346787050366402,0.004250785801559687,-0.5064939260482788,0.25994521379470825,-9.771867752075195
1745650830.7906177,0.006538363639265299,-0.003602260258048773,0.003065554890781641,-0.595779538154602,0.19050951302051544,-9.798460960388184
1745650830.8251674,-0.0015710026491433382,-0.00711700227111578,0.005565991159528494,-0.50087970495224,0.22659698128700256,-9.707801818847656
1745650830.8288798,0.003237857250496745,-0.006645756773650646,0.0037995832972228527,-0.6610304713249207,0.22640696167945862,-9.729937553405762
1745650830.8334928,-0.0022926530800759792,-0.004859991371631622,0.005797768943011761,-0.5286523699760437,0.17826831340789795,-9.7269868850708
1745650830.8337533,-0.0020945698488503695,-0.0051860325038433075,0.007179779466241598,-0.6512539386749268,0.2668039798736572,-9.76403522491455
1745650830.8778715,-0.0004979652585461736,-0.002723130863159895,0.005309438798576593,-0.5489432215690613,0.18621185421943665,-9.783235549926758
1745650830.8797052,-0.004215316381305456,-0.007167833391577005,0.003523111343383789,-0.5589295625686646,0.26616692543029785,-9.76309585571289
1745650830.8837473,-0.0015534681733697653,-0.00228203646838665,0.0051041580736637115,-0.6176671385765076,0.2498866617679596,-9.759665489196777
1745650830.8902175,-0.004439487587660551,-0.005662441253662109,0.00611963402479887,-0.49783429503440857,0.21116574108600616,-9.754140853881836
1745650830.912241,-0.0003524934872984886,-0.0031793308444321156,0.0026851980946958065,-0.6268938183784485,0.3258252441883087,-9.775609016418457
1745650830.9137945,-0.0018438544357195497,-0.0049627539701759815,0.0026179817505180836,-0.46064814925193787,0.21001295745372772,-9.758716583251953
1745650830.916551,-0.001104174880310893,-0.0041790856048464775,0.002065519569441676,-0.5803908705711365,0.29391902685165405,-9.780607223510742
1745650830.917617,0.0009569855174049735,-0.0005325297242961824,0.0031081163324415684,-0.49354487657546997,0.2264457643032074,-9.782018661499023
1745650830.920658,-0.000830886245239526,-0.005358358379453421,-0.0003146802191622555,-0.47932323813438416,0.2450745552778244,-9.750940322875977
1745650830.956425,0.00384511798620224,-0.0004033707082271576,0.00022560104844160378,-0.4846561551094055,0.24928903579711914,-9.793620109558105
1745650830.9580607,-0.00023279660672415048,-0.0024741545785218477,0.000892961397767067,-0.3833305835723877,0.23017200827598572,-9.797159194946289
1745650830.96227,0.00269929482601583,-0.0018955692648887634,-0.0016051015118137002,-0.5149675011634827,0.29505911469459534,-9.800539016723633
1745650830.963736,0.004508687648922205,-0.002549129305407405,0.0009821305284276605,-0.35867252945899963,0.20098832249641418,-9.764838218688965
1745650830.9969585,0.003695926396176219,-0.002171918749809265,-0.0008559607667848468,-0.47329360246658325,0.285259485244751,-9.813716888427734
1745650831.0012872,0.0063590193167328835,-0.001131832948885858,-0.0012002433650195599,-0.529413104057312,0.2561395764350891,-9.77757453918457
1745650831.003996,0.005961419083178043,4.49328581453301e-05,-0.0010802099714055657,-0.42528972029685974,0.1975734531879425,-9.771596908569336
1745650831.0074313,0.003637326415628195,-0.0028899952303618193,-0.002887408249080181,-0.5119607448577881,0.2564431130886078,-9.784646987915039
1745650831.0425968,0.007684630807489157,0.0015506613999605179,-0.0010989804286509752,-0.5028286576271057,0.22850210964679718,-9.754488945007324
1745650831.0433156,0.003411204321309924,-0.0007649183971807361,-0.0022157542407512665,-0.46502619981765747,0.2559119164943695,-9.750971794128418
1745650831.0466974,0.0070588611997663975,0.0006835302920080721,-0.00030413438798859715,-0.5761333107948303,0.28270402550697327,-9.804903030395508
1745650831.0501237,0.0042795538902282715,-0.00020346484961919487,-0.002436039736494422,-0.4625876843929291,0.23852992057800293,-9.759981155395508
1745650831.052745,0.005748501513153315,-0.0007304130122065544,-0.0022845198400318623,-0.6268357038497925,0.34113121032714844,-9.756860733032227
1745650831.0875604,0.0065947906114161015,0.0008115906384773552,-0.0043549188412725925,-0.48143109679222107,0.227394700050354,-9.751825332641602
1745650831.091721,0.005598307587206364,-0.0007930246065370739,-0.004438086412847042,-0.5871973633766174,0.331104040145874,-9.782957077026367
1745650831.094874,0.008969350717961788,0.0015514902770519257,-0.002163742668926716,-0.557620644569397,0.2520102858543396,-9.790316581726074
1745650831.0975535,0.003411612706258893,-0.0026379339396953583,-0.003803932573646307,-0.5486672520637512,0.2823047637939453,-9.751029014587402
1745650831.1279583,0.009133705869317055,-0.0002807844430208206,-0.0012221928918734193,-0.6088930368423462,0.26435309648513794,-9.770366668701172
1745650831.1316063,0.0042453003115952015,-0.0022832180839031935,-0.002472000429406762,-0.45803624391555786,0.21425838768482208,-9.748990058898926
1745650831.1362364,-0.0007022358477115631,-0.002212108578532934,0.0014236103743314743,-0.45596781373023987,0.24661102890968323,-9.722622871398926
1745650831.140242,0.004702737554907799,-0.0022788760252296925,0.0009007520857267082,-0.5977975130081177,0.28089675307273865,-9.754606246948242
1745650831.170844,-0.0006834183004684746,-8.692759729456156e-05,0.0017929531168192625,-0.4467586576938629,0.18551602959632874,-9.716399192810059
1745650831.1735678,0.0033536951523274183,-0.003952321596443653,0.0008158253622241318,-0.5713338851928711,0.327752947807312,-9.729899406433105
1745650831.1769426,0.0034050692338496447,0.0004442834760993719,0.0011589622590690851,-0.47189125418663025,0.15766704082489014,-9.751382827758789
1745650831.18049,0.0008482441189698875,-0.0022897219751030207,0.0012244537938386202,-0.48964738845825195,0.29236775636672974,-9.748260498046875
1745650831.2112288,0.00398480286821723,0.0010813355911523104,0.0014412134187296033,-0.5144323110580444,0.20708146691322327,-9.766779899597168
1745650831.213579,-0.002091684378683567,-0.0046216691844165325,0.0024088372010737658,-0.4257737100124359,0.2653750777244568,-9.709742546081543
1745650831.2163944,0.00558860320597887,0.0014505513245239854,0.0005937425303272903,-0.5446231365203857,0.2660703957080841,-9.759544372558594
1745650831.2187335,-0.001760921091772616,-0.0008775334572419524,0.00021521055896300822,-0.3903319239616394,0.19584506750106812,-9.75687026977539
1745650831.2208834,0.003359678667038679,-0.0005333074368536472,0.00011943234130740166,-0.5419842004776001,0.30495578050613403,-9.732351303100586
1745650831.256967,0.00044812937267124653,0.0007266822503879666,0.0005620744195766747,-0.42502909898757935,0.15842567384243011,-9.73602294921875
1745650831.2612557,-0.0018501257291063666,-0.0023423577658832073,-8.793406595941633e-05,-0.46892818808555603,0.3110232949256897,-9.744386672973633
1745650831.2646158,0.0018145727226510644,0.003679561661556363,-0.00011411248851800337,-0.4812760353088379,0.1681702435016632,-9.780255317687988
1745650831.2672217,-0.004405010491609573,-0.003380870446562767,-0.00041195284575223923,-0.40139371156692505,0.26366952061653137,-9.700998306274414
1745650831.2988262,0.002434017136693001,0.0017969366163015366,-0.0006687633576802909,-0.5180680751800537,0.24767032265663147,-9.754358291625977
1745650831.3028433,-0.004644536878913641,0.0005105651798658073,-0.0014657912543043494,-0.38713738322257996,0.18345113098621368,-9.751473426818848
1745650831.3044956,0.00018751368043012917,0.0009640788775868714,-0.0009572206763550639,-0.5438113212585449,0.2882150411605835,-9.754408836364746
1745650831.306859,-0.0022442382760345936,0.002188352169468999,8.220216113841161e-05,-0.4241945147514343,0.17693160474300385,-9.753339767456055
1745650831.3096273,-0.0003329864703118801,0.0003938317240681499,0.0004807785153388977,-0.5030745267868042,0.3245602250099182,-9.741726875305176
1745650831.343893,0.0009262391249649227,0.0041016340255737305,-0.001097391126677394,-0.48466506600379944,0.1824096143245697,-9.752614974975586
1745650831.3468223,-0.0017001775559037924,0.0006496320711448789,0.0012305568670853972,-0.44806861877441406,0.2796213626861572,-9.696767807006836
1745650831.350973,0.0018939583096653223,0.0014917126391083002,-9.044556645676494e-05,-0.49028950929641724,0.3081945776939392,-9.728265762329102
1745650831.354192,0.004631893243640661,0.0053838579915463924,-2.448498344165273e-05,-0.5640281438827515,0.22426918148994446,-9.747990608215332
1745650831.3853343,-0.0014981429558247328,0.001707055838778615,-0.0006663969252258539,-0.4501252770423889,0.24874742329120636,-9.735555648803711
1745650831.3887415,0.0031672618351876736,0.0028979764319956303,-0.0020070592872798443,-0.5837122201919556,0.26924559473991394,-9.770601272583008
1745650831.393738,0.00023496798530686647,0.004445602651685476,5.5944685300346464e-05,-0.42716655135154724,0.17027075588703156,-9.733346939086914
1745650831.3967452,0.00123404071200639,0.0028065633960068226,0.00016713766672182828,-0.5440167188644409,0.31476742029190063,-9.731943130493164
1745650831.3988593,0.0006127044325694442,0.004305343143641949,-0.0007255474920384586,-0.4623691439628601,0.1863531917333603,-9.786620140075684
1745650831.4286885,-0.0013861054321750998,0.00022006146900821477,-0.0006572245620191097,-0.4769674837589264,0.3093678951263428,-9.75816535949707
1745650831.4307804,0.0017996918177232146,0.005886116065084934,-0.0014001495437696576,-0.49859029054641724,0.21096423268318176,-9.768507957458496
1745650831.433637,-0.001525512314401567,9.814123768592253e-05,0.0007850704714655876,-0.38359591364860535,0.2675347328186035,-9.742084503173828
1745650831.4337404,0.0050172023475170135,0.003022999968379736,-0.0008511998457834125,-0.5312855839729309,0.28917813301086426,-9.794107437133789
1745650831.4726055,-0.0007920346106402576,0.0028854114934802055,0.001389071810990572,-0.38982895016670227,0.19814060628414154,-9.760369300842285
1745650831.475299,0.0036800485104322433,0.00261615589261055,-4.286132934794296e-06,-0.5069584846496582,0.33209365606307983,-9.767295837402344
1745650831.4769,0.0021677345503121614,0.004556793719530106,0.0008159054559655488,-0.40111321210861206,0.18125692009925842,-9.783723831176758
1745650831.479186,0.0043304068967700005,-0.005030666943639517,-9.665964171290398e-05,-0.3696407973766327,0.1705963909626007,-9.819936752319336
1745650831.5143073,0.00039067520992830396,-0.008419709280133247,0.002269615652039647,-0.4399026334285736,0.31008484959602356,-9.824082374572754
1745650831.5164425,0.0038775200955569744,-0.005086811725050211,0.0017279041931033134,-0.45610713958740234,0.2005424201488495,-9.805204391479492
1745650831.51777,-0.0010908144759014249,-0.008998846635222435,0.0032406807877123356,-0.3938954472541809,0.27512142062187195,-9.734552383422852
1745650831.5199454,0.006029641721397638,-0.007175152190029621,0.0037565785460174084,-0.5415338277816772,0.2740459740161896,-9.801899909973145
1745650831.558217,0.00021318122162483633,-0.0056072683073580265,0.004224787000566721,-0.3931644856929779,0.2169867306947708,-9.780478477478027
1745650831.5627182,0.004503516014665365,-0.007631646003574133,0.0036292634904384613,-0.558979868888855,0.3243061304092407,-9.771845817565918
1745650831.5660534,0.0018083977047353983,-0.005289536435157061,0.003980203531682491,-0.445012629032135,0.1805199831724167,-9.765563011169434
1745650831.570021,0.0033776448108255863,-0.00713638961315155,0.004414834547787905,-0.5420732498168945,0.3527993857860565,-9.784687995910645
1745650831.5738933,0.0047457218170166016,-0.002245617564767599,0.004961371421813965,-0.5450905561447144,0.19845767319202423,-9.783774375915527
1745650831.5994391,-7.319422729779035e-05,-0.005774310790002346,0.0062675573863089085,-0.5103111267089844,0.2955973744392395,-9.717826843261719
1745650831.6013095,0.005150098819285631,-0.0027102893218398094,0.004394366405904293,-0.6156594753265381,0.2429616004228592,-9.771615982055664
1745650831.6099677,-0.0010506848338991404,-0.005985888186842203,0.00395016698166728,-0.4961583614349365,0.22568435966968536,-9.767194747924805
1745650831.6100497,0.005349995102733374,-0.0048724813386797905,0.0050304667092859745,-0.6464496850967407,0.2930970788002014,-9.776162147521973
1745650831.6448221,-0.0014487827429547906,-0.0022362112067639828,0.004483168013393879,-0.5122159719467163,0.19090643525123596,-9.733257293701172
1745650831.649275,0.002115101320669055,-0.007376569323241711,0.0033662498462945223,-0.6003261804580688,0.29822784662246704,-9.757715225219727
1745650831.6531715,0.0013019780162721872,-0.0019092962611466646,0.0038396294694393873,-0.5614039897918701,0.20466652512550354,-9.793471336364746
1745650831.6570156,0.00026397290639579296,-0.005512515548616648,0.0032216503750532866,-0.5151976346969604,0.24536342918872833,-9.742938041687012
1745650831.6624944,0.003525320440530777,-0.0034884880296885967,0.0030661532655358315,-0.5814286470413208,0.2565213739871979,-9.768732070922852
1745650831.6892285,-0.0030594072304666042,-0.0070946975611150265,0.002903612097725272,-0.43327051401138306,0.22490617632865906,-9.75782585144043
1745650831.6941817,0.0027561511378735304,-0.005227451212704182,0.0005399437504820526,-0.5611276626586914,0.26023077964782715,-9.784810066223145
1745650831.701959,0.0007137453067116439,-0.0039702425710856915,0.003858322976157069,-0.41161927580833435,0.1913602650165558,-9.763714790344238
1745650831.7034812,0.0048370566219091415,-0.00398120516911149,0.0010346794733777642,-0.31284424662590027,0.18713319301605225,-9.761018753051758
1745650831.7286599,0.003461141837760806,-0.004526241682469845,0.0016739066923037171,-0.4504927694797516,0.3005253076553345,-9.769597053527832
1745650831.731186,0.008159870281815529,-0.00012293466716073453,-0.000852371915243566,-0.3734213709831238,0.2109868824481964,-9.813196182250977
1745650831.7332819,0.006414507515728474,-0.003629301441833377,0.001458016806282103,-0.409933865070343,0.27761679887771606,-9.781489372253418
1745650831.737421,0.009601904079318047,-1.72913078131387e-05,-0.001937958411872387,-0.47157588601112366,0.231968954205513,-9.768671035766602
1745650831.7389843,0.004970374051481485,-0.0037130280397832394,-0.0011925892904400826,-0.4134548604488373,0.2380792647600174,-9.759166717529297
1745650831.7793288,0.011987059377133846,-0.001469904207624495,0.0020190677605569363,-0.5506628751754761,0.23609428107738495,-9.810026168823242
1745650831.7840292,0.00801706314086914,-0.0012630560668185353,-0.001956008607521653,-0.42078208923339844,0.17792126536369324,-9.734342575073242
1745650831.7889667,0.0078018829226493835,-0.0020840507932007313,0.0017848617862910032,-0.5793240666389465,0.2567090690135956,-9.724699020385742
1745650831.7916608,0.006208803970366716,0.0016429569805040956,-0.0011013054754585028,-0.5094995498657227,0.18011850118637085,-9.75002384185791
1745650831.8169549,0.004228840582072735,-0.0022731577046215534,0.0011341944336891174,-0.5618054270744324,0.24275246262550354,-9.751299858093262
1745650831.819078,0.006195972207933664,0.0011405489640310407,-0.0016202923143282533,-0.6040471792221069,0.215854212641716,-9.744585037231445
1745650831.8218572,0.0017368474509567022,-0.0029488627333194017,0.0005865756538696587,-0.5283657312393188,0.18583330512046814,-9.718892097473145
1745650831.8230057,0.0029072172474116087,-0.0028540650382637978,-0.0007036436581984162,-0.6434401273727417,0.27316465973854065,-9.75642204284668
1745650831.866856,0.007822015322744846,0.0013818128500133753,-0.0017767533427104354,-0.6013310551643372,0.28051504492759705,-9.78683853149414
1745650831.866995,0.0016036678571254015,6.214538734639063e-05,-0.0003855852992273867,-0.44699153304100037,0.24793311953544617,-9.750657081604004
1745650831.8670459,0.0049443901516497135,-0.00022756177349947393,-5.7309634939883836e-06,-0.605948805809021,0.35180896520614624,-9.763946533203125
1745650831.8671048,-0.0021055585239082575,0.000696128758136183,-0.001818180433474481,-0.4732185900211334,0.20250491797924042,-9.768759727478027
1745650831.9003868,0.0027280007489025593,-0.0034635376650840044,-0.0005773893790319562,-0.5300751328468323,0.343283474445343,-9.7401762008667
1745650831.9025483,0.0017205134499818087,0.0008715661242604256,0.0019026705995202065,-0.5778015851974487,0.10767378658056259,-9.841285705566406
1745650831.9038022,0.0037704170681536198,0.0020465462002903223,0.003118595341220498,-0.491558313369751,0.34690624475479126,-9.716012001037598
1745650831.9076016,-0.005184723995625973,0.0013792698737233877,-0.0010545802069827914,-0.47544804215431213,0.19983568787574768,-9.7230224609375
1745650831.9103057,-0.005142170935869217,-0.005261179991066456,-0.0013297849800437689,-0.35175588726997375,0.24291065335273743,-9.782203674316406
1745650831.945032,0.0031060671899467707,0.001092446269467473,0.00022252248891163617,-0.5904868841171265,0.453500896692276,-9.846883773803711
1745650831.9469862,-0.007734152488410473,0.00520747434347868,-0.002960920799523592,-0.42360854148864746,0.19765618443489075,-9.760160446166992
1745650831.9504483,-0.005516248755156994,-0.0019170728046447039,-0.005339177791029215,-0.28321346640586853,0.35216814279556274,-9.64787769317627
1745650831.9521925,-0.008629916235804558,-0.0074609010480344296,-0.00399461854249239,-0.32332125306129456,0.228851318359375,-9.889863967895508
1745650831.98835,0.005010143853724003,0.0006122413906268775,-0.005377673543989658,-0.528678834438324,0.5240347981452942,-9.934306144714355
1745650831.9904475,0.0025192382745444775,0.006847880780696869,-0.004645155742764473,-0.4084787964820862,0.13909122347831726,-9.592344284057617
1745650831.9954462,-0.0008454277995042503,-0.004763525910675526,-0.0027763182297348976,-0.14047208428382874,0.0816069096326828,-9.611285209655762
1745650832.0016768,0.008207516744732857,-0.004731121473014355,0.0013471251586452127,-0.4381372034549713,0.514417290687561,-10.042213439941406
1745650832.0078695,0.012752811424434185,0.0039774468168616295,0.0012988281669095159,-0.5004358887672424,0.07125982642173767,-10.021757125854492
1745650832.0328648,0.018215518444776535,0.0034973756410181522,0.00507697369903326,-0.42333555221557617,0.23511281609535217,-9.370994567871094
1745650832.0361636,0.003989140037447214,-0.0027656122110784054,0.007869708351790905,-0.28898218274116516,0.09319530427455902,-9.628947257995605
1745650832.0387743,0.012937637977302074,-0.00731094041839242,0.010230395942926407,-0.4639744162559509,0.2507248520851135,-10.152830123901367
1745650832.0745163,-0.008407732471823692,-0.0035850200802087784,-0.0016206314321607351,-0.6733304262161255,0.35922786593437195,-10.067831039428711
1745650832.077895,-0.009982776828110218,-0.0020742774941027164,-0.0029359646141529083,-0.6061920523643494,0.17628371715545654,-9.941473007202148
1745650832.0817835,0.003578026546165347,-0.0008725816151127219,-0.0058531565591692924,-0.5943763256072998,0.34150251746177673,-9.382614135742188
1745650832.0858233,-0.0256968941539526,-0.0032023645471781492,-0.008656889200210571,-0.3382551074028015,0.48229464888572693,-9.567532539367676
1745650832.0912633,0.0026815866585820913,-0.008394168689846992,-0.01207704283297062,-0.49115028977394104,0.40558043122291565,-9.965128898620605
1745650832.1189055,0.008754605427384377,0.001574107096530497,-0.011751925572752953,-0.4986651539802551,0.4541551470756531,-9.948963165283203
1745650832.1217701,0.013528804294764996,0.0007553291507065296,-0.011433875188231468,-0.313414067029953,0.21238362789154053,-9.55999755859375
1745650832.1255033,0.020282281562685966,-0.007321549113839865,-0.008403461426496506,-0.25281479954719543,0.16352497041225433,-9.662466049194336
1745650832.1266735,0.012594816274940968,-0.009255798533558846,-0.00426736194640398,-0.4608982503414154,0.08264265209436417,-10.140848159790039
1745650832.160116,0.034158214926719666,0.0004479145281948149,-0.0008735429728403687,-0.5286358594894409,0.19878864288330078,-9.79770565032959
1745650832.1638625,0.01810510829091072,-1.728581264615059e-05,0.005347751080989838,-0.35574954748153687,-0.08169519901275635,-9.365341186523438
1745650832.1693501,0.014622882008552551,-0.011229582130908966,0.0071684629656374454,-0.3470633625984192,-0.06298700720071793,-9.717154502868652
1745650832.1740468,0.020183121785521507,-0.00890574511140585,0.010112295858561993,-0.3750043511390686,0.34660473465919495,-10.167472839355469
1745650832.1787717,0.022889437153935432,0.000795273925177753,0.011340366676449776,-0.5732855796813965,0.1499236524105072,-9.895988464355469
1745650832.2051275,0.016598422080278397,-0.003940952476114035,0.009978793561458588,-0.3387846350669861,0.16583047807216644,-9.358245849609375
1745650832.2085316,0.005208885762840509,0.0036199302412569523,-0.021109137684106827,-0.5404767394065857,0.5056228637695312,-9.74371337890625
1745650832.210951,0.011043163016438484,0.005792826879769564,-0.024860819801688194,-0.40699639916419983,0.4702957272529602,-9.765267372131348
1745650832.2144287,0.015401606447994709,0.006498964037746191,-0.032425571233034134,-0.5134018063545227,0.5460841059684753,-9.762641906738281
1745650832.2441514,0.030654188245534897,0.0014647187199443579,-0.039675675332546234,-0.28070974349975586,0.24077410995960236,-9.781059265136719
1745650832.2485795,0.03692895919084549,0.005753120873123407,-0.037391673773527145,-0.44082292914390564,0.32934457063674927,-9.926224708557129
1745650832.2514434,0.03853011131286621,0.006237701512873173,-0.037200070917606354,-0.41527876257896423,-0.07827254384756088,-9.887112617492676
1745650832.253966,0.02536151185631752,-0.0014094336656853557,-0.035508401691913605,-0.4676849842071533,-0.11423476040363312,-9.701746940612793
1745650832.2552776,0.01981777884066105,0.0023873192258179188,-0.030916789546608925,-0.546610414981842,-0.15180672705173492,-9.797746658325195
1745650832.290941,0.012484424747526646,0.001848044223152101,-0.0273267962038517,-0.532122790813446,-0.20394349098205566,-9.811010360717773
1745650832.294245,0.00707684550434351,0.009757248684763908,-0.02837924100458622,-0.522500216960907,-0.0030810534954071045,-9.622177124023438
1745650832.2976973,-0.009928773157298565,0.006329533644020557,-0.030493566766381264,-0.2752317190170288,-0.08721260726451874,-9.701787948608398
1745650832.300729,-0.007032213266938925,0.010931159369647503,-0.03316149860620499,-0.41212525963783264,0.3417220711708069,-9.88367748260498
1745650832.3333144,0.00587982963770628,0.016524437814950943,-0.04138023778796196,-0.21386392414569855,0.2658328115940094,-9.805760383605957
1745650832.3356225,0.003919738810509443,0.013269489631056786,-0.04690387099981308,-0.2745543420314789,0.5042058229446411,-9.64438247680664
1745650832.3374763,0.009489900432527065,0.014445558190345764,-0.05230628699064255,-0.30088838934898376,0.22122910618782043,-9.900857925415039
1745650832.3415084,0.015598769299685955,0.006710761692374945,-0.05448419973254204,-0.32165592908859253,0.1557982861995697,-9.97792911529541
1745650832.3739023,0.016803979873657227,0.013877427205443382,-0.05582127720117569,-0.4751589894294739,0.18738242983818054,-9.91801929473877
1745650832.3844335,0.01755247637629509,0.008226459845900536,-0.06022629886865616,-0.3526115417480469,0.11065826565027237,-9.776453018188477
1745650832.3881602,0.02196146734058857,0.012382988817989826,-0.06432855129241943,-0.47665542364120483,0.46380168199539185,-9.672664642333984
1745650832.3939934,0.02598472870886326,0.020968573167920113,-0.0699736550450325,-0.16881051659584045,0.13567425310611725,-9.65984058380127
1745650832.4016051,0.03157416731119156,0.02161828614771366,-0.07546139508485794,-0.26177850365638733,0.21578161418437958,-9.606545448303223
1745650832.418407,0.034184668213129044,0.029351666569709778,-0.07912637293338776,-0.24649515748023987,0.20711350440979004,-9.770362854003906
1745650832.4231477,-0.0008479353855364025,0.03603282570838928,-0.07302980870008469,-0.21377380192279816,-0.49621328711509705,-9.888850212097168
1745650832.4262404,-0.025019269436597824,0.036494601517915726,-0.0712321549654007,-0.09512685239315033,-0.24007244408130646,-9.810405731201172
1745650832.4296079,-0.028895461931824684,0.03699956461787224,-0.07585319876670837,-0.12592869997024536,0.3503206670284271,-9.77458667755127
1745650832.4614735,-0.01784280128777027,0.04623846709728241,-0.09077830612659454,-0.08207937330007553,0.8870790600776672,-9.581801414489746
1745650832.4637115,0.0034268542658537626,0.04581044614315033,-0.09982080012559891,-0.01645263284444809,0.5241844058036804,-9.607544898986816
1745650832.4654405,0.03176577761769295,0.04498528689146042,-0.10238538682460785,-0.22428973019123077,0.6960576772689819,-9.862277030944824
1745650832.4668071,0.03362938389182091,0.034892432391643524,-0.10139402002096176,-0.20293252170085907,0.006938334554433823,-10.270774841308594
1745650832.5045178,0.057853639125823975,0.040464676916599274,-0.09852509200572968,-0.5315808057785034,0.3392390012741089,-10.049626350402832
1745650832.5073998,0.04655126854777336,0.042214442044496536,-0.09655699878931046,-0.4994738698005676,0.059815727174282074,-9.677477836608887
1745650832.5106225,0.06443896889686584,0.04171479493379593,-0.09802297502756119,-0.3676965832710266,0.15007907152175903,-9.321272850036621
1745650832.5137947,0.04284651204943657,0.057446062564849854,-0.11162038147449493,-0.20700323581695557,0.5411175489425659,-9.468637466430664
1745650832.5160954,0.05821438506245613,0.0620715506374836,-0.12322447448968887,0.005136416293680668,0.08065764605998993,-9.671545028686523
1745650832.5480092,0.05700363963842392,0.07548997551202774,-0.12453959882259369,0.040543004870414734,0.06407997012138367,-9.474812507629395
1745650832.549119,0.02862887643277645,0.0677214115858078,-0.11647428572177887,0.034733641892671585,-0.6343458890914917,-9.926730155944824
1745650832.5501385,0.029104571789503098,0.0629761815071106,-0.18157082796096802,0.036484550684690475,0.8414800763130188,-10.151382446289062
1745650832.5515456,0.05935361981391907,0.0727238580584526,-0.20377643406391144,-0.4623362123966217,0.746630072593689,-8.535371780395508
1745650832.5914276,0.04518764466047287,0.06376271694898605,-0.21630842983722687,-0.5900260806083679,1.5831682682037354,-8.680110931396484
1745650832.5949037,0.13387729227542877,0.09893175959587097,-0.22720956802368164,0.4536672532558441,-1.1500444412231445,-10.02993106842041
1745650832.600701,0.05463200807571411,0.09951991587877274,-0.22337791323661804,-0.034382060170173645,0.7315723896026611,-9.509943008422852
1745650832.6023412,0.06612072885036469,0.09256751090288162,-0.20798030495643616,-0.12173287570476532,-1.7325674295425415,-10.244832038879395
1745650832.6049333,0.09292888641357422,0.07697458565235138,-0.2021927833557129,0.5792749524116516,0.7428288459777832,-9.6096773147583
1745650832.637365,0.05431180074810982,0.07870794832706451,-0.19550767540931702,-0.35600969195365906,-1.0106877088546753,-10.58804988861084
1745650832.6393042,-0.00027648528339341283,0.0819929763674736,-0.19977717101573944,0.44047969579696655,0.14552150666713715,-9.784228324890137
1745650832.642456,0.04900672286748886,0.05487402528524399,-0.21297721564769745,-0.19653579592704773,0.16911256313323975,-9.277935981750488
1745650832.6450596,0.012307289987802505,0.08494894206523895,-0.21939988434314728,-0.6861377954483032,0.7504868507385254,-9.383145332336426
1745650832.6786578,0.04805011674761772,0.08704302459955215,-0.23550817370414734,-0.03268500789999962,0.7644284963607788,-9.39458179473877
1745650832.6812372,0.09273959696292877,0.08905898034572601,-0.2411598414182663,-0.4168587625026703,0.501181960105896,-9.685600280761719
1745650832.68289,0.11493166536092758,0.11074968427419662,-0.24294646084308624,-0.00322762131690979,0.7987636923789978,-9.768972396850586
1745650832.6847348,0.1352252960205078,0.08588400483131409,-0.250144898891449,0.0314059779047966,0.26062098145484924,-9.9729642868042
1745650832.7278116,0.22268536686897278,0.10047565400600433,-0.24535508453845978,-0.18063466250896454,0.5479316115379333,-9.760424613952637
1745650832.7279549,0.18070511519908905,0.10088392347097397,-0.24681493639945984,0.027330029755830765,-0.3781472444534302,-9.77387809753418
1745650832.7280326,0.19688136875629425,0.09490741789340973,-0.24010522663593292,-0.03959871083498001,-0.8319715261459351,-9.502910614013672
1745650832.7281733,0.11059385538101196,0.10985779762268066,-0.23992130160331726,0.2314823418855667,-1.2566486597061157,-9.604693412780762
1745650832.7293603,0.08480565994977951,0.12240158021450043,-0.24724844098091125,0.014274926856160164,-0.8529907464981079,-9.54307746887207
1745650832.762335,-0.024308491498231888,0.12551459670066833,-0.25691714882850647,0.25117477774620056,-0.11462674289941788,-9.165437698364258
1745650832.7644365,0.030761048197746277,0.10107779502868652,-0.2670607268810272,0.251269668340683,-0.31638598442077637,-9.816522598266602
1745650832.7675788,-0.03493281453847885,0.09823831915855408,-0.27164897322654724,-0.03834379091858864,0.3881336450576782,-10.76194953918457
1745650832.7707682,0.07491381466388702,0.10500188916921616,-0.26832565665245056,-0.6102483868598938,0.6376575231552124,-8.694223403930664
1745650832.807661,0.20572659373283386,0.12242184579372406,-0.2849956452846527,-0.030769646167755127,1.1428792476654053,-9.235394477844238
1745650832.8101187,0.21788540482521057,0.13474059104919434,-0.29455846548080444,-0.10303676128387451,0.5815247297286987,-9.79401969909668
1745650832.8207455,0.19588986039161682,0.12343583256006241,-0.2887451648712158,-0.029744505882263184,-0.524354100227356,-9.956610679626465
1745650832.8209062,0.1976282149553299,0.08641505241394043,-0.2744775712490082,0.582116961479187,-1.3454821109771729,-10.298091888427734
1745650832.8489747,0.12432610988616943,0.06914874166250229,-0.2486756294965744,-0.28479626774787903,-1.7645657062530518,-11.356501579284668
1745650832.8515189,0.045555468648672104,0.0828804150223732,-0.23989693820476532,0.09753060340881348,-1.6040846109390259,-10.39372444152832
1745650832.8538647,0.03237582743167877,0.07075820118188858,-0.25583013892173767,0.009200642816722393,0.21582885086536407,-8.346405982971191
1745650832.8561075,-0.06194894388318062,0.07454130798578262,-0.277686208486557,-0.1753830462694168,0.6997947692871094,-8.734703063964844
1745650832.8597126,0.056909747421741486,0.11227057874202728,-0.3103751242160797,0.7953763008117676,-0.19870826601982117,-9.715856552124023
1745650832.8924274,0.002469182014465332,0.11905469745397568,-0.31484124064445496,-0.43087297677993774,1.3962510824203491,-9.686473846435547
1745650832.8942406,0.07735986262559891,0.1014433354139328,-0.2998771369457245,-0.021463841199874878,-1.0864555835723877,-10.119874954223633
1745650832.8964632,0.09947825968265533,0.1065276637673378,-0.27958768606185913,-0.3573320508003235,0.7463639974594116,-10.269590377807617
1745650832.8997889,0.3619556427001953,0.2601478099822998,-0.4566444754600525,0.35940760374069214,1.4211171865463257,-9.308614730834961
1745650832.9351668,0.3808456361293793,0.23264925181865692,-0.45435887575149536,0.12303819507360458,-0.8815223574638367,-6.791800498962402
1745650832.940578,0.43004435300827026,0.2334330976009369,-0.45103439688682556,0.6431385278701782,-0.7222996950149536,-8.680902481079102
1745650832.9434836,0.2929540276527405,0.23451833426952362,-0.4506220817565918,1.3787338733673096,-1.7012497186660767,-12.521799087524414
1745650832.947981,0.3017107844352722,0.25102537870407104,-0.4578118324279785,1.1087673902511597,-1.7279796600341797,-10.931668281555176
1745650832.9854894,0.16148337721824646,0.23206421732902527,-0.4661165773868561,0.8608713150024414,-1.6806137561798096,-7.622014045715332
1745650832.9856262,0.06822359561920166,0.19425490498542786,-0.4764184355735779,0.8733993768692017,-1.2005889415740967,-8.976529121398926
1745650832.9856775,0.04327750578522682,0.20534563064575195,-0.4863470196723938,1.2624626159667969,-1.23593270778656,-12.173800468444824
1745650832.9857268,0.07399847358465195,0.22210681438446045,-0.48619771003723145,0.6228097677230835,-0.3001149594783783,-10.861560821533203
1745650832.986374,0.05984954163432121,0.213389590382576,-0.4788958430290222,-0.061356931924819946,-0.7145349383354187,-7.749366760253906
1745650833.0234528,0.1462780237197876,0.18972964584827423,-0.46400928497314453,0.1019747257232666,0.14998646080493927,-7.941658020019531
1745650833.0254283,0.18771766126155853,0.2092117816209793,-0.46158814430236816,0.35071879625320435,0.013187837786972523,-11.262109756469727
1745650833.027062,0.23243923485279083,0.22332313656806946,-0.46171584725379944,0.4749109148979187,-0.3460802435874939,-11.50965404510498
1745650833.030368,0.30529171228408813,0.21254654228687286,-0.4681808352470398,0.5596634149551392,0.16269823908805847,-8.444131851196289
1745650833.0646396,0.24235042929649353,0.1807163804769516,-0.477369487285614,0.6655265688896179,-0.6320322751998901,-8.642850875854492
1745650833.066547,0.2696394622325897,0.1826459914445877,-0.4812465310096741,0.9509947896003723,-1.4166187047958374,-11.068666458129883
1745650833.069191,0.14830566942691803,0.21977031230926514,-0.4820369780063629,1.0472099781036377,-1.831388235092163,-10.64964485168457
1745650833.0709803,0.09758873283863068,0.19050201773643494,-0.4850371778011322,1.1136420965194702,-2.258540153503418,-8.097783088684082
1745650833.1051447,0.0049087959341704845,0.1629018783569336,-0.47869572043418884,1.4116284847259521,-1.3241362571716309,-8.97655200958252
1745650833.1071818,-0.021102946251630783,0.16046258807182312,-0.48088890314102173,1.293900489807129,-1.2237554788589478,-12.167983055114746
1745650833.109189,0.0392865426838398,0.1827937513589859,-0.48467493057250977,0.53980553150177,0.06037271022796631,-10.638094902038574
1745650833.1113017,0.005579479970037937,0.17124809324741364,-0.48474159836769104,0.4269724488258362,-0.5494735240936279,-8.134193420410156
1745650833.1154253,0.11215659230947495,0.14081254601478577,-0.48137006163597107,0.31828609108924866,0.38852769136428833,-8.807056427001953
1745650833.149933,0.134159117937088,0.1553269773721695,-0.4813620150089264,0.3823750615119934,-0.31055948138237,-11.007938385009766
1745650833.152198,0.18971097469329834,0.1625712513923645,-0.4784635901451111,0.37177348136901855,-0.5260211825370789,-10.51697826385498
1745650833.1533403,0.18254967033863068,0.15650628507137299,-0.4727592468261719,0.6645611524581909,-0.9116264581680298,-8.709315299987793
1745650833.1557596,0.1557593047618866,0.12773728370666504,-0.47332921624183655,0.9720016717910767,-1.31937575340271,-9.067425727844238
1745650833.1956673,0.09453295171260834,0.12691886723041534,-0.4789058566093445,1.4309861660003662,-1.944724440574646,-11.019365310668945
1745650833.198341,0.024510739371180534,0.12630048394203186,-0.4777119755744934,1.5596119165420532,-1.8452279567718506,-10.78064250946045
1745650833.201127,-0.0325046069920063,0.11114263534545898,-0.48232221603393555,0.983780026435852,-1.628183364868164,-9.005293846130371
1745650833.2041705,-0.10915708541870117,0.09520392119884491,-0.47879186272621155,1.004359245300293,-1.9429559707641602,-9.012750625610352
1745650833.2060044,-0.12060721218585968,0.09348253905773163,-0.47304296493530273,0.8310356140136719,-0.8368331789970398,-10.259360313415527
1745650833.2381783,-0.122218057513237,0.10004212707281113,-0.47722238302230835,0.7635895013809204,-0.3401697278022766,-10.388192176818848
1745650833.2406948,-0.05320412665605545,0.08895634114742279,-0.479085773229599,0.5614137649536133,0.09764356911182404,-9.452811241149902
1745650833.2430112,-0.009792761877179146,0.08644641935825348,-0.47692519426345825,0.49102479219436646,0.41506242752075195,-9.385333061218262
1745650833.2492087,0.053595274686813354,0.0804048702120781,-0.48158812522888184,0.7677130699157715,-0.0546424575150013,-9.812827110290527
1745650833.2792556,0.001242293743416667,-0.11229608207941055,-0.46313172578811646,0.610913872718811,-0.1183101162314415,-9.846437454223633
1745650833.2819612,0.017279909923672676,-0.11054239422082901,-0.45878830552101135,0.7113996744155884,-0.31594958901405334,-9.672968864440918
1745650833.286269,0.017770666629076004,-0.11991922557353973,-0.4579799771308899,0.8641036152839661,-0.690205454826355,-9.736757278442383
1745650833.2867079,0.02072012796998024,-0.11501526832580566,-0.458060085773468,0.8330106735229492,-0.8108566999435425,-9.918301582336426
1745650833.3215737,-0.024580441415309906,-0.12348443269729614,-0.455569326877594,1.2289345264434814,-0.900463879108429,-9.855982780456543
1745650833.323847,-0.030414599925279617,-0.12454169988632202,-0.46168869733810425,0.9462623596191406,-0.8693353533744812,-9.789257049560547
1745650833.326489,-0.07068648189306259,-0.12522485852241516,-0.46145910024642944,0.9045478105545044,-0.9466285705566406,-9.843852043151855
1745650833.3287866,-0.08037671446800232,-0.1347857117652893,-0.4565916657447815,0.9088355302810669,-0.7396634221076965,-9.854131698608398
1745650833.366302,-0.07452023774385452,-0.13185596466064453,-0.4559438228607178,0.6723426580429077,-0.5346366167068481,-9.912260055541992
1745650833.3708336,-0.06788118928670883,-0.13685879111289978,-0.45414042472839355,0.6082739233970642,-0.3007400631904602,-9.891687393188477
1745650833.3751001,-0.03481890633702278,-0.13268908858299255,-0.45224374532699585,0.5102154612541199,-0.07155360281467438,-9.73265552520752
1745650833.3772547,-0.016812831163406372,-0.13633587956428528,-0.45149511098861694,0.711452305316925,-0.19631412625312805,-9.681181907653809
1745650833.3811543,0.02664722129702568,-0.13799509406089783,-0.44874700903892517,0.6554549932479858,-0.147587388753891,-9.788022994995117
1745650833.410677,0.02805538848042488,-0.13260731101036072,-0.4474373757839203,0.7579396367073059,-0.40436500310897827,-9.949564933776855
1745650833.4133968,0.032891906797885895,-0.13623228669166565,-0.44723597168922424,0.7422419786453247,-0.5477302074432373,-9.791586875915527
1745650833.4181314,0.028601359575986862,-0.13141024112701416,-0.44791460037231445,0.7746462821960449,-0.7948862910270691,-9.654287338256836
1745650833.4213953,-0.007768245879560709,-0.14391519129276276,-0.44435644149780273,0.8712843656539917,-0.6936616897583008,-9.887757301330566
1745650833.451395,0.0006029859068803489,-0.1362110674381256,-0.4510785937309265,0.7922567129135132,-0.6053211688995361,-10.017990112304688
1745650833.4534006,-0.03486832603812218,-0.1389247477054596,-0.45126932859420776,0.7617449760437012,-0.6459314823150635,-9.744792938232422
1745650833.455162,-0.02335405722260475,-0.13842058181762695,-0.4498059153556824,0.6310586333274841,-0.5057428479194641,-9.584534645080566
1745650833.4554014,-0.030685603618621826,-0.13924568891525269,-0.4483892321586609,0.7147374153137207,-0.4998173713684082,-9.769598960876465
1745650833.4571009,-0.002062821062281728,-0.1363915652036667,-0.4439536929130554,0.44779881834983826,-0.33252090215682983,-10.027033805847168
1745650833.497281,0.01638440415263176,-0.12620356678962708,-0.43903008103370667,0.4952767789363861,-0.24680909514427185,-9.686614990234375
1745650833.498655,0.05852356553077698,-0.12854066491127014,-0.4395044445991516,0.6930800676345825,-0.31597620248794556,-10.00133991241455
1745650833.499817,0.0679766982793808,-0.12531690299510956,-0.4401215612888336,0.573822021484375,-0.6411691308021545,-9.762909889221191
1745650833.5036085,0.046696700155735016,-0.12177553027868271,-0.4416410028934479,0.7273723483085632,-0.7235317826271057,-9.519868850708008
1745650833.538118,0.020414108410477638,-0.1296796053647995,-0.4391261637210846,0.7135497331619263,-0.8520666360855103,-9.827507972717285
1745650833.5402436,0.016933070495724678,-0.12407958507537842,-0.43934082984924316,0.8232730627059937,-0.8210458755493164,-10.103492736816406
1745650833.5429657,-0.006447244435548782,-0.12576229870319366,-0.43852686882019043,0.639565110206604,-0.6211033463478088,-9.888218879699707
1745650833.5454938,0.005505646578967571,-0.12259535491466522,-0.4368794858455658,0.5731655955314636,-0.5668309926986694,-9.60749626159668
1745650833.5809555,-0.003885725513100624,-0.13004165887832642,-0.43231186270713806,0.5764464735984802,-0.2825527787208557,-9.706777572631836
1745650833.5828767,0.033118247985839844,-0.11905310302972794,-0.4351271688938141,0.3578323721885681,-0.30492204427719116,-9.938961029052734
1745650833.5852556,0.05259237438440323,-0.11325041204690933,-0.4323856234550476,0.4064125418663025,-0.15870316326618195,-9.657569885253906
1745650833.586674,0.07062976062297821,-0.11138390004634857,-0.4317047595977783,0.3820820152759552,-0.162395641207695,-9.499160766601562
1745650833.622364,0.08495308458805084,-0.10774127393960953,-0.4316851496696472,0.5729992985725403,-0.48180270195007324,-9.65086841583252
1745650833.6262033,0.08026567846536636,-0.1083899587392807,-0.4305310845375061,0.49586400389671326,-0.382215291261673,-10.013265609741211
1745650833.629362,0.07322199642658234,-0.01447634119540453,-0.41374707221984863,0.5522818565368652,-0.6993274688720703,-9.701566696166992
1745650833.6327138,0.07083193957805634,-0.01254619937390089,-0.41529884934425354,0.41396084427833557,-0.641313374042511,-9.703886032104492
1745650833.6348634,0.05008654668927193,-0.00627445662394166,-0.41562438011169434,0.5220956206321716,-1.0479124784469604,-9.747282028198242
1745650833.6667376,0.04582878574728966,-0.0076554217375814915,-0.4166354238986969,0.4852615296840668,-0.7878006100654602,-9.56384563446045
1745650833.668766,0.0250692181289196,-0.002362441038712859,-0.41560792922973633,0.5591832995414734,-0.9569514989852905,-9.685076713562012
1745650833.6713173,0.01073401514440775,-0.006436104886233807,-0.4163680970668793,0.5650787353515625,-0.7223325967788696,-9.867525100708008
1745650833.6727505,0.024152791127562523,0.003803189378231764,-0.4154849052429199,0.39963406324386597,-0.6951682567596436,-9.765254020690918
1745650833.7076516,0.009701298549771309,-0.002569029340520501,-0.4126705229282379,0.4593562185764313,-0.6633221507072449,-9.604562759399414
1745650833.7170079,0.03999508544802666,0.004051104187965393,-0.4136205315589905,0.3306882977485657,-0.4895452558994293,-9.669390678405762
1745650833.7170455,0.028950344771146774,0.004729184787720442,-0.4112672805786133,0.4837252199649811,-0.6406794786453247,-9.779510498046875
1745650833.720243,0.0535014271736145,0.004125506617128849,-0.4112623631954193,0.3408888280391693,-0.5180061459541321,-9.719402313232422
1745650833.723546,0.043125852942466736,0.010256017558276653,-0.4099837839603424,0.5097794532775879,-0.7638563513755798,-9.640382766723633
1745650833.7547646,0.04391772300004959,0.004924839362502098,-0.40877920389175415,0.5109571814537048,-0.7477279901504517,-9.729630470275879
1745650833.7616634,0.04184442386031151,0.01230088621377945,-0.40985530614852905,0.5146621465682983,-0.7861362099647522,-9.792258262634277
1745650833.7634337,0.011148293502628803,0.007111899554729462,-0.4118102490901947,0.5943878889083862,-0.8263151049613953,-9.771524429321289
1745650833.7668505,0.02310587838292122,0.013605905696749687,-0.41125592589378357,0.42998895049095154,-0.8362922668457031,-9.702616691589355
1745650833.7961054,-0.0043290709145367146,0.010657046921551228,-0.410236120223999,0.6001175045967102,-0.7298762202262878,-9.639213562011719
1745650833.7988946,0.004125273786485195,0.011265130713582039,-0.4110935628414154,0.4009234309196472,-0.6839296221733093,-9.776564598083496
1745650833.799822,0.0025498473551124334,0.021638616919517517,-0.41302552819252014,0.456651508808136,-0.562677800655365,-9.712801933288574
1745650833.8106472,0.003015782916918397,0.012548645958304405,-0.40943557024002075,0.4687812328338623,-0.6238001585006714,-9.595051765441895
1745650833.8107867,0.022159572690725327,0.01870228350162506,-0.40757450461387634,0.45232075452804565,-0.6577105522155762,-9.740674018859863
1745650833.8404567,0.017595496028661728,0.014841169118881226,-0.4054028391838074,0.5022077560424805,-0.6480688452720642,-9.89588451385498
1745650833.8422616,0.034907266497612,0.020507782697677612,-0.40722960233688354,0.3783426284790039,-0.6276431083679199,-9.775808334350586
1745650833.8450942,0.010089504532516003,0.02389795333147049,-0.40646958351135254,0.5697185397148132,-0.8234419822692871,-9.85742473602295
1745650833.847705,-0.001730456599034369,0.02101324126124382,-0.4068351686000824,0.5073119401931763,-0.6832898855209351,-9.833650588989258
1745650833.884385,-0.0011226034257560968,0.027709949761629105,-0.40732207894325256,0.534903347492218,-0.8441064953804016,-9.574677467346191
1745650833.8875039,-0.02171671949326992,0.01729552447795868,-0.4053677022457123,0.49470630288124084,-0.6246697902679443,-9.679104804992676
1745650833.8902662,-0.0036444682627916336,0.024013234302401543,-0.4063166677951813,0.4950578212738037,-0.7726695537567139,-9.998774528503418
1745650833.8935246,-0.011257519945502281,0.022915732115507126,-0.4018701910972595,0.5583381652832031,-0.613974928855896,-9.860697746276855
1745650833.9237156,0.0014062013942748308,0.021929915994405746,-0.4010624885559082,0.3854295313358307,-0.6050432324409485,-9.654057502746582
1745650833.9257793,-0.004970284644514322,0.018068891018629074,-0.39535123109817505,0.5057900547981262,-0.716343879699707,-9.631688117980957
1745650833.9286697,0.009321333840489388,0.019299516454339027,-0.3939209580421448,0.20147892832756042,-0.6415595412254333,-9.841782569885254
1745650833.9336557,0.014189991168677807,0.02568652853369713,-0.3901952803134918,0.4306032061576843,-0.8119864463806152,-9.672307968139648
1745650833.974955,-0.019229132682085037,0.010815395042300224,-0.38564175367355347,0.15457306802272797,-0.7445158958435059,-9.743967056274414
1745650833.9750595,-0.00759404432028532,0.02158544957637787,-0.3846183121204376,0.13926240801811218,-0.906432032585144,-9.855401992797852
1745650833.9751296,-0.05444348603487015,-0.03986484557390213,-0.2696816921234131,0.3017791211605072,-0.39154109358787537,-9.767584800720215
1745650833.977048,-0.049554385244846344,-0.026438768953084946,-0.2649163603782654,0.4295770525932312,-0.4607241749763489,-10.269845962524414
1745650834.0131648,-0.04029819369316101,-0.03139818459749222,-0.2636740207672119,0.3210873603820801,-0.328041136264801,-9.850227355957031
1745650834.0173109,-0.03217798471450806,-0.02879207208752632,-0.2588862180709839,0.3180655539035797,-0.535720944404602,-9.432574272155762
1745650834.0206149,-0.05232489854097366,-0.0431852787733078,-0.25314798951148987,0.3407450318336487,-0.6223964691162109,-9.809015274047852
1745650834.0255399,-0.03785260021686554,-0.03122745081782341,-0.24951741099357605,0.10118548572063446,-0.7111176252365112,-10.257177352905273
1745650834.0517197,-0.06633421778678894,-0.03058987483382225,-0.24429218471050262,0.17932507395744324,-0.6916097402572632,-9.63633918762207
1745650834.0543902,-0.06486445665359497,-0.03454617038369179,-0.2422647476196289,0.16910435259342194,-0.5377055406570435,-9.310638427734375
1745650834.0581205,-0.07269144058227539,-0.033101946115493774,-0.2413465529680252,0.37461933493614197,-0.5263076424598694,-9.821784019470215
1745650834.0604181,-0.08210432529449463,-0.03514113277196884,-0.24129679799079895,0.3178092837333679,-0.4439276158809662,-10.232381820678711
1745650834.0615575,-0.0680747777223587,-0.025807786732912064,-0.2365877628326416,0.3573395609855652,-0.5827646255493164,-9.83946418762207
1745650834.0984669,-0.08740679919719696,-0.03614748269319534,-0.2331531047821045,0.343294233083725,-0.4739302694797516,-9.472687721252441
1745650834.1000295,-0.06872694194316864,-0.03820620849728584,-0.22546236217021942,0.19078239798545837,-0.5513080358505249,-9.812658309936523
1745650834.1021311,-0.07344378530979156,-0.030420348048210144,-0.21965177357196808,0.3107151985168457,-0.2727068066596985,-9.99216079711914
1745650834.1050973,-0.05669484660029411,-0.023877007886767387,-0.22104835510253906,0.14692512154579163,-0.13983047008514404,-9.758111953735352
1745650834.1425073,-0.052850209176540375,-0.032183703035116196,-0.22223393619060516,0.2774132490158081,-0.1590317040681839,-9.595498085021973
1745650834.1461465,-0.04020025208592415,-0.035086795687675476,-0.22237983345985413,0.19456526637077332,-0.14360567927360535,-9.915555000305176
1745650834.1495905,-0.03017813339829445,-0.02441849187016487,-0.22168779373168945,0.2251494824886322,-0.476997047662735,-10.051774024963379
1745650834.153389,-0.040908217430114746,-0.02750704064965248,-0.21909093856811523,0.18832993507385254,-0.41154614090919495,-9.713464736938477
1745650834.181487,-0.041967738419771194,-0.027246668934822083,-0.21241120994091034,0.3155370354652405,-0.8075816035270691,-9.585763931274414
1745650834.1835444,-0.05913491174578667,-0.03131694346666336,-0.2057744711637497,0.368740975856781,-0.5765994787216187,-9.826019287109375
1745650834.1865358,-0.05378029868006706,-0.024996470659971237,-0.20302443206310272,0.21839971840381622,-0.5832459926605225,-10.110607147216797
1745650834.1888847,-0.061326764523983,-0.02788717672228813,-0.20121736824512482,0.2906503975391388,-0.452322781085968,-9.73843002319336
1745650834.1905513,-0.08267040550708771,-0.015689797699451447,-0.17714864015579224,0.23876626789569855,-0.7330447435379028,-9.979223251342773
1745650834.2261162,-0.10466661304235458,-0.014739537611603737,-0.16901615262031555,0.488201767206192,-0.3235670030117035,-9.416770935058594
1745650834.2271554,-0.10700036585330963,-0.026467125862836838,-0.16425451636314392,0.4535541534423828,-0.4070848524570465,-9.820947647094727
1745650834.2301786,-0.10102082788944244,-0.02894771099090576,-0.15899723768234253,0.7693383693695068,-0.18984010815620422,-10.189227104187012
1745650834.2316263,-0.10142813622951508,-0.015204762108623981,-0.15159402787685394,0.24970073997974396,-0.2529779076576233,-10.14123249053955
1745650834.2688007,-0.07822861522436142,-0.012911883182823658,-0.14590755105018616,0.23028147220611572,-0.12395670264959335,-9.444864273071289
1745650834.2730334,-0.09174834936857224,-0.03132038190960884,-0.13912156224250793,0.30134761333465576,0.0319325253367424,-9.422694206237793
1745650834.2784483,-0.042040590196847916,-0.01663636416196823,-0.13627904653549194,0.20174174010753632,0.014160418882966042,-10.29044246673584
1745650834.2799835,-0.04557157680392265,-0.009074554778635502,-0.13649550080299377,0.1380741447210312,0.31760722398757935,-9.99692440032959
1745650834.2843204,-0.015040470287203789,-0.01219260971993208,-0.1338558942079544,0.0837237536907196,-0.2940821051597595,-9.316736221313477
1745650834.3138995,-0.015921737998723984,-0.014890164136886597,-0.1290237009525299,0.42229729890823364,-0.1864021122455597,-9.356999397277832
1745650834.314444,-0.03338886797428131,-0.012731822207570076,-0.12290158122777939,0.2497711181640625,-0.7275406122207642,-10.435098648071289
1745650834.3157218,-0.023677658289670944,-0.004445005673915148,-0.11624308675527573,0.2860110402107239,-0.8869401812553406,-10.071317672729492
1745650834.3181503,-0.09508605301380157,0.019220752641558647,0.023503344506025314,0.3559280037879944,-0.3877132833003998,-9.784533500671387
1745650834.355923,-0.10328909009695053,0.023803120478987694,0.025859598070383072,0.24549710750579834,-0.7572070360183716,-9.594243049621582
1745650834.3578947,-0.13695475459098816,0.022642875090241432,0.0325431190431118,0.4509545862674713,-0.3868931829929352,-9.460939407348633
1745650834.3597393,-0.16250398755073547,0.020965438336133957,0.035536058247089386,0.3790033459663391,-0.4850441515445709,-9.907665252685547
1745650834.3618867,-0.1490313708782196,0.020319759845733643,0.04139125719666481,0.6534841656684875,-0.23438039422035217,-9.932255744934082
1745650834.3988392,-0.17446783185005188,0.025231728330254555,0.04405566304922104,0.2881297767162323,0.08444970101118088,-9.737051010131836
1745650834.4031398,-0.15212953090667725,0.023179057985544205,0.04978194087743759,0.3353131115436554,-0.2342119961977005,-9.639325141906738
1745650834.4088266,-0.15115886926651,0.018139470368623734,0.052796535193920135,0.3911651372909546,0.49809733033180237,-9.533808708190918
1745650834.4101734,-0.14106225967407227,0.022896600887179375,0.05593153089284897,0.30621498823165894,0.03895041346549988,-10.042523384094238
1745650834.4139326,-0.10686473548412323,0.021250756457448006,0.05715098977088928,0.3906121850013733,0.5223737955093384,-9.697478294372559
1745650834.444723,-0.11210288107395172,0.026111384853720665,0.05963419750332832,0.24616558849811554,0.2318873107433319,-9.56556510925293
1745650834.447602,-0.0891762524843216,0.01915302500128746,0.06017820164561272,0.5920337438583374,0.1623847484588623,-9.666292190551758
1745650834.4528766,-0.09334997832775116,0.0180641021579504,0.06607143580913544,0.44623464345932007,0.1313367635011673,-10.008199691772461
1745650834.455219,-0.08452868461608887,0.025458624586462975,0.06625572592020035,0.48216551542282104,-0.29263266921043396,-9.867886543273926
1745650834.4856071,-0.10028444230556488,0.023836135864257812,0.07190060615539551,0.32319408655166626,0.03878626227378845,-9.477367401123047
1745650834.4892535,-0.12029242515563965,0.01727096363902092,0.07474427670240402,0.4292491376399994,-0.43701428174972534,-9.640031814575195
1745650834.4929986,-0.10624390840530396,0.014671671204268932,0.08075661212205887,0.5918959379196167,0.07909172028303146,-9.81955337524414
1745650834.4964082,-0.1399003565311432,0.026545679196715355,0.08052898198366165,0.1835867464542389,-0.1286475658416748,-10.094569206237793
1745650834.5266652,-0.11921427398920059,0.019339077174663544,0.08379537612199783,0.3798571527004242,-0.21721777319908142,-9.527849197387695
1745650834.5311882,-0.13983233273029327,0.020470375195145607,0.08526577800512314,0.30971187353134155,0.23805229365825653,-9.290799140930176
1745650834.534027,-0.14546607434749603,0.017052453011274338,0.09001608937978745,0.4420221447944641,-0.3942034840583801,-10.091360092163086
1745650834.537052,-0.1233401894569397,0.017070138826966286,0.09364897757768631,0.3494459092617035,0.31138837337493896,-9.913559913635254
1745650834.5399349,-0.1472361534833908,0.027173977345228195,0.09629540145397186,0.30875545740127563,-0.15667572617530823,-9.584283828735352
1745650834.5762362,-0.12970146536827087,0.02206578478217125,0.10762003809213638,0.19843079149723053,0.263784795999527,-9.661206245422363
1745650834.5792098,-0.130161315202713,0.014800948090851307,0.1079527884721756,0.48972636461257935,0.025247912853956223,-9.394767761230469
1745650834.5809686,-0.11265788227319717,0.011906414292752743,0.11050232499837875,0.512785792350769,0.4272025525569916,-9.765392303466797
1745650834.582706,-0.1330089271068573,0.020968958735466003,0.11164568364620209,0.36517930030822754,0.04005860164761543,-10.289932250976562
1745650834.6139116,-0.10082155466079712,0.013722327537834644,0.1138843297958374,0.3836672604084015,0.23322637379169464,-9.660516738891602
1745650834.6171272,-0.11771869659423828,0.017360826954245567,0.11699775606393814,0.3840833604335785,0.25734084844589233,-9.247599601745605
1745650834.6185222,-0.11884895712137222,0.007479548454284668,0.1201077476143837,0.47897449135780334,-0.07764341682195663,-9.906119346618652
1745650834.6192348,-0.1013689860701561,0.010856433771550655,0.1216609925031662,0.3197462260723114,0.2157183587551117,-10.090492248535156
1745650834.6213357,-0.12623555958271027,0.01679183728992939,0.1257134974002838,0.4013145864009857,-0.06364718824625015,-9.70296573638916
1745650834.657607,-0.11776535212993622,0.0113917775452137,0.12710586190223694,0.2784472405910492,0.22467967867851257,-9.331514358520508
1745650834.658593,-0.13468220829963684,0.0071485317312181,0.1300995796918869,0.5201951265335083,-0.09645882993936539,-9.723799705505371
1745650834.660409,-0.12771104276180267,0.013960863463580608,0.13284911215305328,0.47533464431762695,0.1929466277360916,-10.057586669921875
1745650834.6619554,-0.1430046111345291,0.018645484000444412,0.13779933750629425,0.38679295778274536,-0.0025542168878018856,-9.823957443237305
1745650834.7056801,-0.12875768542289734,-0.0014812999870628119,0.21846134960651398,0.6445066332817078,0.307319700717926,-9.844594955444336
1745650834.7057576,-0.12172333151102066,0.0065522887744009495,0.22030377388000488,0.5110066533088684,0.4132245182991028,-9.747075080871582
1745650834.7062223,-0.13399441540241241,0.002269019605591893,0.22329500317573547,0.6831796765327454,0.5519570112228394,-9.625292778015137
1745650834.7077765,-0.12395856529474258,-0.008084496483206749,0.22354981303215027,0.6517862677574158,0.6631861925125122,-9.909513473510742
1745650834.7436602,-0.11860191822052002,0.0030930263455957174,0.22423958778381348,0.5933578610420227,0.5973598957061768,-10.019765853881836
1745650834.7458344,-0.12676000595092773,0.0038039498031139374,0.22590041160583496,0.49149689078330994,0.7313040494918823,-9.635810852050781
1745650834.7477708,-0.10491247475147247,-0.004097886383533478,0.22571468353271484,0.5194247961044312,0.5776063799858093,-9.462307929992676
1745650834.7496138,-0.10114012658596039,-0.0018561005126684904,0.23190632462501526,0.6487240791320801,0.7556291818618774,-9.836936950683594
1745650834.7847357,-0.09380441159009933,0.0004995063063688576,0.23284068703651428,0.40072470903396606,0.6245348453521729,-10.1705961227417
1745650834.78687,-0.07178410142660141,0.0034727142192423344,0.2374851256608963,0.5553548336029053,0.4430982172489166,-9.617483139038086
1745650834.7881932,-0.07248421013355255,0.0015953693073242903,0.24154779314994812,0.48719388246536255,0.6500452756881714,-9.2944974899292
1745650834.7904677,-0.08016355335712433,-0.003110082121565938,0.24465277791023254,0.5657531023025513,0.19932159781455994,-10.0716552734375
1745650834.7916026,-0.07300067692995071,-0.002366869244724512,0.24658076465129852,0.5329990983009338,0.473080575466156,-10.162480354309082
1745650834.8346903,-0.09167426824569702,0.005804647691547871,0.2489626109600067,0.48308438062667847,0.19994154572486877,-9.588913917541504
1745650834.8347847,-0.11998288333415985,-0.0009569294634275138,0.25098079442977905,0.5713710784912109,0.278511106967926,-9.374616622924805
1745650834.8348339,-0.12250299751758575,-0.004784771241247654,0.25238457322120667,0.4896664023399353,0.24399463832378387,-9.928805351257324
1745650834.8369017,-0.13756290078163147,-0.003076589433476329,0.25270289182662964,0.6886827349662781,0.409257709980011,-10.085902214050293
1745650834.872706,-0.14490386843681335,0.0008389450376853347,0.25511598587036133,0.4884193539619446,0.5640544295310974,-9.73982048034668
1745650834.8753722,-0.13534513115882874,-0.005657896399497986,0.2571602165699005,0.562707781791687,0.5158562064170837,-9.486970901489258
1745650834.8794065,-0.1301192045211792,-0.009710414335131645,0.2605481743812561,0.5218023657798767,0.7618569135665894,-9.7993803024292
1745650834.8842432,-0.11776025593280792,0.004018628038465977,0.26355189085006714,0.5176457166671753,0.6500247120857239,-10.009546279907227
1745650834.888815,-0.10353843122720718,-0.000309774826746434,0.26853227615356445,0.4913693070411682,0.8584033846855164,-9.685503005981445
1745650834.9174044,-0.08645985275506973,-0.008057599887251854,0.26956290006637573,0.5880693197250366,0.5652786493301392,-9.415458679199219
1745650834.926756,-0.10427025705575943,-0.0019722951110452414,0.271598756313324,0.6436830759048462,0.3390881419181824,-9.873797416687012
1745650834.9268663,-0.11373241245746613,-0.009302938356995583,0.276397705078125,0.5537773370742798,0.5172301530838013,-10.022603034973145
1745650834.9278364,-0.10442788898944855,-0.002730580512434244,0.2773962616920471,0.45001569390296936,0.46157675981521606,-9.736556053161621
1745650834.958803,-0.1151483803987503,-0.004899650812149048,0.28273043036460876,0.6092174649238586,0.6256251931190491,-9.427133560180664
1745650834.961504,-0.10939489305019379,-0.009600387886166573,0.28277090191841125,0.4096476435661316,0.6599153280258179,-9.878889083862305
1745650834.9619334,-0.10030605643987656,-0.008958506397902966,0.2851860523223877,0.5370947122573853,0.6773964762687683,-10.01325511932373
1745650834.9655766,-0.09647105634212494,-0.0077884867787361145,0.28618013858795166,0.43313226103782654,0.7744839787483215,-9.731033325195312
1745650835.0018797,-0.09507487714290619,-0.004232400096952915,0.28887683153152466,0.4677208960056305,0.6035786867141724,-9.510494232177734
1745650835.003952,-0.10040712356567383,-0.01323601882904768,0.28896230459213257,0.5572466254234314,0.6666762232780457,-9.69010066986084
1745650835.007855,-0.0926053375005722,-0.010055368766188622,0.28809481859207153,0.6313804388046265,0.6539723873138428,-10.012635231018066
1745650835.0097554,-0.10868189483880997,-0.007580717094242573,0.2912176549434662,0.7002841830253601,0.6775498390197754,-9.863917350769043
1745650835.0431693,-0.0977565199136734,-0.011689668521285057,0.2924851179122925,0.4328695237636566,0.6238728761672974,-9.612537384033203
1745650835.045968,-0.10678160190582275,-0.016401663422584534,0.2929421067237854,0.6334148645401001,0.5765944719314575,-9.596525192260742
1745650835.0504813,-0.07831702381372452,-0.028182540088891983,0.3335261344909668,0.49795255064964294,0.8676916360855103,-9.744318008422852
1745650835.0540128,-0.0781940445303917,-0.024419406428933144,0.33334431052207947,0.5345943570137024,0.6208200454711914,-9.863247871398926
1745650835.0564687,-0.07554490119218826,-0.03407386690378189,0.33594006299972534,0.49632635712623596,1.0011669397354126,-9.704137802124023
1745650835.0919957,-0.07859772443771362,-0.02787761762738228,0.3343236446380615,0.4896736145019531,0.6884639859199524,-9.780424118041992
1745650835.09303,-0.07867834717035294,-0.03147401660680771,0.3370869755744934,0.5556075572967529,0.9137367010116577,-9.707578659057617
1745650835.0963738,-0.08046884089708328,-0.0289442278444767,0.3358304500579834,0.38631170988082886,0.8019525408744812,-9.815037727355957
1745650835.1007905,-0.07565191388130188,-0.031359780579805374,0.33530351519584656,0.6116455793380737,0.8423246145248413,-9.658106803894043
1745650835.1297288,-0.07473050057888031,-0.03180433437228203,0.3378748595714569,0.4938272535800934,0.9795898199081421,-9.718124389648438
1745650835.1311638,-0.07200571149587631,-0.033671751618385315,0.33809152245521545,0.5274006724357605,0.7663681507110596,-9.877931594848633
1745650835.1334243,-0.06739582121372223,-0.033425383269786835,0.34040313959121704,0.3884011209011078,0.9085592031478882,-9.760391235351562
1745650835.1361663,-0.06261284649372101,-0.025932544842362404,0.34245580434799194,0.503993034362793,0.7787017822265625,-9.528543472290039
1745650835.137693,-0.07332150638103485,-0.03393608331680298,0.34445419907569885,0.5773882865905762,0.9028908014297485,-9.714212417602539
1745650835.1746497,-0.05480348318815231,-0.033661648631095886,0.3429206311702728,0.46158933639526367,0.950663685798645,-9.997970581054688
1745650835.1758492,-0.06379004567861557,-0.032474033534526825,0.3420317769050598,0.5744256377220154,0.7877644896507263,-9.80683708190918
1745650835.1780133,-0.05939175933599472,-0.029836053028702736,0.3431543707847595,0.37707334756851196,0.9598908424377441,-9.502405166625977
1745650835.1792378,-0.07773715257644653,-0.032916001975536346,0.34265369176864624,0.5587606430053711,0.6485835909843445,-9.682214736938477
1745650835.214099,-0.062047623097896576,-0.03848956897854805,0.34428781270980835,0.5184929966926575,0.8966126441955566,-9.906068801879883
1745650835.2191715,-0.07709804177284241,-0.02654215134680271,0.3445032835006714,0.5300267338752747,0.746996283531189,-9.881505966186523
1745650835.2202337,-0.07353603839874268,-0.03609626367688179,0.34684035181999207,0.4368184208869934,0.8793281316757202,-9.589717864990234
1745650835.22397,-0.06993809342384338,-0.034189000725746155,0.3451348841190338,0.4023214280605316,0.8410870432853699,-9.64629077911377
1745650835.2282887,-0.07406081259250641,-0.03672961890697479,0.349463552236557,0.6479395031929016,0.9272750020027161,-9.765851974487305
1745650835.2611117,-0.06863769143819809,-0.03148485720157623,0.34728527069091797,0.4014565050601959,0.9206134676933289,-9.982399940490723
1745650835.26554,-0.07017945498228073,-0.03469222038984299,0.34757179021835327,0.5909653902053833,0.9469044804573059,-9.524450302124023
1745650835.2697842,-0.06848893314599991,-0.03622427582740784,0.34977802634239197,0.3869372010231018,0.8442872166633606,-9.833504676818848
1745650835.2748551,-0.0733710378408432,-0.035442449152469635,0.3499431908130646,0.5255393981933594,0.772919237613678,-9.873842239379883
1745650835.3058999,-0.06387555599212646,-0.034048546105623245,0.35136690735816956,0.4503780007362366,0.994032084941864,-9.589518547058105
1745650835.3092449,-0.0772494226694107,-0.032879579812288284,0.35436898469924927,0.5032215118408203,0.843203067779541,-9.648603439331055
1745650835.3108141,-0.06274396926164627,-0.0407596230506897,0.35156702995300293,0.47076281905174255,1.124204397201538,-9.827932357788086
1745650835.3147693,-0.0612206757068634,-0.03275638818740845,0.3517824113368988,0.4842532277107239,0.9165887832641602,-9.928234100341797
1745650835.3469567,-0.06101786345243454,-0.03565738722681999,0.35045668482780457,0.49131688475608826,1.0447709560394287,-9.675423622131348
1745650835.3504272,-0.05885310843586922,-0.034162428230047226,0.3506893217563629,0.3388233184814453,0.9190627336502075,-9.600500106811523
1745650835.352045,-0.06333859264850616,-0.040144000202417374,0.350347101688385,0.5761358737945557,0.8349412083625793,-9.669276237487793
1745650835.3536808,-0.05830106884241104,-0.03641267493367195,0.35305672883987427,0.4872243404388428,1.0024750232696533,-9.887707710266113
1745650835.386813,-0.06519797444343567,-0.03175683692097664,0.35239726305007935,0.5200179219245911,0.8523618578910828,-9.888216972351074
1745650835.3904586,-0.05918760970234871,-0.037194572389125824,0.3500632643699646,0.36431190371513367,1.0169429779052734,-9.606529235839844
1745650835.3929956,-0.057381920516490936,-0.03637460619211197,0.3537065386772156,0.5530638694763184,0.892281711101532,-9.519662857055664
1745650835.398621,-0.03427354246377945,-0.04702641814947128,0.3294016718864441,0.45476141571998596,0.8386558294296265,-9.872869491577148
1745650835.4005692,-0.032571546733379364,-0.045945875346660614,0.3295719027519226,0.4074198603630066,0.7001214027404785,-10.060132026672363
1745650835.432929,-0.047591209411621094,-0.04342927038669586,0.3323976993560791,0.45282411575317383,0.9260722994804382,-9.552998542785645
1745650835.435871,-0.03106858767569065,-0.04265831410884857,0.33201199769973755,0.32645219564437866,1.0913949012756348,-9.475324630737305
1745650835.438315,-0.04546569287776947,-0.04938804730772972,0.3312914967536926,0.4192543029785156,1.0916651487350464,-9.899540901184082
1745650835.4400241,-0.008728832006454468,-0.04365801811218262,0.33010610938072205,0.26114365458488464,1.1669737100601196,-10.029959678649902
1745650835.4731627,-0.015223813243210316,-0.03435443341732025,0.32907676696777344,0.34148603677749634,1.234204888343811,-9.503026008605957
1745650835.4761224,-0.009607179090380669,-0.04704449325799942,0.3301249146461487,0.31067317724227905,1.0982398986816406,-9.467905044555664
1745650835.4781778,0.015896111726760864,-0.04280468076467514,0.3286246359348297,0.3972982168197632,1.116773009300232,-9.873098373413086
1745650835.4810095,-0.00993146188557148,-0.039696354418992996,0.3294801115989685,0.4661574363708496,1.0204991102218628,-10.089944839477539
1745650835.4827971,0.018483523279428482,-0.038873571902513504,0.3276847004890442,0.364022433757782,0.9061900973320007,-9.644944190979004
1745650835.5177536,1.9484014046611264e-05,-0.03961168974637985,0.33099454641342163,0.46979016065597534,0.8966957926750183,-9.393403053283691
