timestamp,angular_vel_x,angular_vel_y,angular_vel_z,linear_acc_x,linear_acc_y,linear_acc_z
1745665824.7093666,0.182356595993042,0.014828458428382874,-0.31776800751686096,0.7361525297164917,-0.09388231486082077,-9.308053016662598
1745665824.7094355,0.18242156505584717,0.006275718566030264,-0.32166236639022827,0.9727256894111633,-0.5608009099960327,-9.919093132019043
1745665824.7094734,0.18192213773727417,0.011296053417026997,-0.32224518060684204,0.7553153038024902,-0.15369676053524017,-10.101188659667969
1745665824.7352514,0.1897345930337906,0.014443540945649147,-0.3245435953140259,1.0328941345214844,-0.43772631883621216,-9.64842700958252
1745665824.7488558,0.1658635437488556,-0.0025075795128941536,-0.32995492219924927,0.8819065093994141,-0.3501451015472412,-9.513396263122559
1745665824.7490132,0.18445774912834167,0.0002771374711301178,-0.3340144753456116,0.9432314038276672,-0.47884926199913025,-9.917898178100586
1745665824.7495928,0.16803191602230072,-0.00262969802133739,-0.333766371011734,0.9409486055374146,-0.3751335144042969,-9.939379692077637
1745665824.749707,0.15660284459590912,0.002704204525798559,-0.3373272716999054,0.8224202990531921,-0.4926092028617859,-9.614787101745605
1745665824.7804627,0.17462113499641418,-0.008183484897017479,-0.3375375270843506,0.9063493609428406,-0.34803420305252075,-9.500576972961426
1745665824.7805586,0.14782240986824036,-0.008599615655839443,-0.3411121964454651,0.7074609994888306,-0.27762582898139954,-9.939552307128906
1745665824.7823787,0.18441501259803772,-0.008724133484065533,-0.3418484628200531,0.9181351661682129,-0.41577157378196716,-10.021681785583496
1745665824.785054,0.16119886934757233,-0.025646710768342018,-0.3556149899959564,0.9376114010810852,-0.4484167993068695,-9.745832443237305
1745665824.8236601,0.14196181297302246,-0.03246496990323067,-0.358665406703949,0.85968017578125,-0.5332215428352356,-9.76921558380127
1745665824.8259156,0.16619089245796204,-0.027131015434861183,-0.36155378818511963,0.8509511947631836,-0.40140753984451294,-9.767351150512695
1745665824.8267992,0.13688267767429352,-0.03532486408948898,-0.36148253083229065,0.8571294546127319,-0.5759466290473938,-9.832653045654297
1745665824.8286605,0.16373488306999207,-0.03270203247666359,-0.3610023856163025,0.7394024133682251,-0.4953281879425049,-9.834111213684082
1745665824.864387,0.15192267298698425,-0.04235803335905075,-0.36153489351272583,0.9451549649238586,-0.5483222603797913,-9.739060401916504
1745665824.8655446,0.15525680780410767,-0.03974951431155205,-0.36224764585494995,0.7496647834777832,-0.5118064284324646,-9.841386795043945
1745665824.8673108,0.15850764513015747,-0.04044579714536667,-0.36385223269462585,0.9197656512260437,-0.4542234539985657,-9.737746238708496
1745665824.8683658,0.15436908602714539,-0.04406256601214409,-0.3659098744392395,0.7368571162223816,-0.5970055460929871,-9.687639236450195
1745665824.870745,0.1514221876859665,-0.04288170486688614,-0.3666638433933258,0.8499301075935364,-0.5285776853561401,-9.691155433654785
1745665824.9126966,0.13717222213745117,-0.049993254244327545,-0.36774641275405884,0.8306530714035034,-0.7200649976730347,-9.98089599609375
1745665824.9127762,0.15918247401714325,-0.042263276875019073,-0.37075483798980713,0.6529124975204468,-0.4080367982387543,-9.820879936218262
1745665824.9128428,0.1261952668428421,-0.04832793399691582,-0.37209373712539673,0.9874079823493958,-0.7376638054847717,-9.52066421508789
1745665824.9144752,0.14731910824775696,-0.047977931797504425,-0.37548747658729553,0.735983669757843,-0.47741061449050903,-9.696211814880371
1745665824.9514937,0.08756877481937408,-0.05962269380688667,-0.3934217393398285,0.663026750087738,-0.5284515619277954,-9.448099136352539
1745665824.9536843,0.09617744386196136,-0.04882090538740158,-0.39812374114990234,0.6318535208702087,-0.7909132242202759,-9.829051971435547
1745665824.957285,0.09430385380983353,-0.05855301767587662,-0.3965023159980774,0.6701165437698364,-0.7029743194580078,-9.868387222290039
1745665824.9600155,0.09234104305505753,-0.046570856124162674,-0.39812523126602173,0.5776932239532471,-0.761102557182312,-9.684906959533691
1745665824.9923115,0.08050163835287094,-0.05130825564265251,-0.3963984549045563,0.7332332730293274,-0.9807580709457397,-9.586688041687012
1745665824.9947212,0.08540861308574677,-0.05411249399185181,-0.3971426784992218,0.579308807849884,-0.7345250248908997,-9.779095649719238
1745665824.9971964,0.08273760974407196,-0.04129858687520027,-0.39560016989707947,0.7204253077507019,-0.8279374837875366,-9.860981941223145
1745665824.999034,0.06638054549694061,-0.050544388592243195,-0.3965142071247101,0.6051687002182007,-0.9010938405990601,-9.790334701538086
1745665825.0343125,0.091250479221344,-0.04302924871444702,-0.3997000753879547,0.5676859617233276,-0.7193136215209961,-9.523996353149414
1745665825.0375695,0.05535521358251572,-0.04961792752146721,-0.39914941787719727,0.7419339418411255,-0.8066040873527527,-9.649696350097656
1745665825.040425,0.0791110247373581,-0.03853185474872589,-0.39797893166542053,0.5016604661941528,-0.8640945553779602,-9.92524242401123
1745665825.0428858,0.07018747925758362,-0.042957596480846405,-0.39924460649490356,0.7139040231704712,-0.7005231976509094,-9.717028617858887
1745665825.045002,0.06528645008802414,-0.04210836812853813,-0.4007400870323181,0.5288885235786438,-0.8341471552848816,-9.710617065429688
1745665825.080124,0.07737591117620468,-0.04021228104829788,-0.4005245268344879,0.6635019779205322,-0.7497456669807434,-9.660514831542969
1745665825.0825698,0.06021098047494888,-0.04756206274032593,-0.4007154405117035,0.7015022039413452,-0.8364335298538208,-9.802801132202148
1745665825.0887063,0.068240687251091,-0.03589703142642975,-0.39940398931503296,0.6639282703399658,-0.8791381120681763,-9.800724983215332
1745665825.089525,0.05299796536564827,-0.04197758436203003,-0.40044140815734863,0.6955970525741577,-0.8611758947372437,-9.664204597473145
1745665825.1220834,0.07128727436065674,-0.035680659115314484,-0.3989124298095703,0.5274659991264343,-0.7117788791656494,-9.673957824707031
1745665825.125604,0.04591214656829834,-0.0365656316280365,-0.4014606475830078,0.6564038991928101,-0.8797035217285156,-9.782082557678223
1745665825.1272202,0.07891638576984406,-0.037705861032009125,-0.4012804925441742,0.48557406663894653,-0.6845874190330505,-9.779730796813965
1745665825.127292,0.05479512736201286,-0.03263172134757042,-0.4016359746456146,0.6985841989517212,-0.6661518812179565,-9.587108612060547
1745665825.1296265,0.06281028687953949,-0.03417414799332619,-0.40416398644447327,0.5987368226051331,-0.9503620862960815,-9.719257354736328
1745665825.1654031,0.03208550438284874,-0.027999818325042725,-0.3996255397796631,0.6670355200767517,-0.9665647745132446,-9.779128074645996
1745665825.1688426,0.036528099328279495,-0.031091894954442978,-0.40163588523864746,0.6162973046302795,-0.7560652494430542,-9.73265266418457
1745665825.1717103,0.023831557482481003,-0.02062215283513069,-0.4018794000148773,0.5276069641113281,-0.8096120953559875,-9.734563827514648
1745665825.2077398,0.037056487053632736,-0.03182508423924446,-0.40161076188087463,0.6719183325767517,-0.9347996711730957,-9.717338562011719
1745665825.2101054,0.03605915978550911,-0.028252115473151207,-0.40306878089904785,0.5282400250434875,-0.5600582957267761,-9.694818496704102
1745665825.2143288,0.025084439665079117,-0.024730287492275238,-0.40251344442367554,0.749374270439148,-1.0924866199493408,-9.807132720947266
1745665825.2177079,0.04656457155942917,-0.024750588461756706,-0.39972609281539917,0.4802640974521637,-0.6072088479995728,-9.68903636932373
1745665825.2222383,0.023476693779230118,-0.020199468359351158,-0.4005129337310791,0.7426974773406982,-0.9496151804924011,-9.687868118286133
1745665825.250584,0.04086397960782051,-0.02744371071457863,-0.4007881283760071,0.5959556698799133,-0.7549479007720947,-9.793496131896973
1745665825.2527845,0.03417288511991501,-0.020554307848215103,-0.40146517753601074,0.5538410544395447,-0.8644768595695496,-9.834525108337402
1745665825.2558813,0.02310410514473915,-0.025663066655397415,-0.40139731764793396,0.6632527709007263,-0.9396532773971558,-9.68276309967041
1745665825.257983,0.019422773271799088,-0.020473292097449303,-0.4020281434059143,0.47751301527023315,-0.8573759198188782,-9.682768821716309
1745665825.2926989,0.020884525030851364,-0.023934070020914078,-0.4022400379180908,0.7381859421730042,-1.016147255897522,-9.633394241333008
1745665825.2973845,0.007701899856328964,-0.01757042482495308,-0.4006172716617584,0.5088467001914978,-0.7279125452041626,-9.836885452270508
1745665825.2996488,-0.01864771544933319,-0.012171578593552113,-0.38814663887023926,0.6029263734817505,-0.798442542552948,-9.60584831237793
1745665825.301507,-0.03547310084104538,-0.02344815619289875,-0.38678842782974243,0.6287602186203003,-0.9746316075325012,-9.760931968688965
1745665825.3032293,-0.010055129416286945,-0.016665617004036903,-0.3878626823425293,0.47367262840270996,-0.6895939707756042,-9.80903434753418
1745665825.3373642,-0.03818144649267197,-0.017117787152528763,-0.38617828488349915,0.7729660868644714,-0.8777588605880737,-9.700312614440918
1745665825.3404086,-0.012472651898860931,-0.01466919295489788,-0.38355880975723267,0.46078991889953613,-0.7829499840736389,-9.694280624389648
1745665825.3438823,-0.01878908835351467,-0.01620810478925705,-0.3848719298839569,0.6453031897544861,-0.6654981374740601,-9.641578674316406
1745665825.3450847,-0.019689667969942093,-0.01937214285135269,-0.3835224509239197,0.5951670408248901,-0.8235661387443542,-9.894745826721191
1745665825.3812637,-0.006747842766344547,-0.013106564059853554,-0.3811119496822357,0.5568419098854065,-0.7071605324745178,-9.817316055297852
1745665825.3828416,-0.019780736416578293,-0.02251802384853363,-0.381598562002182,0.6711596250534058,-0.8227649927139282,-9.602554321289062
1745665825.3939342,-0.01658100262284279,-0.01773178204894066,-0.38107481598854065,0.5429330468177795,-0.8363184928894043,-9.732848167419434
1745665825.3963137,-0.02855340577661991,-0.017626797780394554,-0.3824997842311859,0.7166534662246704,-0.9482803344726562,-9.762603759765625
1745665825.3984492,-0.018862534314393997,-0.019184820353984833,-0.3806607127189636,0.5519317388534546,-0.6801906228065491,-9.753435134887695
1745665825.4247754,-0.03873682767152786,-0.01686711236834526,-0.38040322065353394,0.6489886045455933,-0.9226692318916321,-9.752378463745117
1745665825.4279578,-0.010012878105044365,-0.022738903760910034,-0.377794086933136,0.5569056272506714,-0.7115628123283386,-9.715592384338379
1745665825.4301186,-0.03097749687731266,-0.01554514467716217,-0.37935295701026917,0.6314449310302734,-0.6667734980583191,-9.730827331542969
1745665825.4337766,-0.02113308571279049,-0.02042636089026928,-0.37809863686561584,0.6412082314491272,-0.9212790727615356,-9.751233100891113
1745665825.4666507,-0.00497420271858573,-0.015512479469180107,-0.3761911392211914,0.3932449519634247,-0.4671851098537445,-9.656194686889648
1745665825.4685185,-0.021565329283475876,-0.018397118896245956,-0.3773096799850464,0.7018330693244934,-0.8493968844413757,-9.741987228393555
1745665825.4685695,0.000856479280628264,-0.018809303641319275,-0.3759635090827942,0.518036961555481,-0.5988479852676392,-9.833081245422363
1745665825.4800026,-0.008465374819934368,-0.01961180754005909,-0.37668201327323914,0.6755527257919312,-0.8533218502998352,-9.818391799926758
1745665825.5090704,-0.011427981778979301,-0.0236329548060894,-0.3725443482398987,0.5770874619483948,-0.8085470199584961,-9.73420524597168
1745665825.5111237,-0.014253216795623302,-0.01705014333128929,-0.37429267168045044,0.5760208964347839,-0.8589932322502136,-9.635819435119629
1745665825.514187,0.006299398839473724,-0.02361447550356388,-0.37205737829208374,0.5045444369316101,-0.5286347270011902,-9.733171463012695
1745665825.5153346,-0.009010367095470428,-0.01744108833372593,-0.3717491626739502,0.6235264539718628,-0.9075632095336914,-9.860201835632324
1745665825.5522094,-0.0019309831550344825,-0.021412339061498642,-0.3667002320289612,0.6502580046653748,-0.7616685628890991,-9.727463722229004
1745665825.5545936,-0.006055696867406368,-0.020563671365380287,-0.36707502603530884,0.498840868473053,-0.8623674511909485,-9.780555725097656
1745665825.5571122,-0.015203197486698627,-0.025214752182364464,-0.36619144678115845,0.7074805498123169,-0.9037102460861206,-9.763017654418945
1745665825.5600111,-0.02143581584095955,-0.025596847757697105,-0.3657782971858978,0.5164625644683838,-0.6734369993209839,-9.800030708312988
1745665825.5619159,-0.012671725824475288,-0.02453361079096794,-0.36794087290763855,0.687446653842926,-0.9114910364151001,-9.689115524291992
1745665825.6031566,-0.02796011231839657,-0.024967901408672333,-0.3670971691608429,0.5431747436523438,-0.48770657181739807,-9.63392448425293
1745665825.6063817,-0.021724281832575798,-0.021202296018600464,-0.36801403760910034,0.5907154083251953,-0.9951850175857544,-9.92987060546875
1745665825.61177,-0.005588221829384565,-0.028516044840216637,-0.3658812642097473,0.5316940546035767,-0.49388226866722107,-9.725423812866211
1745665825.6130471,-0.024011682718992233,-0.022789673879742622,-0.3650394678115845,0.4380139708518982,-0.7649662494659424,-9.686481475830078
1745665825.644954,0.0030358091462403536,-0.026374882087111473,-0.36434921622276306,0.642047107219696,-0.7058584690093994,-9.672494888305664
1745665825.645274,-0.01126070600003004,-0.0273315217345953,-0.36156246066093445,0.5217617750167847,-0.60593581199646,-9.771906852722168
1745665825.6453488,0.0013140272349119186,-0.02297702431678772,-0.3624579906463623,0.708399772644043,-0.8091990351676941,-9.775064468383789
1745665825.647294,0.009839098900556564,-0.021218447014689445,-0.34633105993270874,0.5533539056777954,-0.5034099817276001,-9.772258758544922
1745665825.6803138,-0.013002973981201649,-0.028353044763207436,-0.3443727493286133,0.5540716052055359,-0.7891838550567627,-9.770484924316406
1745665825.6826797,0.014600689522922039,-0.02341018244624138,-0.34334951639175415,0.4862373471260071,-0.6189605593681335,-9.728342056274414
1745665825.6850035,-0.005363158881664276,-0.0333893783390522,-0.34269484877586365,0.6364246606826782,-0.7336723208427429,-9.786407470703125
1745665825.6875157,0.006293591111898422,-0.027146434411406517,-0.34426966309547424,0.4346606135368347,-0.7215243577957153,-9.870662689208984
1745665825.6903462,-0.008686145767569542,-0.026262646540999413,-0.3426569700241089,0.645043671131134,-0.792685329914093,-9.659915924072266
1745665825.7257254,0.002823703456670046,-0.030002286657691002,-0.34306663274765015,0.480135053396225,-0.7371217012405396,-9.570109367370605
1745665825.72709,-0.014097796753048897,-0.023388709872961044,-0.34096819162368774,0.5820075869560242,-0.676082968711853,-9.776422500610352
1745665825.7285433,-0.0058584995567798615,-0.027516890317201614,-0.3429693579673767,0.5201976895332336,-0.8377207517623901,-9.982564926147461
1745665825.7390532,0.006918053142726421,-0.022703593596816063,-0.3396439850330353,0.42095112800598145,-0.43628591299057007,-9.646316528320312
1745665825.7674475,-0.016577383503317833,-0.030227914452552795,-0.34261974692344666,0.5772281289100647,-0.8446797132492065,-9.57099723815918
1745665825.768476,0.016538314521312714,-0.02201160229742527,-0.3419143557548523,0.40885844826698303,-0.5120430588722229,-9.75699234008789
1745665825.7710326,-0.0070482767187058926,-0.0251686479896307,-0.3409697413444519,0.6698366403579712,-0.8190025091171265,-9.830843925476074
1745665825.7722964,0.004835623782128096,-0.022679757326841354,-0.33958473801612854,0.43656548857688904,-0.6774133443832397,-9.789262771606445
1745665825.8109236,0.001440006191842258,-0.021810825914144516,-0.3374360203742981,0.5546574592590332,-0.7931457757949829,-9.698376655578613
1745665825.8136568,-0.008102480322122574,-0.029919719323515892,-0.33634012937545776,0.5177802443504333,-0.7719710469245911,-9.787537574768066
1745665825.8169854,-0.006646771915256977,-0.022656558081507683,-0.33614563941955566,0.4948653280735016,-0.6077791452407837,-9.800064086914062
1745665825.821034,-0.007286810781806707,-0.02815936505794525,-0.33708032965660095,0.6278353333473206,-0.8283808827400208,-9.696901321411133
1745665825.8240108,-0.00033688469557091594,-0.022782187908887863,-0.33568963408470154,0.4078183174133301,-0.3749684691429138,-9.601731300354004
1745665825.8549643,-0.014915363863110542,-0.02312314324080944,-0.33757680654525757,0.6359078884124756,-0.8726665377616882,-9.858407974243164
1745665825.8588521,0.015172665938735008,-0.023680828511714935,-0.33695176243782043,0.3900994658470154,-0.4866155683994293,-9.820947647094727
1745665825.8646138,-0.021065130829811096,-0.021715553477406502,-0.33371251821517944,0.5014786720275879,-0.9651890993118286,-9.790863037109375
1745665825.8676817,-0.006009879056364298,-0.02467365749180317,-0.3340941369533539,0.44822993874549866,-0.4819428324699402,-9.571335792541504
1745665825.899441,-0.02839169278740883,-0.015452943742275238,-0.33313149213790894,0.5687894821166992,-0.6469736695289612,-9.694615364074707
1745665825.9032807,-0.0021392933558672667,-0.022132523357868195,-0.33248013257980347,0.5661457777023315,-0.7636931538581848,-9.8389310836792
1745665825.9061198,-0.006914224475622177,-0.020684057846665382,-0.3315422832965851,0.4229942262172699,-0.3709334433078766,-9.835383415222168
1745665825.9103606,-0.006327365525066853,-0.0213136188685894,-0.3317206799983978,0.5936145186424255,-0.8706762194633484,-9.822179794311523
1745665825.9384813,0.007261614315211773,-0.021553119644522667,-0.3305855393409729,0.33737215399742126,-0.44195491075515747,-9.630627632141113
1745665825.9411793,-0.00687879603356123,-0.02133122831583023,-0.3301418423652649,0.590653121471405,-0.7920569181442261,-9.63676643371582
1745665825.9424503,-0.004238196182996035,-0.023476963862776756,-0.332185834646225,0.4786917567253113,-0.6178274154663086,-9.795928955078125
1745665825.9459317,-0.005418706219643354,-0.014391809701919556,-0.33326661586761475,0.5159052610397339,-0.7492218017578125,-9.855066299438477
1745665825.9476097,-0.007660802453756332,-0.022999241948127747,-0.33024606108665466,0.5965083241462708,-0.6385893821716309,-9.668519973754883
1745665825.984337,-0.020998558029532433,-0.01668301783502102,-0.3316723704338074,0.39058607816696167,-0.7276614904403687,-9.739198684692383
1745665825.9875884,-0.000719980918802321,-0.022604022175073624,-0.3304392099380493,0.5875616073608398,-0.7812229990959167,-9.777094841003418
1745665825.9915743,-0.02096274495124817,-0.01952081359922886,-0.33067458868026733,0.3801526725292206,-0.41648417711257935,-9.700002670288086
1745665826.030146,-0.07298578321933746,-0.05974569171667099,-0.22127607464790344,-0.4049311578273773,-0.05541818216443062,-10.906579971313477
1745665826.0302262,-0.07661781460046768,-0.05623510479927063,-0.22413206100463867,0.0651814416050911,-0.9108025431632996,-9.575881958007812
1745665826.0302825,-0.08268270641565323,-0.06031416729092598,-0.21356400847434998,-0.04317837208509445,-0.6988871693611145,-8.677223205566406
1745665826.0321198,-0.10882434993982315,-0.06119581311941147,-0.19641508162021637,0.5250142812728882,-1.5791963338851929,-9.808633804321289
1745665826.0342426,-0.11342895030975342,-0.06161686033010483,-0.18320603668689728,0.4863477349281311,-0.7887229323387146,-10.797266006469727
1745665826.0706632,-0.13816584646701813,-0.033138908445835114,-0.17498844861984253,0.3407122790813446,-0.8838058710098267,-9.997294425964355
1745665826.0740416,-0.13007013499736786,-0.05713067576289177,-0.16999928653240204,0.5825310945510864,-0.20060603320598602,-8.687555313110352
1745665826.0790632,-0.1377582848072052,-0.07858806848526001,-0.17277051508426666,0.31186747550964355,0.13418138027191162,-9.976446151733398
1745665826.0835142,-0.1290723830461502,-0.0578821524977684,-0.1786145269870758,0.16191449761390686,-0.20051316916942596,-11.123377799987793
1745665826.11702,-0.11295320093631744,-0.04252602905035019,-0.18096843361854553,-0.24711771309375763,0.012964827008545399,-9.683370590209961
1745665826.11718,-0.1108582466840744,-0.053912073373794556,-0.17610731720924377,0.12329448759555817,-0.04028159752488136,-8.407510757446289
1745665826.118173,-0.08438078314065933,-0.0652882307767868,-0.16763398051261902,0.3644087016582489,-0.08074751496315002,-9.852002143859863
1745665826.1214273,-0.04928285628557205,-0.046782564371824265,-0.1600063592195511,0.32220780849456787,-0.12724396586418152,-11.114367485046387
1745665826.1238172,-0.033351462334394455,-0.03799205273389816,-0.15013021230697632,0.4682185649871826,-0.4868663251399994,-9.878114700317383
1745665826.1560833,-0.0217401422560215,-0.046566203236579895,-0.14276449382305145,0.2604619264602661,-0.3358432650566101,-8.699145317077637
1745665826.1581407,-0.03989335894584656,-0.055006809532642365,-0.13821667432785034,0.351524293422699,-0.7250126600265503,-9.896306991577148
1745665826.16042,-0.033295974135398865,-0.04934980720281601,-0.13531851768493652,0.08603288978338242,-0.46653860807418823,-10.822598457336426
1745665826.1620493,-0.06826955080032349,-0.024872437119483948,-0.13610979914665222,-0.08435820043087006,-0.7905741333961487,-9.794468879699707
1745665826.2000039,-0.08654684573411942,-0.042476553469896317,-0.13585121929645538,0.01127157174050808,-0.6728267073631287,-8.664895057678223
1745665826.2015517,-0.12189169973134995,-0.04122291877865791,-0.13512971997261047,0.21505728363990784,-0.754105269908905,-9.637334823608398
1745665826.2094266,-0.14126121997833252,-0.03226964920759201,-0.13438138365745544,0.42376065254211426,-0.7954593896865845,-10.847613334655762
1745665826.2151864,-0.10780584812164307,-0.010054755955934525,-0.07556130737066269,0.5975752472877502,-0.3743647634983063,-10.891130447387695
1745665826.2438176,-0.10603947937488556,0.0010746590560302138,-0.06891057640314102,0.7818472981452942,-0.32183441519737244,-9.89826488494873
1745665826.2471683,-0.14248481392860413,-0.0030679393094033003,-0.05916321277618408,0.7014713883399963,-0.44824331998825073,-8.954740524291992
1745665826.249227,-0.10991792380809784,-0.0035388164687901735,-0.049418855458498,0.8526991009712219,-0.25412726402282715,-9.738381385803223
1745665826.2516255,-0.12737007439136505,-0.003629123093560338,-0.038642194122076035,0.690182089805603,0.1446240246295929,-10.676806449890137
1745665826.2832031,-0.0761491060256958,0.011766316369175911,-0.033342424780130386,0.39419251680374146,0.00856531597673893,-10.091021537780762
1745665826.287466,-0.06297605484724045,0.015611839480698109,-0.02863963320851326,0.30427464842796326,0.35861286520957947,-8.864997863769531
1745665826.289353,-0.0479731485247612,0.008375213481485844,-0.023752529174089432,0.1613883227109909,0.01521306298673153,-9.610496520996094
1745665826.2934778,-0.026632439345121384,0.01484749186784029,-0.019856741651892662,0.428777277469635,-0.13777311146259308,-10.395180702209473
1745665826.296775,-0.03635536879301071,0.03492162749171257,-0.014092659577727318,0.1060144305229187,-0.5532816052436829,-10.11341667175293
1745665826.3289526,-0.05149898678064346,0.035505663603544235,-0.0051127104088664055,0.4247303903102875,-0.8751506805419922,-9.049161911010742
1745665826.3301406,-0.09929070621728897,0.02599894441664219,0.002272670390084386,0.6252859234809875,-0.9945332407951355,-9.442522048950195
1745665826.333207,-0.12392786890268326,0.041066158562898636,0.01002100482583046,0.6706280708312988,-1.0880672931671143,-10.476094245910645
1745665826.335672,-0.1763145625591278,0.041561223566532135,0.016313347965478897,0.6696010231971741,-0.8867332339286804,-10.160673141479492
1745665826.3734367,-0.186655193567276,0.04650570824742317,0.022561926394701004,0.4896515905857086,-0.6384918689727783,-9.34133529663086
1745665826.3748372,-0.10985349118709564,0.05724877864122391,0.14241181313991547,0.4124070107936859,0.05220440775156021,-9.880144119262695
1745665826.375007,-0.11024467647075653,0.045811790972948074,0.14542140066623688,0.4495027959346771,0.0960388034582138,-9.525842666625977
1745665826.3761213,-0.10740028321743011,0.04892025142908096,0.14919999241828918,0.3840382397174835,0.07643814384937286,-9.502646446228027
1745665826.3779798,-0.11239127069711685,0.04904572665691376,0.15077409148216248,0.6842752695083618,-0.08533041924238205,-9.815459251403809
1745665826.4140472,-0.11632887274026871,0.04293336346745491,0.15442919731140137,0.49255210161209106,0.08183102309703827,-9.92136287689209
1745665826.4172363,-0.12725503742694855,0.04512464627623558,0.15707068145275116,0.6135053634643555,-0.22835147380828857,-9.649258613586426
1745665826.4200761,-0.14080408215522766,0.043504465371370316,0.15940874814987183,0.5518450140953064,-0.0430574007332325,-9.5327730178833
1745665826.4201667,-0.14889328181743622,0.04530857130885124,0.16484899818897247,0.582687258720398,-0.09138716757297516,-9.746210098266602
1745665826.4589453,-0.15246613323688507,0.03654233738780022,0.1674313247203827,0.6621424555778503,0.03745906800031662,-9.773183822631836
1745665826.460981,-0.14432720839977264,0.042948123067617416,0.17103266716003418,0.44744402170181274,0.26625770330429077,-9.778112411499023
1745665826.462614,-0.1394863873720169,0.04010666161775589,0.17528127133846283,0.5570582151412964,0.255408376455307,-9.576488494873047
1745665826.469383,-0.12765228748321533,0.03110099770128727,0.17494603991508484,0.38790592551231384,0.46327123045921326,-9.60975170135498
1745665826.4993534,-0.1106928363442421,0.035659268498420715,0.1768682897090912,0.6407836675643921,0.3206809163093567,-9.781885147094727
1745665826.5002291,-0.10910556465387344,0.03131755441427231,0.18036243319511414,0.4797106385231018,0.3578198552131653,-9.917492866516113
1745665826.5031738,-0.09353610128164291,0.03221721202135086,0.1839616596698761,0.5069340467453003,0.2535027265548706,-9.609709739685059
1745665826.5042973,-0.10212601721286774,0.024770691990852356,0.1856597363948822,0.6630443930625916,0.0472242645919323,-9.520729064941406
1745665826.5087574,-0.10261309146881104,0.027923334389925003,0.18911080062389374,0.5304445028305054,0.13856491446495056,-9.85213851928711
1745665826.5425544,-0.1154433935880661,0.021421318873763084,0.1925162374973297,0.7045990228652954,-0.03506571799516678,-9.84620189666748
1745665826.544717,-0.11318974196910858,0.020399075001478195,0.19282236695289612,0.5100789070129395,0.2394641637802124,-9.632143020629883
1745665826.5459735,-0.12891089916229248,0.02312060259282589,0.19513270258903503,0.5784810185432434,0.010916519910097122,-9.673096656799316
1745665826.547506,-0.13101497292518616,0.01137073989957571,0.1966855227947235,0.4641420841217041,0.2000086009502411,-9.761311531066895
1745665826.5862918,-0.13208644092082977,-0.001038647023960948,0.21703603863716125,0.5586973428726196,0.18636123836040497,-9.866708755493164
1745665826.5965214,-0.13090161979198456,0.004578458610922098,0.21849803626537323,0.522257387638092,0.32076495885849,-9.843080520629883
1745665826.5965953,-0.13957075774669647,0.0052347867749631405,0.22034993767738342,0.6115080714225769,0.2642177641391754,-9.568446159362793
1745665826.5966482,-0.1286790668964386,-0.002873823745176196,0.22340014576911926,0.4129449427127838,0.3819119334220886,-9.640241622924805
1745665826.630612,-0.1289348155260086,-0.0040002246387302876,0.2261466234922409,0.6935462951660156,0.2568442225456238,-9.816559791564941
1745665826.632328,-0.12591232359409332,0.00019835559942293912,0.22981679439544678,0.47357726097106934,0.346673846244812,-9.932798385620117
1745665826.6354501,-0.11284397542476654,-0.0019396822899580002,0.2346169501543045,0.5216332077980042,0.36469313502311707,-9.610605239868164
1745665826.637155,-0.1246723160147667,-0.01450958289206028,0.2358168065547943,0.5056912302970886,0.30357056856155396,-9.628560066223145
1745665826.6412692,-0.10843740403652191,-0.003144663292914629,0.2353724241256714,0.43473172187805176,0.38789576292037964,-9.866846084594727
1745665826.672095,-0.13195697963237762,-0.007974144071340561,0.237715482711792,0.6016665697097778,0.2539711892604828,-9.798460006713867
1745665826.673339,-0.11305701732635498,-0.012579122558236122,0.23883728682994843,0.42042821645736694,0.35337623953819275,-9.648235321044922
1745665826.6750302,-0.1349489688873291,-0.011275656521320343,0.24117986857891083,0.6768215894699097,0.23842044174671173,-9.705304145812988
1745665826.6773846,-0.13608631491661072,-0.01426735706627369,0.24118907749652863,0.45842990279197693,0.2737007737159729,-9.919443130493164
1745665826.714314,-0.13393467664718628,-0.012942393310368061,0.24470031261444092,0.5625707507133484,0.2395426332950592,-9.715363502502441
1745665826.7166557,-0.1407509297132492,-0.014444470405578613,0.248195618391037,0.5654169321060181,0.3426806926727295,-9.588841438293457
1745665826.7185283,-0.1281832754611969,-0.03405218571424484,0.2891036570072174,0.5176399350166321,0.6354250907897949,-9.827871322631836
1745665826.720157,-0.12784215807914734,-0.02459322288632393,0.29161903262138367,0.4372275769710541,0.4653092324733734,-9.976827621459961
1745665826.722367,-0.12769198417663574,-0.03646162897348404,0.29204249382019043,0.515533983707428,0.5315190553665161,-9.702775955200195
1745665826.7616842,-0.1263197958469391,-0.027954095974564552,0.2938489317893982,0.39092880487442017,0.6648313403129578,-9.63916301727295
1745665826.761783,-0.13070662319660187,-0.027797987684607506,0.29530444741249084,0.5506569147109985,0.3941398561000824,-9.873001098632812
1745665826.76188,-0.1258470118045807,-0.03339381515979767,0.2962280511856079,0.3907794952392578,0.7280389666557312,-9.872456550598145
1745665826.7656937,-0.11689846217632294,-0.030027110129594803,0.2966626286506653,0.6001064777374268,0.5673125982284546,-9.7981538772583
1745665826.8001716,-0.12180578708648682,-0.031774766743183136,0.2970372438430786,0.4039728045463562,0.7925391793251038,-9.78542423248291
1745665826.8021662,-0.1176663264632225,-0.029786262661218643,0.29763758182525635,0.42673248052597046,0.5443021655082703,-9.778631210327148
1745665826.8056185,-0.11314499378204346,-0.03462572023272514,0.2992757260799408,0.5725446939468384,0.678040087223053,-9.693196296691895
1745665826.8083305,-0.12092733383178711,-0.027156967669725418,0.2997388243675232,0.33380261063575745,0.6799628734588623,-9.924818992614746
1745665826.8099906,-0.11495473235845566,-0.03354666382074356,0.30221623182296753,0.5642070770263672,0.42008376121520996,-9.827801704406738
1745665826.8439932,-0.11600317806005478,-0.02837054803967476,0.30271682143211365,0.42063674330711365,0.768501877784729,-9.639739990234375
1745665826.8464537,-0.11986694484949112,-0.028087371960282326,0.30477482080459595,0.5124953985214233,0.5234969854354858,-9.812203407287598
1745665826.8550196,-0.11367087066173553,-0.03610900044441223,0.30536943674087524,0.42143720388412476,0.7280441522598267,-9.918207168579102
1745665826.8550892,-0.11098672449588776,-0.02449188381433487,0.3063419461250305,0.49690812826156616,0.6485632658004761,-9.73497486114502
1745665826.887122,-0.11493915319442749,-0.032654400914907455,0.30774345993995667,0.5143081545829773,0.6046649813652039,-9.667058944702148
1745665826.8896909,-0.11384924501180649,-0.028952723369002342,0.3087218999862671,0.30155056715011597,0.7342183589935303,-9.91238784790039
1745665826.8961658,-0.12030694633722305,-0.03214640915393829,0.31204748153686523,0.5743228793144226,0.4249897003173828,-9.87304973602295
1745665826.8986788,-0.11637458950281143,-0.026843901723623276,0.3094804584980011,0.39151421189308167,0.8494714498519897,-9.63891887664795
1745665826.9305155,-0.12324138730764389,-0.029237886890769005,0.31163689494132996,0.5032955408096313,0.5915884971618652,-9.812051773071289
1745665826.9321063,-0.09898940473794937,-0.02223111316561699,0.31832605600357056,0.49427706003189087,0.7616817951202393,-9.735487937927246
1745665826.9371648,-0.1066533699631691,-0.03353728726506233,0.32028695940971375,0.42844057083129883,0.5041559934616089,-9.791522026062012
1745665826.9372716,-0.09342895448207855,-0.02217935025691986,0.3204673230648041,0.45675745606422424,0.7598201036453247,-9.726152420043945
1745665826.9767888,-0.11869971454143524,-0.027910340577363968,0.3239815831184387,0.4873804450035095,0.5398635268211365,-9.817760467529297
1745665826.9791422,-0.1002967581152916,-0.027586812153458595,0.3257603645324707,0.3657468855381012,0.8093986511230469,-9.743566513061523
1745665826.98102,-0.10916648060083389,-0.02517782151699066,0.32545098662376404,0.6315079927444458,0.6759260296821594,-9.698423385620117
1745665826.9826753,-0.10831435769796371,-0.024059658870100975,0.3260056972503662,0.34699341654777527,0.8324689865112305,-9.910088539123535
1745665826.9850643,-0.10049872100353241,-0.02493845298886299,0.32714754343032837,0.4892062246799469,0.8445534706115723,-9.754376411437988
1745665827.0201995,-0.10820573568344116,-0.0318131148815155,0.32537129521369934,0.4315405488014221,0.7268085479736328,-9.692190170288086
1745665827.020447,-0.08845092356204987,-0.019540157169103622,0.3286833167076111,0.3915432095527649,0.8835039138793945,-9.705414772033691
1745665827.0237281,-0.11531169712543488,-0.027768850326538086,0.3282180726528168,0.47608986496925354,0.7162746787071228,-9.829644203186035
1745665827.0278943,-0.08645015209913254,-0.02878786064684391,0.32878467440605164,0.4338294565677643,0.9245628118515015,-9.752546310424805
1745665827.058392,-0.10008221864700317,-0.02187384106218815,0.33016127347946167,0.563461422920227,0.8359395265579224,-9.734447479248047
1745665827.0630496,-0.09949600696563721,-0.02887437306344509,0.3275100886821747,0.3229122757911682,0.7645007371902466,-9.8604097366333
1745665827.0658565,-0.08503340184688568,-0.02617568150162697,0.33005115389823914,0.550774097442627,0.7847952842712402,-9.626931190490723
1745665827.0710137,-0.06145227700471878,-0.03267902880907059,0.3410343825817108,0.5738468766212463,0.7427798509597778,-9.600025177001953
1745665827.100503,-0.07090634852647781,-0.028552254661917686,0.3395698368549347,0.3848113417625427,1.1273138523101807,-9.623909950256348
1745665827.1028473,-0.06675049662590027,-0.028341123834252357,0.3391138017177582,0.46479669213294983,0.7576931118965149,-9.879846572875977
1745665827.1071787,-0.06249440461397171,-0.0348050482571125,0.34108084440231323,0.4378741383552551,1.0199190378189087,-9.713905334472656
1745665827.111355,-0.058437250554561615,-0.022819366306066513,0.34282028675079346,0.42774930596351624,0.978415846824646,-9.616236686706543
1745665827.1134288,-0.05856964737176895,-0.032819714397192,0.34280329942703247,0.4430302083492279,0.8407793045043945,-9.721595764160156
1745665827.1454854,-0.05333270877599716,-0.03190893679857254,0.3441670536994934,0.37809523940086365,1.0809197425842285,-9.756171226501465
1745665827.1471965,-0.05023075267672539,-0.03128442168235779,0.34277158975601196,0.5607439279556274,0.8016601800918579,-9.741378784179688
1745665827.148751,-0.04990202933549881,-0.025949815288186073,0.34253183007240295,0.3251713812351227,1.1425130367279053,-9.704597473144531
1745665827.1504714,-0.059635769575834274,-0.03092440590262413,0.34221118688583374,0.507188618183136,0.6877880096435547,-9.720988273620605
1745665827.1916704,-0.05061683803796768,-0.0351094976067543,0.34258055686950684,0.46060115098953247,0.9904634356498718,-9.657270431518555
1745665827.1972318,-0.06362278759479523,-0.025297198444604874,0.3400166630744934,0.41513004899024963,0.9147146344184875,-9.846996307373047
1745665827.1972823,-0.0667806938290596,-0.03649720922112465,0.34172430634498596,0.4374609589576721,0.7550901174545288,-9.76894474029541
1745665827.1990285,-0.05746879428625107,-0.02689404785633087,0.3421744406223297,0.43522730469703674,0.974770188331604,-9.517145156860352
1745665827.1996284,-0.06925025582313538,-0.030175458639860153,0.3430717885494232,0.5014460682868958,0.8052509427070618,-9.69662094116211
1745665827.2330806,-0.054474860429763794,-0.0334799699485302,0.34629273414611816,0.2975008487701416,1.1208069324493408,-9.90156364440918
1745665827.2362535,-0.05488618463277817,-0.029715251177549362,0.3462412357330322,0.5704210996627808,0.9107745885848999,-9.70274543762207
1745665827.2377856,-0.0467761792242527,-0.029690274968743324,0.34271037578582764,0.37710410356521606,1.154662847518921,-9.609511375427246
1745665827.2387724,-0.044989410787820816,-0.031268160790205,0.34423398971557617,0.40738803148269653,1.0028821229934692,-9.772146224975586
1745665827.275451,-0.0480206124484539,-0.039368875324726105,0.3436346650123596,0.4480064809322357,0.8635759353637695,-9.822908401489258
1745665827.2791061,-0.03627102077007294,-0.023801248520612717,0.34307366609573364,0.4349282681941986,1.0753291845321655,-9.616181373596191
1745665827.2833772,-0.030381793156266212,-0.026862043887376785,0.34367308020591736,0.35950154066085815,1.084726333618164,-9.606099128723145
1745665827.2874331,-0.05367634445428848,-0.028886403888463974,0.34177935123443604,0.5050216913223267,0.8981131315231323,-9.614387512207031
1745665827.315574,-0.0461181178689003,-0.03699662163853645,0.34266066551208496,0.3632381558418274,0.9129533767700195,-9.837346076965332
1745665827.3204892,-0.039621587842702866,-0.02572045661509037,0.34244203567504883,0.6021007299423218,0.9416055679321289,-9.741292953491211
1745665827.3236017,-0.06429411470890045,-0.028695791959762573,0.3434738218784332,0.2801591753959656,0.9474924802780151,-9.779073715209961
1745665827.3268163,-0.04189877584576607,-0.03244166821241379,0.3434299826622009,0.44067221879959106,0.9298171997070312,-9.64591121673584
1745665827.3317978,-0.05431848764419556,-0.030636509880423546,0.34601569175720215,0.5207760334014893,0.9956985712051392,-9.633866310119629
1745665827.3645058,-0.0426231324672699,-0.023380059748888016,0.3469706177711487,0.3288123309612274,1.0807939767837524,-9.887984275817871
1745665827.3681555,-0.04596785083413124,-0.0321836993098259,0.34436818957328796,0.4933365285396576,1.0706446170806885,-9.739627838134766
1745665827.3713417,-0.03289935365319252,-0.033632274717092514,0.3422519564628601,0.3389672040939331,1.103087067604065,-9.700977325439453
1745665827.3758914,-0.029603537172079086,-0.026775311678647995,0.34408360719680786,0.5168033242225647,0.9585602879524231,-9.694265365600586
1745665827.4018078,-0.044647108763456345,-0.030486593022942543,0.3423252999782562,0.29240748286247253,1.0438276529312134,-9.845232009887695
1745665827.4054823,-0.019329633563756943,-0.02924250438809395,0.3440568447113037,0.5183508992195129,0.9314519762992859,-9.670502662658691
1745665827.408685,-0.0425630658864975,-0.03181566670536995,0.34330934286117554,0.44719648361206055,1.0174885988235474,-9.660850524902344
1745665827.40953,-0.03346848487854004,-0.026564285159111023,0.34390896558761597,0.3746911883354187,0.9514428377151489,-9.838347434997559
1745665827.4443586,-0.014434789307415485,-0.026021990925073624,0.3447588086128235,0.3667106032371521,1.170113444328308,-9.720368385314941
1745665827.4482868,-0.022753378376364708,-0.023426715284585953,0.3427453637123108,0.46814775466918945,0.9963600039482117,-9.74747371673584
1745665827.4517696,-0.021311534568667412,-0.03397440165281296,0.3424372375011444,0.3889766335487366,0.964684784412384,-9.754661560058594
1745665827.4550922,-0.009746654890477657,-0.020000576972961426,0.34172528982162476,0.45328575372695923,1.1311204433441162,-9.687013626098633
1745665827.458336,-0.02886284328997135,-0.029231706634163857,0.3441968858242035,0.37603360414505005,0.8865453004837036,-9.807137489318848
1745665827.4892838,-0.007708615157753229,-0.028205350041389465,0.3424643576145172,0.30906882882118225,1.1089273691177368,-9.696149826049805
1745665827.4929428,-0.01577741838991642,-0.02530653402209282,0.3450937867164612,0.5404646992683411,0.9250812530517578,-9.64736557006836
1745665827.4955294,-0.01156211830675602,-0.022376852110028267,0.3462694585323334,0.26268312335014343,1.0817159414291382,-9.83928108215332
1745665827.4989245,-0.007857483811676502,-0.027618801221251488,0.34505096077919006,0.4971776604652405,1.002941370010376,-9.73651123046875
1745665827.530977,-0.009583975188434124,-0.032011616975069046,0.34454068541526794,0.37632235884666443,1.0534206628799438,-9.770082473754883
1745665827.535944,0.0006145300576463342,-0.019331466406583786,0.342975914478302,0.3970373272895813,1.004550576210022,-9.766587257385254
1745665827.5394084,-0.0300955418497324,-0.02895854413509369,0.3428914546966553,0.3358871042728424,0.8021747469902039,-9.706754684448242
1745665827.5415795,-0.007019988261163235,-0.02817838452756405,0.34174972772598267,0.4294591546058655,0.9981716275215149,-9.579048156738281
1745665827.5440538,-0.032421499490737915,-0.023408936336636543,0.3417559564113617,0.5092487931251526,0.9056326746940613,-9.821858406066895
1745665827.575331,-0.0286216102540493,-0.027232801541686058,0.34270399808883667,0.2823105454444885,1.0126144886016846,-9.955294609069824
1745665827.577126,-0.014879345893859863,-0.02655174769461155,0.34170612692832947,0.5563024282455444,0.9694774746894836,-9.56689453125
1745665827.5866475,-0.027663132175803185,-0.023369137197732925,0.3446968197822571,0.3374294340610504,1.1328284740447998,-9.609931945800781
1745665827.5867338,-0.012837504036724567,-0.026869064196944237,0.3428480923175812,0.38501787185668945,0.9637030363082886,-9.866171836853027
1745665827.6204224,-0.02091730199754238,-0.029758716002106667,0.3432932496070862,0.42507848143577576,1.063143014907837,-9.748571395874023
1745665827.624205,-0.002937089651823044,-0.017838163301348686,0.3435596227645874,0.3574618995189667,1.139525055885315,-9.629190444946289
1745665827.6283958,-0.01859116554260254,-0.026867453008890152,0.3422107696533203,0.406621515750885,1.0144556760787964,-9.730052947998047
1745665827.6325006,-0.031337495893239975,-0.027645349502563477,0.3402433693408966,0.23218388855457306,1.138384461402893,-9.739803314208984
1745665827.6633468,-0.01505319308489561,-0.02667437493801117,0.3401479125022888,0.5375913977622986,0.9157276153564453,-9.753597259521484
1745665827.6654336,-0.02964959479868412,-0.023595700040459633,0.34031522274017334,0.33885401487350464,1.1616026163101196,-9.756752014160156
1745665827.6676052,-0.01908324658870697,-0.02473655715584755,0.3398185968399048,0.3831087350845337,0.9284158945083618,-9.721824645996094
1745665827.6687386,-0.019337425008416176,-0.03169059008359909,0.3405376672744751,0.5345677137374878,1.0466891527175903,-9.630600929260254
1745665827.6737611,-0.019073519855737686,-0.01861783117055893,0.33969640731811523,0.3412010669708252,1.1624338626861572,-9.860825538635254
1745665827.705701,-0.015137937851250172,-0.03190116211771965,0.33791908621788025,0.4408723711967468,0.8934191465377808,-9.818846702575684
1745665827.7089818,-0.012846440076828003,-0.025103162974119186,0.33999061584472656,0.3174116611480713,1.1288446187973022,-9.531659126281738
1745665827.7117531,-0.015400806441903114,-0.0215498898178339,0.34144261479377747,0.4791640639305115,0.8611634969711304,-9.658670425415039
1745665827.7161183,-0.020819038152694702,-0.031520623713731766,0.3410252034664154,0.3375375270843506,1.1395002603530884,-9.87244701385498
1745665827.7511103,-0.011450695805251598,-0.024807751178741455,0.3396819531917572,0.4484862685203552,0.962954044342041,-9.854833602905273
1745665827.7511566,-0.01600436121225357,-0.026271402835845947,0.34036561846733093,0.4103669226169586,1.0653579235076904,-9.600337028503418
1745665827.7530634,-0.0185902900993824,-0.021667256951332092,0.3383762836456299,0.3259401321411133,1.0701143741607666,-9.64155101776123
1745665827.75832,-0.017236435785889626,-0.03637015447020531,0.3367599844932556,0.5414093136787415,0.832038402557373,-9.747695922851562
1745665827.7624846,-0.01398707740008831,-0.02256707288324833,0.33880406618118286,0.33846163749694824,1.18474543094635,-9.835294723510742
1745665827.790934,-0.006013066042214632,-0.029100213199853897,0.3378145396709442,0.4798472821712494,0.9740898013114929,-9.742749214172363
1745665827.792016,0.003307656617835164,-0.03374030441045761,0.3392394483089447,0.3013624846935272,0.9915658831596375,-9.604293823242188
1745665827.7937686,0.006753129418939352,-0.0337057039141655,0.3380442261695862,0.6083167791366577,0.9264827966690063,-9.669327735900879
1745665827.7958565,-0.011664641089737415,-0.028007369488477707,0.33852219581604004,0.24249586462974548,1.0525298118591309,-9.994222640991211
1745665827.8347108,0.005244504660367966,-0.0301576666533947,0.33943408727645874,0.425982803106308,0.8598138689994812,-9.710250854492188
1745665827.8362913,-0.005211361683905125,-0.03286857157945633,0.3424926996231079,0.4663441777229309,1.0163370370864868,-9.395025253295898
1745665827.84448,0.0038799450267106295,-0.02260914072394371,0.3407629132270813,0.3250792324542999,1.01934814453125,-9.82520580291748
1745665827.8445435,-0.004805478733032942,-0.03541732579469681,0.3416428565979004,0.43444523215293884,1.0258190631866455,-9.965576171875
1745665827.8783627,0.01021042000502348,-0.02929111197590828,0.3401013910770416,0.3328492343425751,1.090325951576233,-9.723681449890137
1745665827.8821626,0.008753392845392227,-0.02455872669816017,0.34102684259414673,0.5046942830085754,0.9906316995620728,-9.47969913482666
1745665827.8857324,-0.005039992276579142,-0.033915575593709946,0.33845001459121704,0.22488832473754883,1.0635188817977905,-9.782793998718262
1745665827.8882627,0.018841763958334923,-0.03284532204270363,0.3396971821784973,0.5591782331466675,0.8883968591690063,-9.797842025756836
1745665827.9207547,-0.0017587501788511872,-0.024493440985679626,0.3402075469493866,0.35264936089515686,1.13027822971344,-9.742181777954102
1745665827.921986,0.005142110399901867,-0.027630198746919632,0.339336633682251,0.32413938641548157,0.9362096786499023,-9.697481155395508
1745665827.925387,0.007017328403890133,-0.038967687636613846,0.34146958589553833,0.5031448602676392,0.9583099484443665,-9.636824607849121
1745665827.9271715,0.007464953698217869,-0.020867619663476944,0.3405020833015442,0.3237677216529846,1.1083770990371704,-9.805394172668457
1745665827.9296129,0.006598885171115398,-0.029884103685617447,0.343328058719635,0.43804270029067993,0.8246768712997437,-9.791608810424805
1745665827.9708595,0.011544009670615196,-0.03273875638842583,0.34128692746162415,0.3518733084201813,1.1527386903762817,-9.577001571655273
1745665827.974059,0.014461132697761059,-0.026687050238251686,0.34221982955932617,0.5207679271697998,0.92498379945755,-9.764935493469238
1745665827.976544,0.00932246632874012,-0.028989657759666443,0.34250354766845703,0.3020865023136139,1.111788034439087,-9.938458442687988
1745665827.9768138,0.018079061061143875,-0.0290699303150177,0.3414779007434845,0.4001944065093994,0.9121301770210266,-9.70942497253418
1745665828.0096183,0.0177374966442585,-0.029982540756464005,0.34452614188194275,0.4124009609222412,1.0464017391204834,-9.700366973876953
1745665828.0096679,0.019120460376143456,-0.024792177602648735,0.3429998755455017,0.25783973932266235,1.1128603219985962,-9.802541732788086
1745665828.0097148,0.017117753624916077,-0.03535197302699089,0.342952162027359,0.4733508229255676,0.8114725351333618,-9.757162094116211
1745665828.00977,0.019272834062576294,-0.02245495282113552,0.34170472621917725,0.32559099793434143,1.107014775276184,-9.643879890441895
1745665828.0467768,0.003457428887486458,-0.029437366873025894,0.34138184785842896,0.4358438551425934,0.71019446849823,-9.731388092041016
1745665828.0506306,0.006281139794737101,-0.030694657936692238,0.3413451015949249,0.3340599238872528,0.9677397012710571,-9.749561309814453
1745665828.053889,0.006919588893651962,-0.019392723217606544,0.34461650252342224,0.5005970001220703,0.9060959815979004,-9.705175399780273
1745665828.0560977,-0.0026588651817291975,-0.031109914183616638,0.34335023164749146,0.32929593324661255,0.9526615142822266,-9.781805038452148
1745665828.0583634,0.013926589861512184,-0.027780285105109215,0.34444141387939453,0.3747980296611786,1.0713144540786743,-9.727519989013672
1745665828.0986288,0.00018291370361112058,-0.025981301441788673,0.34291568398475647,0.49087196588516235,0.9355720281600952,-9.723093032836914
1745665828.1011152,0.015737388283014297,-0.02398749813437462,0.34273821115493774,0.2782130241394043,1.1887915134429932,-9.688405990600586
1745665828.1047554,0.008284240961074829,-0.03115619346499443,0.3416728675365448,0.404898464679718,0.8934758305549622,-9.760059356689453
1745665828.10787,0.021421285346150398,-0.02586660347878933,0.3417719006538391,0.29236143827438354,1.1078112125396729,-9.76201343536377
1745665828.1354256,0.015220573171973228,-0.020155878737568855,0.3421984314918518,0.47392359375953674,1.0116490125656128,-9.681512832641602
1745665828.138466,0.013256177306175232,-0.03600683435797691,0.3391590714454651,0.35962265729904175,0.9208084344863892,-9.787274360656738
1745665828.1406214,0.011671515181660652,-0.02627699449658394,0.3408668637275696,0.40010151267051697,1.016455054283142,-9.546843528747559
1745665828.142254,0.019221767783164978,-0.02406591922044754,0.3409784734249115,0.3385508060455322,0.80058354139328,-9.921600341796875
1745665828.1851082,0.0184452123939991,-0.029762614518404007,0.34082403779029846,0.4528801441192627,0.8601093292236328,-9.837847709655762
1745665828.1852875,0.013732108287513256,-0.015243944711983204,0.34294310212135315,0.32349157333374023,1.0037157535552979,-9.60440444946289
1745665828.1853662,0.01063818670809269,-0.029644349589943886,0.34262993931770325,0.4544352889060974,0.7062758207321167,-9.608640670776367
1745665828.1864812,0.014042151160538197,-0.029008692130446434,0.3417123854160309,0.3557598888874054,1.0016469955444336,-9.783397674560547
1745665828.1883142,0.013351318426430225,-0.017124656587839127,0.34572935104370117,0.45575183629989624,0.823542594909668,-9.932046890258789
1745665828.222319,0.011297842487692833,-0.02428433671593666,0.34310805797576904,0.3066921830177307,1.0361225605010986,-9.695173263549805
1745665828.2269287,0.019479651004076004,-0.024116676300764084,0.34325000643730164,0.39531636238098145,0.9008930921554565,-9.549744606018066
1745665828.2287254,0.013874826021492481,-0.030084138736128807,0.3427988886833191,0.44638127088546753,0.9112354516983032,-9.785308837890625
1745665828.2321668,0.018656818196177483,-0.019320126622915268,0.3419490456581116,0.2960031032562256,1.0460387468338013,-9.955065727233887
1745665828.26372,0.018182585015892982,-0.027794409543275833,0.3441210389137268,0.4896153509616852,0.7677471041679382,-9.664846420288086
1745665828.2734873,0.025369277223944664,-0.0244288370013237,0.3442879319190979,0.3705922067165375,1.077729344367981,-9.520633697509766
1745665828.2754889,0.015351121313869953,-0.026723047718405724,0.3435189723968506,0.46550193428993225,0.7624114751815796,-9.877401351928711
1745665828.277442,0.02217363752424717,-0.02997656539082527,0.3448229432106018,0.3050839304924011,0.9559464454650879,-9.958191871643066
1745665828.279233,0.028349798172712326,-0.017000220715999603,0.3464743196964264,0.43357914686203003,0.8880020380020142,-9.565780639648438
1745665828.308389,0.012824192643165588,-0.026980334892868996,0.3455508351325989,0.35600757598876953,0.8269191980361938,-9.551490783691406
1745665828.3101218,0.026263106614351273,-0.02662801742553711,0.34573906660079956,0.37096986174583435,1.0130717754364014,-9.801027297973633
1745665828.3112512,0.01793750748038292,-0.029346246272325516,0.3456360995769501,0.5010403990745544,0.7998287081718445,-10.015162467956543
1745665828.3144515,0.027513999491930008,-0.01673850044608116,0.3447406589984894,0.26630622148513794,1.0513670444488525,-9.757868766784668
1745665828.3487165,0.012485302984714508,-0.025978192687034607,0.34446778893470764,0.4097518026828766,0.671881377696991,-9.465372085571289
1745665828.350763,0.02083592116832733,-0.0314367413520813,0.34538280963897705,0.3727821707725525,0.8527525067329407,-9.627191543579102
1745665828.3521507,0.013611437752842903,-0.02406376227736473,0.34656190872192383,0.4973219037055969,0.8142411112785339,-9.73721981048584
1745665828.3543177,0.01697847805917263,-0.021960807964205742,0.34499597549438477,0.28295332193374634,0.9924488067626953,-9.467985153198242
1745665828.3928034,0.015009425580501556,-0.02448795735836029,0.34868568181991577,0.4349445700645447,0.825566291809082,-9.72244930267334
1745665828.3951209,0.005240301601588726,-0.030413951724767685,0.346784770488739,0.41010189056396484,0.770715594291687,-10.003375053405762
1745665828.3958054,0.022861678153276443,-0.015456567518413067,0.34632959961891174,0.46127915382385254,0.944383442401886,-9.709831237792969
1745665828.3981802,-0.006132288370281458,-0.02748006023466587,0.3455337882041931,0.33005255460739136,0.786500096321106,-9.605350494384766
1745665828.4036567,0.013847465626895428,-0.030153552070260048,0.34609371423721313,0.4019448161125183,0.8978527784347534,-9.732831954956055
1745665828.4372487,0.0041645606979727745,-0.022111501544713974,0.346365362405777,0.5453591346740723,0.7961994409561157,-9.854857444763184
1745665828.4393709,0.0015483725583180785,-0.020311135798692703,0.3461286723613739,0.13828951120376587,0.9086430668830872,-9.83427619934082
1745665828.4427373,0.013471459969878197,-0.027201274409890175,0.35053014755249023,0.46398043632507324,0.7734130620956421,-9.473697662353516
1745665828.4468184,-0.005068383179605007,-0.02470473013818264,0.34767454862594604,0.40540677309036255,0.932050883769989,-9.634532928466797
1745665828.481778,0.013349182903766632,-0.020735803991556168,0.34905022382736206,0.4554070830345154,0.9227744936943054,-10.026265144348145
1745665828.48669,-0.00021294094040058553,-0.029141873121261597,0.34719768166542053,0.34241896867752075,0.9190865755081177,-9.928583145141602
1745665828.4868093,0.017280275002121925,-0.020042041316628456,0.34553176164627075,0.3559747338294983,0.8774533271789551,-9.490833282470703
1745665828.4894202,-0.008745166473090649,-0.028987407684326172,0.34828975796699524,0.39982500672340393,0.6988003849983215,-9.626029968261719
1745665828.5232732,-0.0004705570754595101,-0.03179055452346802,0.3485181927680969,0.34223294258117676,0.8919978141784668,-9.679524421691895
1745665828.5257041,-0.005754225887358189,-0.024186596274375916,0.34950026869773865,0.5222922563552856,0.703406572341919,-9.867889404296875
1745665828.5273097,-0.015797870233654976,-0.026283705607056618,0.3487834334373474,0.25264298915863037,0.7853683829307556,-9.843634605407715
1745665828.5288239,-0.002012500772252679,-0.025542864575982094,0.35198116302490234,0.38382643461227417,0.8408538699150085,-9.57830810546875
1745665828.5390112,-0.017693553119897842,-0.02871762216091156,0.35150784254074097,0.4652867317199707,0.8027990460395813,-9.651603698730469
1745665828.5657709,-0.0023587497416883707,-0.024691574275493622,0.35038265585899353,0.37548503279685974,1.0391044616699219,-9.907732009887695
1745665828.5691803,-0.012664896436035633,-0.03120538592338562,0.34967154264450073,0.39632850885391235,0.8092584609985352,-9.961247444152832
1745665828.5705738,0.0005048224702477455,-0.025205988436937332,0.34920987486839294,0.28059786558151245,0.944484531879425,-9.598978042602539
1745665828.574622,-0.007236739154905081,-0.02461802400648594,0.3497951626777649,0.5181770920753479,0.8093010187149048,-9.484049797058105
1745665828.608441,-0.011752940714359283,-0.0375417061150074,0.3496182858943939,0.2902975082397461,0.7970221638679504,-9.956209182739258
1745665828.6102498,0.005874206777662039,-0.02543647214770317,0.3506888449192047,0.4998297691345215,0.8367176055908203,-9.946342468261719
1745665828.613285,-0.017600402235984802,-0.024012822657823563,0.35088595747947693,0.3599143624305725,0.8822525143623352,-9.680193901062012
1745665828.615534,0.0019562435336411,-0.02718678116798401,0.3514192998409271,0.3254324793815613,0.8610643148422241,-9.54774284362793
1745665828.618078,-0.011140468530356884,-0.03661553934216499,0.35055792331695557,0.5140950679779053,0.73312908411026,-9.75957202911377
1745665828.6518588,-0.007246635854244232,-0.021090975031256676,0.35430118441581726,0.3033771514892578,0.8833805322647095,-9.951608657836914
1745665828.6543126,-0.00978255458176136,-0.026433784514665604,0.3515321612358093,0.4711219370365143,0.8174579739570618,-9.697863578796387
1745665828.656525,-0.013629114255309105,-0.03328254073858261,0.35219287872314453,0.28070586919784546,0.8885561227798462,-9.640556335449219
1745665828.6591086,0.0023480351082980633,-0.026137923821806908,0.3515029847621918,0.4755457043647766,0.8398715853691101,-9.770393371582031
1745665828.7081614,-0.026562858372926712,-0.026510491967201233,0.350231409072876,0.30588001012802124,0.9200149774551392,-9.893790245056152
1745665828.7082345,-0.0022027778904885054,-0.02762666344642639,0.34924671053886414,0.38939550518989563,0.7798810005187988,-9.6227445602417
1745665828.7083144,-0.016618479043245316,-0.03206872567534447,0.3500302731990814,0.49487605690956116,0.8698757886886597,-9.587918281555176
1745665828.7083669,-0.01595504954457283,-0.023865416646003723,0.35125309228897095,0.22994419932365417,0.8567730188369751,-9.99294376373291
1745665828.736571,-0.012487704865634441,-0.023581355810165405,0.35343629121780396,0.4211820662021637,0.7180997133255005,-9.641945838928223
1745665828.7387543,-0.018534382805228233,-0.03421169891953468,0.35140523314476013,0.36242610216140747,0.9768520593643188,-9.824127197265625
1745665828.7404907,-0.0009475800907239318,-0.023534929379820824,0.3539711534976959,0.46066656708717346,0.8530522584915161,-9.908756256103516
1745665828.7426372,-0.012008579447865486,-0.02702413871884346,0.3533412218093872,0.4087447226047516,0.9005258679389954,-9.727057456970215
1745665828.781038,-0.012171327136456966,-0.024532964453101158,0.3500170111656189,0.2985198497772217,0.8321189880371094,-9.633935928344727
1745665828.7820592,-0.005952069070190191,-0.034214798361063004,0.35200586915016174,0.5625227093696594,0.7946941256523132,-9.663243293762207
1745665828.7847657,-0.019721057265996933,-0.022112369537353516,0.3496578633785248,0.2734863758087158,0.9697811007499695,-9.944402694702148
1745665828.7875142,-0.011491131037473679,-0.02968062087893486,0.351942777633667,0.4620510935783386,0.6590300798416138,-9.819395065307617
1745665828.8229752,-0.012448624707758427,-0.029767608270049095,0.3522595763206482,0.33370447158813477,0.9529190063476562,-9.487438201904297
1745665828.8248916,-0.012734709307551384,-0.02224423550069332,0.35350918769836426,0.44070467352867126,0.7626221776008606,-9.7243070602417
1745665828.8272245,-0.018950479105114937,-0.033976055681705475,0.35226166248321533,0.34870654344558716,0.8242460489273071,-10.002018928527832
1745665828.830081,-0.009731645695865154,-0.024444827809929848,0.35374531149864197,0.39146023988723755,0.8862353563308716,-9.73753547668457
1745665828.8684425,-0.020460162311792374,-0.023413941264152527,0.35236161947250366,0.3902161419391632,0.6935597062110901,-9.881364822387695
1745665828.8685415,-0.019406937062740326,-0.030012866482138634,0.3527120053768158,0.424652099609375,0.9352825284004211,-9.56934642791748
1745665828.8692403,-0.01941487565636635,-0.01500345952808857,0.35296735167503357,0.31038588285446167,0.9473735690116882,-9.686112403869629
1745665828.8722136,-0.015553710982203484,-0.029715150594711304,0.35308974981307983,0.36362043023109436,0.8145461082458496,-9.838162422180176
1745665828.873607,-0.011441389098763466,-0.021702595055103302,0.3534602224826813,0.31009456515312195,1.0306620597839355,-9.747076988220215
1745665828.9104252,-0.006125146057456732,-0.02187412418425083,0.35363367199897766,0.5042434930801392,0.8129978179931641,-9.675019264221191
1745665828.9154193,-0.01366947591304779,-0.02405726909637451,0.3528303802013397,0.24796715378761292,1.0067284107208252,-9.791373252868652
1745665828.915543,-0.007675765547901392,-0.023374108597636223,0.353482186794281,0.47029224038124084,0.6749235391616821,-9.817463874816895
1745665828.9184725,-0.014596889726817608,-0.0251400675624609,0.35199645161628723,0.4064742922782898,0.9170719385147095,-9.612558364868164
1745665828.9520507,-0.017513278871774673,-0.022222822532057762,0.3529405891895294,0.31727710366249084,0.7572884559631348,-9.801183700561523
1745665828.9534552,-0.01925032213330269,-0.03155205026268959,0.35354292392730713,0.468871533870697,0.7381094694137573,-9.837651252746582
1745665828.961852,-0.01664578728377819,-0.01652900129556656,0.3531261086463928,0.3070985972881317,0.9750734567642212,-9.729023933410645
1745665828.961951,-0.023139245808124542,-0.02384953387081623,0.3537095785140991,0.37892818450927734,0.7414819002151489,-9.639505386352539
1745665828.9620116,-0.012833818793296814,-0.029908951371908188,0.35386210680007935,0.27662184834480286,1.0400949716567993,-9.70858097076416
1745665828.9978316,-0.01869303360581398,-0.01892179250717163,0.3541439175605774,0.48522496223449707,0.7651840448379517,-9.83702278137207
1745665829.0020766,-0.01368518453091383,-0.02226235903799534,0.3547898232936859,0.3170979917049408,0.9534042477607727,-9.769851684570312
1745665829.00453,-0.012909929268062115,-0.02146902307868004,0.353297621011734,0.3749341666698456,0.8604581952095032,-9.66343879699707
1745665829.0071719,-0.017909470945596695,-0.028233855962753296,0.35384711623191833,0.44662219285964966,0.7907668948173523,-9.746793746948242
1745665829.04275,-0.01795213297009468,-0.016326313838362694,0.3532552719116211,0.3378702700138092,1.0082931518554688,-9.776927947998047
1745665829.042858,-0.02666141465306282,-0.028394341468811035,0.3529902398586273,0.4206041693687439,0.6995579600334167,-9.7609281539917
1745665829.046952,-0.011188602074980736,-0.02270047925412655,0.3495102822780609,0.3623484969139099,1.0766007900238037,-9.657743453979492
1745665829.0494378,-0.027322769165039062,-0.019123254343867302,0.3524013161659241,0.4180021286010742,0.7972329258918762,-9.78346061706543
1745665829.0811234,-0.01933320239186287,-0.026314955204725266,0.35159367322921753,0.2353949099779129,0.9038225412368774,-9.775806427001953
1745665829.0826018,-0.010989570990204811,-0.020087553188204765,0.3530074656009674,0.4935324788093567,0.8567901849746704,-9.590401649475098
1745665829.0852957,-0.023684486746788025,-0.021306097507476807,0.3513461649417877,0.30742740631103516,0.8386043310165405,-9.808969497680664
1745665829.0875037,-0.010084142908453941,-0.018970264121890068,0.35197171568870544,0.34199896454811096,0.9938467741012573,-9.837316513061523
1745665829.0891054,-0.023186977952718735,-0.025771671906113625,0.3523958623409271,0.433307021856308,0.7511833310127258,-9.742422103881836
1745665829.1273255,-0.008704449981451035,-0.017917102202773094,0.34999051690101624,0.2963976562023163,0.9892413020133972,-9.6579008102417
1745665829.1297855,-0.031527504324913025,-0.020979179069399834,0.3494054675102234,0.4342527389526367,0.7221134305000305,-9.774076461791992
1745665829.1347945,-0.02129337564110756,-0.027149584144353867,0.3487609922885895,0.3002470135688782,0.8912209272384644,-9.77501392364502
1745665829.137098,-0.02429075911641121,-0.01666330359876156,0.3502424657344818,0.45263928174972534,0.8407503366470337,-9.712501525878906
1745665829.1684356,-0.03754376247525215,-0.0249771848320961,0.35013556480407715,0.262084424495697,0.8162918090820312,-9.796459197998047
1745665829.172156,-0.017335083335638046,-0.022290006279945374,0.34865137934684753,0.42425793409347534,0.9140409231185913,-9.696096420288086
1745665829.1762166,-0.035134993493556976,-0.024713734164834023,0.3509393632411957,0.42886632680892944,0.8342399597167969,-9.718914031982422
1745665829.1786807,-0.02025929093360901,-0.015052663162350655,0.35223621129989624,0.24585595726966858,0.9305537939071655,-9.832685470581055
1745665829.1833227,-0.02665972150862217,-0.026761168614029884,0.3518590033054352,0.4858822822570801,0.8714407682418823,-9.672883987426758
1745665829.2150712,-0.014358023181557655,-0.03085341490805149,0.34967565536499023,0.3768787980079651,0.8311327695846558,-9.583478927612305
1745665829.2176,-0.003423975082114339,-0.01781458780169487,0.34921717643737793,0.4388464093208313,0.9907042384147644,-9.704981803894043
1745665829.219167,-0.022847309708595276,-0.026400715112686157,0.3469252288341522,0.38419607281684875,0.7782147526741028,-9.984406471252441
1745665829.2231374,-0.0003630692954175174,-0.025839751586318016,0.34821218252182007,0.2908482849597931,0.9795408248901367,-9.729576110839844
1745665829.255095,-0.011663726530969143,-0.02296343445777893,0.35078611969947815,0.550810694694519,0.7890037298202515,-9.482227325439453
1745665829.2556388,-0.012248674407601357,-0.02073030173778534,0.350877046585083,0.2171173095703125,0.9040169715881348,-9.822723388671875
1745665829.2573917,-0.007984506897628307,-0.027256857603788376,0.34915298223495483,0.441325843334198,0.873587965965271,-9.858175277709961
1745665829.2590992,-0.010363911278545856,-0.02735176309943199,0.3490890860557556,0.36468738317489624,0.9431705474853516,-9.760998725891113
1745665829.2965891,0.0007380591705441475,-0.016025980934500694,0.34937843680381775,0.36861246824264526,0.9698209762573242,-9.626320838928223
1745665829.3048255,-0.025348734110593796,-0.03085479699075222,0.34625574946403503,0.35439997911453247,0.7043630480766296,-9.747227668762207
1745665829.3049145,0.0008482622215524316,-0.02541741356253624,0.34547755122184753,0.40595942735671997,0.9683862924575806,-9.709564208984375
1745665829.309789,-0.023499639704823494,-0.020839465782046318,0.3482323884963989,0.4724387228488922,0.8048461079597473,-9.828531265258789
1745665829.3394356,-0.019264616072177887,-0.028043484315276146,0.34543463587760925,0.25099092721939087,0.8584651947021484,-9.824918746948242
1745665829.3412204,-0.004745217971503735,-0.0274845901876688,0.34925588965415955,0.5552835464477539,0.8377909660339355,-9.575254440307617
1745665829.3439176,-0.022218097001314163,-0.021783672273159027,0.34787964820861816,0.2808611989021301,0.9660210609436035,-9.721277236938477
1745665829.346773,-0.004572208970785141,-0.024380391463637352,0.34803763031959534,0.34449315071105957,0.8515318632125854,-9.831098556518555
1745665829.3502395,-0.015844028443098068,-0.032018743455410004,0.34695950150489807,0.4579368233680725,0.9283009767532349,-9.6571044921875
1745665829.3884468,0.006577218417078257,-0.019566500559449196,0.3501873016357422,0.3223492205142975,1.0265315771102905,-9.746101379394531
1745665829.3885632,-0.009501723572611809,-0.027150308713316917,0.3477837145328522,0.38617053627967834,0.8629223108291626,-9.848427772521973
1745665829.3902452,-0.0018959554145112634,-0.028305556625127792,0.34653788805007935,0.3120923638343811,0.8891288042068481,-9.72474193572998
1745665829.3926444,0.002827805234119296,-0.02471345104277134,0.34839004278182983,0.5306254625320435,0.8615671992301941,-9.541115760803223
1745665829.4283164,-0.015712272375822067,-0.026359517127275467,0.3460874557495117,0.23562566936016083,0.8847931027412415,-9.865583419799805
1745665829.4284296,0.004678915720432997,-0.02862268127501011,0.3446179926395416,0.48299640417099,0.7923327684402466,-9.909198760986328
1745665829.4312954,-0.002341856714338064,-0.021536627784371376,0.34661662578582764,0.25906726717948914,0.819767951965332,-9.650854110717773
1745665829.4315522,-0.009217319078743458,-0.035999465733766556,0.3483469486236572,0.44271937012672424,0.7873457670211792,-9.71185302734375
1745665829.4698286,-0.008953530341386795,-0.02043907716870308,0.3482053875923157,0.32366734743118286,0.8966807126998901,-9.820622444152832
1745665829.4732997,-0.004704130347818136,-0.02395419031381607,0.34760770201683044,0.5159880518913269,0.8565677404403687,-9.718290328979492
1745665829.4787624,-0.01738196238875389,-0.030784551054239273,0.3465273380279541,0.21882840991020203,0.9741489291191101,-9.816120147705078
1745665829.4880447,0.002856521401554346,-0.024943415075540543,0.3488292098045349,0.4904966354370117,0.7859132885932922,-9.697675704956055
1745665829.488093,-0.01795843616127968,-0.02444613352417946,0.34503963589668274,0.3713717758655548,0.9862430691719055,-9.661544799804688
1745665829.5155761,-0.005644900258630514,-0.02721891924738884,0.3464348018169403,0.3182322680950165,0.8248476982116699,-9.774293899536133
1745665829.5192354,-0.002759127179160714,-0.03113194741308689,0.34756171703338623,0.4778706431388855,0.8602983355522156,-9.70234203338623
1745665829.5217915,-0.007453514728695154,-0.01956804096698761,0.34722572565078735,0.259166419506073,1.0053720474243164,-9.77803897857666
1745665829.5244646,-0.002594337332993746,-0.028205666691064835,0.3490939438343048,0.46685129404067993,0.7491742968559265,-9.737994194030762
1745665829.55508,0.0012150481343269348,-0.030778085812926292,0.34919166564941406,0.3487376570701599,1.0173568725585938,-9.661554336547852
1745665829.5572786,0.005153608974069357,-0.020105989649891853,0.3508346676826477,0.4696024954319,0.7857590317726135,-9.823488235473633
1745665829.5604382,-0.0019820008892565966,-0.032431866973638535,0.3501374125480652,0.28026628494262695,0.7600056529045105,-9.8431396484375
1745665829.564151,0.004521805793046951,-0.026130851358175278,0.3540037274360657,0.5732202529907227,0.7418705821037292,-9.921324729919434
1745665829.598656,-0.016222484409809113,-0.019831426441669464,0.3521672785282135,0.22202448546886444,0.8719877004623413,-9.750837326049805
1745665829.6026583,-0.0009210072457790375,-0.030176380649209023,0.353020578622818,0.40373316407203674,0.7263203859329224,-9.538420677185059
1745665829.6056592,-0.013532969169318676,-0.0351484939455986,0.35329946875572205,0.4094618856906891,0.8861882090568542,-9.675003051757812
1745665829.60814,-0.007146191783249378,-0.01660959981381893,0.35580456256866455,0.3106078505516052,0.8177993893623352,-10.038297653198242
1745665829.61016,-0.011842599138617516,-0.03021429106593132,0.3534669578075409,0.420161634683609,0.9045059084892273,-9.73843002319336
1745665829.643852,-0.004433775786310434,-0.029473349452018738,0.3529309630393982,0.2917030155658722,0.9250330924987793,-9.562814712524414
1745665829.646985,-0.002903538988903165,-0.027337130159139633,0.3542446196079254,0.47501030564308167,0.7987934947013855,-9.729191780090332
1745665829.649311,-0.01577288657426834,-0.02469521015882492,0.3522793650627136,0.25034481287002563,0.9531688690185547,-9.954641342163086
1745665829.6516843,0.0031783555168658495,-0.02711387351155281,0.35205259919166565,0.5106086730957031,0.7131272554397583,-9.651742935180664
1745665829.6824427,-0.014089098200201988,-0.02885577082633972,0.3506903350353241,0.35841554403305054,0.9704548120498657,-9.616679191589355
1745665829.688905,-0.0072160279378294945,-0.02443065121769905,0.3529717028141022,0.29343628883361816,0.7506083846092224,-9.884870529174805
1745665829.6951222,-0.009310124441981316,-0.034142427146434784,0.3526657521724701,0.4123670160770416,0.8304482698440552,-9.748204231262207
1745665829.6951964,-0.005662062205374241,-0.01672947406768799,0.3544493615627289,0.32166212797164917,0.9312539100646973,-9.60412883758545
1745665829.728108,-0.011226467788219452,-0.02696925401687622,0.35394105315208435,0.4024823307991028,0.7151982188224792,-9.765362739562988
1745665829.7303407,-0.006354504264891148,-0.029680553823709488,0.3528137803077698,0.251216322183609,1.0168859958648682,-9.811452865600586
1745665829.734259,0.00020874888286925852,-0.0261447224766016,0.353104829788208,0.5415195226669312,0.7684326767921448,-9.798079490661621
1745665829.7343569,-0.010144634172320366,-0.02433193288743496,0.3544512689113617,0.26420021057128906,0.9612089991569519,-9.815506935119629
1745665829.7371335,-0.010177049785852432,-0.02558423951268196,0.35125547647476196,0.3698354959487915,0.6334421634674072,-9.714627265930176
1745665829.7712505,-0.01105924416333437,-0.03164077550172806,0.3523009717464447,0.4564339518547058,0.8237592577934265,-9.546991348266602
1745665829.7731974,-0.021541474387049675,-0.019499382004141808,0.35602790117263794,0.3363940715789795,0.884253203868866,-9.858388900756836
1745665829.7756052,-0.02284848503768444,-0.03517049923539162,0.35338616371154785,0.4279407858848572,0.6372294425964355,-9.960611343383789
1745665829.8138368,-0.024095475673675537,-0.02176094613969326,0.3534473776817322,0.4497681260108948,0.7551413774490356,-9.6622896194458
1745665829.8185282,-0.012158306315541267,-0.03383096680045128,0.3544096350669861,0.23761001229286194,0.9464957118034363,-9.833905220031738
1745665829.8196306,-0.013888359069824219,-0.022967876866459846,0.35434797406196594,0.47784972190856934,0.7719807028770447,-9.70909309387207
1745665829.8221006,-0.0152218546718359,-0.025276070460677147,0.3550425171852112,0.3015425503253937,0.8690865635871887,-9.653813362121582
1745665829.8230162,-0.009358828887343407,-0.021999692544341087,0.3545680046081543,0.3258346617221832,0.941100001335144,-9.755935668945312
1745665829.8594353,-0.022854160517454147,-0.03276323899626732,0.3546980619430542,0.4622548222541809,0.6995971202850342,-9.850440979003906
1745665829.8600252,-0.0069684237241744995,-0.019477803260087967,0.35262030363082886,0.3547531068325043,1.0002577304840088,-9.727479934692383
1745665829.8623116,-0.027736764401197433,-0.02790745720267296,0.3524426519870758,0.3656517565250397,0.691269040107727,-9.704900741577148
1745665829.8642168,-0.018473759293556213,-0.02856994792819023,0.35283881425857544,0.3055066168308258,0.8521803021430969,-9.717689514160156
1745665829.900583,-0.02248149737715721,-0.02030841074883938,0.35394251346588135,0.5182111263275146,0.7188208699226379,-9.710420608520508
1745665829.9044251,-0.031215572729706764,-0.02298104763031006,0.35426169633865356,0.24114426970481873,0.8365815281867981,-9.836377143859863
1745665829.9067945,-0.018318455666303635,-0.025311235338449478,0.3537880480289459,0.39135390520095825,0.7886767387390137,-9.741842269897461
1745665829.909999,-0.01736694760620594,-0.025004630908370018,0.3505643308162689,0.36275365948677063,1.053564190864563,-9.684076309204102
1745665829.942862,-0.034222312271595,-0.02580701932311058,0.35170596837997437,0.40011128783226013,0.7257448434829712,-9.983217239379883
1745665829.9523056,-0.022747863084077835,-0.030541326850652695,0.3508402705192566,0.306315541267395,0.9292061924934387,-9.796125411987305
1745665829.9524262,-0.0213997233659029,-0.02046670950949192,0.3530152142047882,0.4703879952430725,0.8506167531013489,-9.490043640136719
1745665829.95251,-0.031819898635149,-0.02770976349711418,0.3538196384906769,0.2740725874900818,0.8574753999710083,-9.696954727172852
1745665829.9865148,-0.014838713221251965,-0.026229267939925194,0.35426297783851624,0.32098010182380676,0.9588819742202759,-9.886672019958496
1745665829.9886112,-0.02768857777118683,-0.024439293891191483,0.3532664179801941,0.4636099338531494,0.8480308651924133,-9.782927513122559
1745665829.9926674,-0.01221742294728756,-0.020685678347945213,0.3511093258857727,0.29076796770095825,1.083962321281433,-9.628708839416504
1745665829.9937527,-0.02483179047703743,-0.03273565322160721,0.3507513403892517,0.40342968702316284,0.8013852834701538,-9.795635223388672
1745665829.9964368,-0.011960442177951336,-0.028194481506943703,0.35256847739219666,0.30289554595947266,0.9305456876754761,-9.858424186706543
1745665830.029369,-0.015502740629017353,-0.01939699985086918,0.35242897272109985,0.4228811264038086,0.8778443336486816,-9.651620864868164
1745665830.0299938,-0.03020738624036312,-0.032861094921827316,0.35380107164382935,0.27914056181907654,0.7731742858886719,-9.694552421569824
1745665830.03216,0.00339713878929615,-0.03303399682044983,0.3491537272930145,0.4865451753139496,1.188442349433899,-9.723130226135254
1745665830.0341623,-0.02358827367424965,-0.02726326510310173,0.34145253896713257,0.012209465727210045,1.1906421184539795,-10.135234832763672
1745665830.0739639,0.010804412886500359,-0.0362999401986599,0.33590608835220337,-0.0440279021859169,1.1867680549621582,-9.645181655883789
1745665830.0764234,0.013855609111487865,-0.043089091777801514,0.3280327022075653,0.09688426554203033,1.0264012813568115,-9.327051162719727
1745665830.0808532,0.026177357882261276,-0.02867240086197853,0.32402923703193665,-0.3341585695743561,1.0676835775375366,-9.932512283325195
1745665830.0833828,0.0150175541639328,-0.03584669902920723,0.3206171691417694,-0.13140280544757843,0.44937485456466675,-9.969388008117676
1745665830.0874288,0.028581732884049416,-0.035776905715465546,0.3228544592857361,0.07599736750125885,0.5548162460327148,-9.30740737915039
1745665830.1167026,0.006200182251632214,-0.027921583503484726,0.3242291808128357,0.2489844262599945,0.43277207016944885,-9.578507423400879
1745665830.1167626,-0.02272874489426613,-0.045592568814754486,0.32147467136383057,0.2037791907787323,0.34954509139060974,-10.287961959838867
1745665830.118739,-0.014256002381443977,-0.03468409180641174,0.3142032027244568,0.22982092201709747,0.7000778317451477,-9.959463119506836
1745665830.1206267,-0.057490188628435135,-0.04027578979730606,0.30976828932762146,0.218718022108078,0.6200934648513794,-9.374109268188477
1745665830.1573036,-0.06212351471185684,-0.050314761698246,0.2977983355522156,0.11082790046930313,0.9226589202880859,-10.075424194335938
1745665830.1592126,-0.04987586289644241,-0.046026866883039474,0.29120686650276184,-0.10781427472829819,1.3157308101654053,-9.903218269348145
1745665830.161967,-0.02454180084168911,-0.045268453657627106,0.2886698246002197,0.15289868414402008,1.237305998802185,-9.381353378295898
1745665830.1637833,-0.008676616474986076,-0.06132325530052185,0.2853069007396698,0.12989217042922974,1.3841049671173096,-9.671624183654785
1745665830.2024403,0.035696495324373245,-0.05297999456524849,0.2836168706417084,0.15767325460910797,1.2600361108779907,-10.204404830932617
1745665830.203289,0.0440581813454628,-0.0481351874768734,0.2822009325027466,0.13034412264823914,1.0408995151519775,-9.895551681518555
1745665830.2042215,0.06795426458120346,-0.05486039072275162,0.2826469838619232,-0.006154055707156658,1.0343732833862305,-9.300851821899414
1745665830.208732,0.059247542172670364,-0.06305880844593048,0.2808211147785187,0.22077615559101105,0.6720512509346008,-9.61472225189209
1745665830.2427866,0.059881530702114105,-0.05709851533174515,0.273298054933548,-0.02423917129635811,1.0819227695465088,-10.129573822021484
1745665830.2470188,0.043267872184515,-0.05490579083561897,0.26439565420150757,-0.16324865818023682,0.7412177324295044,-10.08167552947998
1745665830.248956,0.035058606415987015,-0.06700146943330765,0.25532081723213196,-0.0319184735417366,0.661190390586853,-9.171199798583984
1745665830.2523727,0.016727782785892487,-0.05919252708554268,0.25288641452789307,-0.0010202914709225297,0.5308043956756592,-9.51172924041748
1745665830.2852247,0.1098705306649208,-0.02675960585474968,0.07609163224697113,0.367561399936676,0.05560971051454544,-9.882885932922363
1745665830.2941368,0.11707095801830292,0.0012563966447487473,0.07146640121936798,0.47631996870040894,0.4911634027957916,-10.946873664855957
1745665830.2968903,0.10345562547445297,0.01401636004447937,0.06970393657684326,0.41589492559432983,0.42098116874694824,-9.8706693649292
1745665830.2977328,0.11440469324588776,0.0014135751407593489,0.06536992639303207,0.318389892578125,0.8455615043640137,-8.711919784545898
1745665830.2977867,0.13780558109283447,-0.0016514912713319063,0.060685910284519196,0.6751986742019653,1.0207477807998657,-9.554469108581543
1745665830.328921,0.13956820964813232,0.0056056310422718525,0.04962641000747681,0.3063507676124573,0.9310329556465149,-11.013710021972656
1745665830.3313868,0.18530778586864471,0.026502063497900963,0.04178016632795334,0.13183490931987762,1.2118885517120361,-9.907805442810059
1745665830.3335702,0.18831810355186462,0.01868492178618908,0.03497966378927231,0.22855603694915771,0.8400067090988159,-8.663656234741211
1745665830.3348508,0.1980019062757492,0.012607577256858349,0.028049569576978683,0.1272195279598236,0.9213637113571167,-9.473073959350586
1745665830.3722537,0.19929571449756622,0.021367844194173813,0.021258754655718803,0.515320897102356,0.5348911881446838,-10.63227653503418
1745665830.375979,0.21632783114910126,0.03502460569143295,0.014147634617984295,0.32935330271720886,0.7168064713478088,-10.136941909790039
1745665830.380383,0.20830392837524414,0.03320414945483208,0.008997248485684395,0.5662015676498413,0.39789897203445435,-9.042762756347656
1745665830.3824782,0.1932217925786972,0.020294547080993652,0.007710936479270458,0.4759415090084076,0.23001280426979065,-9.552881240844727
1745665830.3849306,0.18259328603744507,0.02871350385248661,0.00433442834764719,0.4431305527687073,0.21072852611541748,-10.489899635314941
1745665830.4185104,0.1806567907333374,0.038238637149333954,-0.0016624890267848969,0.2102849781513214,0.267831951379776,-10.090807914733887
1745665830.4218087,0.17849239706993103,0.047241974622011185,-0.005658719222992659,-0.01910119690001011,0.5267452001571655,-9.066720008850098
1745665830.4238226,0.1781201809644699,0.03361814469099045,-0.012133019976317883,0.45715609192848206,0.4893534779548645,-9.236384391784668
1745665830.4281886,0.18116535246372223,0.04243168234825134,-0.01983710192143917,0.2790132164955139,0.8693947792053223,-10.321349143981934
1745665830.4595592,0.19322383403778076,0.053662627935409546,-0.028906160965561867,0.31094199419021606,0.3424329459667206,-10.41719913482666
1745665830.4607303,0.19186833500862122,0.046007297933101654,-0.03142283856868744,0.37309521436691284,0.5581225156784058,-9.301566123962402
1745665830.4645433,0.1933477520942688,0.05082165449857712,-0.03340572118759155,0.4488771855831146,0.19318696856498718,-9.308258056640625
1745665830.466549,0.19698941707611084,0.0414399728178978,-0.034227579832077026,0.5352041721343994,0.392659068107605,-9.973936080932617
1745665830.5019858,0.20153816044330597,0.0577116422355175,-0.03840430825948715,0.4150901734828949,0.580996036529541,-10.181384086608887
1745665830.507214,0.20429322123527527,0.047560855746269226,-0.054519347846508026,0.3035041093826294,0.759630024433136,-9.406270980834961
1745665830.5107408,0.21800725162029266,0.04646699130535126,-0.057287365198135376,0.40733423829078674,0.5236422419548035,-9.901917457580566
1745665830.5163546,0.20916950702667236,0.05317683145403862,-0.06633560359477997,0.1704178899526596,0.3531641662120819,-10.149614334106445
1745665830.5465093,0.23881252110004425,0.061834562569856644,-0.06922707706689835,0.4335598051548004,0.3007815480232239,-9.514729499816895
1745665830.5478842,0.20347540080547333,0.0538686104118824,-0.07205115258693695,0.44183340668678284,0.1723545342683792,-9.329363822937012
1745665830.5489469,0.2295845001935959,0.05691429227590561,-0.07216624915599823,0.39053648710250854,0.1623035967350006,-9.871468544006348
1745665830.552697,0.20535138249397278,0.05231298878788948,-0.07315672934055328,0.548805832862854,0.17528553307056427,-10.154855728149414
1745665830.5536847,0.21052320301532745,0.06353490054607391,-0.08181321620941162,0.34110695123672485,0.14422662556171417,-9.89781379699707
1745665830.5915282,0.21398743987083435,0.054198674857616425,-0.08199511468410492,0.47973912954330444,0.22442519664764404,-9.278352737426758
1745665830.5931075,0.20246517658233643,0.05201990157365799,-0.08942338824272156,0.2967314124107361,0.2812061309814453,-9.517583847045898
1745665830.5953097,0.20071716606616974,0.06138836592435837,-0.09393240511417389,0.4290999472141266,0.14625881612300873,-10.03626823425293
1745665830.5971847,0.18577370047569275,0.05558369308710098,-0.0980396643280983,0.35797780752182007,0.23129048943519592,-9.836405754089355
1745665830.6314614,0.20589280128479004,0.06215154007077217,-0.10320053994655609,0.3923887312412262,0.3363097608089447,-9.412720680236816
1745665830.6340404,0.17086565494537354,0.012944327667355537,-0.1979595571756363,0.3532130718231201,-0.20025889575481415,-9.928343772888184
1745665830.6368554,0.17461362481117249,0.011023194529116154,-0.2034943550825119,0.46320652961730957,-0.019172701984643936,-9.590261459350586
1745665830.638817,0.1611970216035843,0.0030346200801432133,-0.20389612019062042,0.45749980211257935,-0.37559637427330017,-9.787208557128906
1745665830.6762009,0.1822483241558075,0.006938379257917404,-0.20425403118133545,0.446458637714386,-0.18068571388721466,-9.860689163208008
1745665830.6772635,0.15948082506656647,-0.000742922886274755,-0.20555534958839417,0.6230229735374451,-0.4593254029750824,-9.767171859741211
1745665830.6791842,0.16174019873142242,0.004444942809641361,-0.20555603504180908,0.3865330219268799,-0.32268649339675903,-9.67767333984375
1745665830.681217,0.14765408635139465,-0.0012923836475238204,-0.20946738123893738,0.5775803327560425,-0.4769344925880432,-9.733194351196289
1745665830.7160718,0.15077069401741028,-0.0034758136607706547,-0.20893684029579163,0.387821227312088,-0.1747240573167801,-9.761502265930176
1745665830.7194207,0.1324007213115692,0.0010266819735988975,-0.21106310188770294,0.46247297525405884,-0.36554625630378723,-9.844988822937012
1745665830.7221835,0.1503237783908844,-0.008182914927601814,-0.21669144928455353,0.4544350206851959,-0.2251569777727127,-9.761663436889648
1745665830.7248065,0.15101531147956848,-0.003760016756132245,-0.21909460425376892,0.41279593110084534,-0.07434014976024628,-9.626689910888672
1745665830.7267919,0.1377694457769394,-0.008682874962687492,-0.21826311945915222,0.5733043551445007,-0.49041980504989624,-9.759590148925781
1745665830.765695,0.16973817348480225,-0.004657035227864981,-0.21913424134254456,0.39169803261756897,-0.04142642393708229,-9.797346115112305
1745665830.7667718,0.1421220302581787,-0.007064445875585079,-0.21729977428913116,0.554080605506897,-0.511849045753479,-9.844938278198242
1745665830.7690682,0.1627267748117447,-0.007455906830728054,-0.22129693627357483,0.3493371903896332,-0.19539141654968262,-9.703022003173828
1745665830.772987,0.15597209334373474,-0.012227388098835945,-0.22109690308570862,0.560430645942688,-0.4351675510406494,-9.716095924377441
1745665830.803275,0.14889347553253174,-0.014454102143645287,-0.2210039347410202,0.4280834197998047,-0.36901119351387024,-9.908146858215332
1745665830.8068109,0.14561429619789124,-0.010808737948536873,-0.22809796035289764,0.41917935013771057,-0.2568759322166443,-9.86803150177002
1745665830.809801,0.14513489603996277,-0.01587703637778759,-0.2291402369737625,0.47429603338241577,-0.49419745802879333,-9.623326301574707
1745665830.814653,0.13584959506988525,-0.008756116032600403,-0.2310696840286255,0.3778444826602936,-0.1774280071258545,-9.506257057189941
1745665830.817502,0.1239488273859024,-0.019202586263418198,-0.23201271891593933,0.6231340765953064,-0.737777590751648,-9.97863483428955
1745665830.8467727,0.1488167643547058,-0.015639662742614746,-0.23237037658691406,0.3040742874145508,-0.180607408285141,-10.03959846496582
1745665830.8490593,0.11647790670394897,-0.013427168130874634,-0.23423299193382263,0.4981490969657898,-0.5582758188247681,-9.760591506958008
1745665830.853737,0.12965801358222961,-0.018050923943519592,-0.23654282093048096,0.5043472051620483,-0.342456191778183,-9.742424011230469
1745665830.8893044,0.1299106627702713,-0.022131672129034996,-0.23687152564525604,0.46981555223464966,-0.47725072503089905,-10.069387435913086
1745665830.893298,0.13679158687591553,-0.01613658294081688,-0.23884990811347961,0.3399871289730072,-0.32197993993759155,-9.854270935058594
1745665830.8952482,0.12446615844964981,-0.024707486853003502,-0.23757147789001465,0.5153470039367676,-0.5915172100067139,-9.614349365234375
1745665830.897824,0.12579287588596344,-0.022153981029987335,-0.24150684475898743,0.36099302768707275,-0.18914349377155304,-9.713903427124023
1745665830.906422,0.1169869676232338,-0.02230273373425007,-0.2428208887577057,0.5520192384719849,-0.7412756681442261,-10.013294219970703
1745665830.9344387,0.1321735978126526,-0.021556656807661057,-0.2447281777858734,0.39915037155151367,-0.21127131581306458,-9.74831771850586
1745665830.9383802,0.10708916187286377,-0.016985982656478882,-0.24350133538246155,0.5295742750167847,-0.5535837411880493,-9.65721321105957
1745665830.9415307,0.12891072034835815,-0.025157630443572998,-0.24519677460193634,0.3985687792301178,-0.4943062663078308,-9.735969543457031
1745665830.9445632,0.12268507480621338,-0.01859014295041561,-0.24691280722618103,0.3846193850040436,-0.2322438508272171,-9.900650978088379
1745665830.9774256,0.11960048973560333,-0.024281995370984077,-0.2479335516691208,0.455798864364624,-0.6559005975723267,-9.957405090332031
1745665830.980089,0.13610228896141052,-0.019855447113513947,-0.24776820838451385,0.2789389193058014,-0.197275310754776,-9.626385688781738
1745665830.9834788,0.11465046554803848,-0.015165974386036396,-0.274268239736557,0.450941264629364,-0.543622612953186,-9.816450119018555
1745665830.988127,0.09721145778894424,-0.005393145140260458,-0.27761414647102356,0.34128710627555847,-0.8253682255744934,-9.796125411987305
1745665831.0182972,0.11798174679279327,-0.01757676526904106,-0.27762919664382935,0.5558052062988281,-0.7417499423027039,-9.620162010192871
1745665831.021114,0.09345586597919464,-0.014724401757121086,-0.2754027545452118,0.3972119688987732,-0.6446574926376343,-9.836404800415039
1745665831.0211964,0.1036754697561264,-0.010250860825181007,-0.27593162655830383,0.5578446388244629,-0.9625174403190613,-9.936415672302246
1745665831.0236034,0.10960336029529572,-0.0092849750071764,-0.2743905484676361,0.31999945640563965,-0.42141181230545044,-9.62062931060791
1745665831.0236657,0.09848009049892426,-0.010878268629312515,-0.2741684317588806,0.4867676794528961,-0.9619743227958679,-9.684945106506348
1745665831.061981,0.11067105829715729,-0.015979770570993423,-0.27556005120277405,0.4151500165462494,-0.526921272277832,-9.807252883911133
1745665831.0713003,0.10195466130971909,-0.011615199968218803,-0.27730244398117065,0.3452558219432831,-0.8457421064376831,-10.027249336242676
1745665831.0713813,0.09927761554718018,-0.01834098994731903,-0.27636241912841797,0.44473734498023987,-0.733794093132019,-9.698728561401367
1745665831.0714417,0.09279289841651917,-0.01231948472559452,-0.2788250148296356,0.324826180934906,-0.6983197927474976,-9.569734573364258
1745665831.1060622,0.0943167582154274,-0.01696147210896015,-0.2786265015602112,0.6055927872657776,-0.9587938189506531,-9.71715259552002
1745665831.1111515,0.08339350670576096,-0.012687942013144493,-0.27755048871040344,0.4169456362724304,-0.5685861706733704,-9.863018989562988
1745665831.1135297,0.08509302139282227,-0.009379378519952297,-0.27902430295944214,0.5367683172225952,-1.0253446102142334,-9.893438339233398
1745665831.1165214,0.09222785383462906,-0.018283076584339142,-0.2776062786579132,0.32743191719055176,-0.5200198888778687,-9.568426132202148
1745665831.146292,0.07613024115562439,-0.01412625890225172,-0.27825841307640076,0.45466628670692444,-0.8766007423400879,-9.734539985656738
1745665831.1501143,0.09461448341608047,-0.017856333404779434,-0.27880343794822693,0.4430996775627136,-0.6260215640068054,-9.872111320495605
1745665831.1533303,0.08860398828983307,-0.01018545962870121,-0.27908024191856384,0.28184396028518677,-0.6580153703689575,-9.775466918945312
1745665831.153396,0.09659572690725327,-0.01226313691586256,-0.278472363948822,0.4921625256538391,-0.7448306083679199,-9.476250648498535
1745665831.1572206,0.08893193304538727,-0.017156939953565598,-0.28060969710350037,0.3796503245830536,-0.7408930659294128,-9.745363235473633
1745665831.1905963,0.0912630707025528,-0.01483336091041565,-0.28174740076065063,0.5600526332855225,-0.9259157180786133,-10.026810646057129
1745665831.1922705,0.08100877702236176,-0.015404345467686653,-0.2808636724948883,0.3876655101776123,-0.6458892226219177,-9.84544849395752
1745665831.1946044,0.07644907385110855,-0.009937698021531105,-0.2814249098300934,0.4377874732017517,-1.1279810667037964,-9.607844352722168
1745665831.1983666,0.0572442002594471,-0.013592159375548363,-0.28322625160217285,0.4934869706630707,-0.8779851794242859,-9.97481632232666
1745665831.2363653,0.07939310371875763,-0.014498583972454071,-0.28424176573753357,0.506882905960083,-0.8128091096878052,-9.964256286621094
1745665831.2405207,0.06822197139263153,-0.013540302403271198,-0.2838621735572815,0.2766873240470886,-0.5800625085830688,-9.560277938842773
1745665831.243401,0.07458678632974625,-0.01703757978975773,-0.28539982438087463,0.5179535746574402,-0.9206275939941406,-9.566810607910156
1745665831.2496364,0.07314892113208771,-0.02136845514178276,-0.28329235315322876,0.31852084398269653,-0.5946438312530518,-9.938157081604004
1745665831.2824311,0.07731761038303375,-0.013439418748021126,-0.2827208638191223,0.4749976694583893,-0.92242431640625,-9.940191268920898
1745665831.286612,0.07249341905117035,-0.018120836466550827,-0.2834498882293701,0.4272373616695404,-0.7520021200180054,-9.530381202697754
1745665831.290065,0.07351846247911453,-0.015674104914069176,-0.28383350372314453,0.4165712296962738,-0.8929280042648315,-9.53382682800293
1745665831.2930138,0.074323371052742,-0.021603118628263474,-0.2850341200828552,0.5708760619163513,-0.738074779510498,-9.75779914855957
1745665831.296274,0.06135619431734085,-0.013576899655163288,-0.28271475434303284,0.3740376830101013,-0.8340471386909485,-10.048983573913574
1745665831.320013,0.07952510565519333,-0.014513665810227394,-0.28280729055404663,0.5161548256874084,-0.9004727602005005,-9.683263778686523
1745665831.3236675,0.06483221799135208,-0.024178266525268555,-0.2854273319244385,0.3179873824119568,-0.6876159906387329,-9.408082008361816
1745665831.3274832,0.0621359758079052,-0.01425047218799591,-0.28299766778945923,0.49541717767715454,-1.0224215984344482,-9.743585586547852
1745665831.3287241,0.021358519792556763,-0.02506575919687748,-0.2806544005870819,0.4583822190761566,-1.0091960430145264,-9.755387306213379
1745665831.3647883,0.026198500767350197,-0.028369586914777756,-0.27876991033554077,0.4976998269557953,-0.7883293628692627,-9.644959449768066
1745665831.3665152,0.026074614375829697,-0.02769869938492775,-0.2769900858402252,0.28126174211502075,-0.9041098356246948,-9.8673095703125
1745665831.3685117,0.02301439642906189,-0.02793314680457115,-0.2785107493400574,0.4844190180301666,-0.925879955291748,-9.780223846435547
1745665831.3701496,0.017033275216817856,-0.02864951826632023,-0.2775624990463257,0.3695754408836365,-0.757784903049469,-9.6559476852417
1745665831.4052975,0.026958543807268143,-0.030247097834944725,-0.28002169728279114,0.5245295166969299,-1.1182385683059692,-9.683873176574707
1745665831.407412,0.012637767009437084,-0.03123795986175537,-0.2796269655227661,0.42248111963272095,-0.6773446798324585,-9.685506820678711
1745665831.412944,0.011310052126646042,-0.020683694630861282,-0.2778882384300232,0.44874048233032227,-1.1872138977050781,-9.88305950164795
1745665831.4163945,0.022667886689305305,-0.029978180304169655,-0.27627766132354736,0.4482862949371338,-0.7506752610206604,-9.639381408691406
1745665831.4176128,0.005543558392673731,-0.0280657559633255,-0.27718907594680786,0.3727162182331085,-0.9195970296859741,-9.776273727416992
1745665831.450592,0.026418831199407578,-0.025562644004821777,-0.2755853533744812,0.5053570866584778,-0.8560870885848999,-9.798460006713867
1745665831.454347,0.016278918832540512,-0.02772136591374874,-0.2773984372615814,0.30706676840782166,-0.7196672558784485,-9.6725492477417
1745665831.4553447,0.02686198614537716,-0.025530200451612473,-0.27597570419311523,0.534171998500824,-0.9255790710449219,-9.579968452453613
1745665831.4594269,0.01561192236840725,-0.02986251376569271,-0.27690204977989197,0.39645686745643616,-0.8926233053207397,-9.808248519897461
1745665831.4912078,0.02263084426522255,-0.02143130823969841,-0.2770656645298004,0.4376041293144226,-1.041130781173706,-9.887336730957031
1745665831.4995723,0.004530608654022217,-0.028814584016799927,-0.2762284576892853,0.48036640882492065,-0.8356317281723022,-9.685518264770508
1745665831.4996805,0.007517911493778229,-0.025354117155075073,-0.27532538771629333,0.35782474279403687,-1.182984709739685,-9.779447555541992
1745665831.5014331,0.009182004258036613,-0.029003014788031578,-0.2750614285469055,0.48958396911621094,-0.725240170955658,-9.629612922668457
1745665831.5045037,-0.012546950951218605,-0.025042269378900528,-0.277849018573761,0.4239732623100281,-0.9563114047050476,-9.840188026428223
1745665831.5348997,0.012552606873214245,-0.024424932897090912,-0.27638331055641174,0.5155080556869507,-0.937580943107605,-9.702058792114258
1745665831.5378544,-0.007338963449001312,-0.02884763851761818,-0.2778823971748352,0.3494405150413513,-0.6754471063613892,-9.686116218566895
1745665831.5408328,0.008420559577643871,-0.025076210498809814,-0.2767016291618347,0.43456706404685974,-1.0873979330062866,-9.901591300964355
1745665831.5409205,0.0017462410032749176,-0.029246186837553978,-0.2748081684112549,0.39363130927085876,-0.6745957136154175,-9.77372932434082
1745665831.5827043,0.01114599872380495,-0.022898802533745766,-0.2748909592628479,0.33798107504844666,-0.8352605700492859,-9.771052360534668
1745665831.5861647,0.010605214163661003,-0.02743285521864891,-0.2766909897327423,0.5625432133674622,-0.8209940791130066,-9.643922805786133
1745665831.5912702,-0.004812294151633978,-0.025000417605042458,-0.27571767568588257,0.3256508708000183,-0.8301685452461243,-9.846213340759277
1745665831.5946007,0.020602717995643616,-0.02091902308166027,-0.27756959199905396,0.4873422682285309,-0.9258915781974792,-9.821470260620117
1745665831.6221051,-0.0001960031659109518,-0.027474869042634964,-0.27781617641448975,0.32379230856895447,-0.6439996361732483,-9.615964889526367
1745665831.6272762,0.010155131109058857,-0.01730949617922306,-0.2802063822746277,0.39775556325912476,-1.0289386510849,-9.64152717590332
1745665831.62824,0.015097601339221,-0.025976698845624924,-0.27869901061058044,0.4736330509185791,-0.6389556527137756,-9.63671875
1745665831.633209,0.008660112507641315,-0.019067874178290367,-0.278756320476532,0.41381126642227173,-0.9660270810127258,-9.938444137573242
1745665831.6347194,0.015070030465722084,-0.019585050642490387,-0.2754471004009247,0.5057690739631653,-0.8313556909561157,-9.77393913269043
1745665831.667597,0.012944474816322327,-0.022241760045289993,-0.27630746364593506,0.30700838565826416,-0.9312469363212585,-9.735432624816895
1745665831.6693377,0.011937458999454975,-0.021038208156824112,-0.27546799182891846,0.4597443640232086,-0.9649438858032227,-9.735450744628906
1745665831.6709595,0.005488574039191008,-0.024360062554478645,-0.27372875809669495,0.3345165550708771,-0.7962750792503357,-9.800085067749023
1745665831.6743503,0.020403927192091942,-0.015532414428889751,-0.2753770649433136,0.40436792373657227,-0.9474635124206543,-9.744071960449219
1745665831.707559,0.0004517555353231728,-0.016160225495696068,-0.270883172750473,0.34528133273124695,-0.873397171497345,-9.783449172973633
1745665831.716916,0.02228921838104725,-0.012102348729968071,-0.27057236433029175,0.4843352735042572,-0.9204465746879578,-9.76496696472168
1745665831.7170353,-0.0019091613357886672,-0.021739942952990532,-0.2677384614944458,0.4145898222923279,-0.8874272108078003,-9.707147598266602
1745665831.7185855,0.012284968979656696,-0.01161496527493,-0.2677895128726959,0.43419304490089417,-0.9452657699584961,-9.668871879577637
1745665831.7501512,-0.0072332159616053104,-0.018627958372235298,-0.2658150792121887,0.5208805799484253,-1.0056802034378052,-9.730802536010742
1745665831.7526748,0.00475985137745738,-0.014637904241681099,-0.2662118077278137,0.37795835733413696,-0.8765935897827148,-9.880970001220703
1745665831.756113,-0.013550120405852795,-0.01854078844189644,-0.2666911482810974,0.5238202214241028,-0.8631043434143066,-9.804215431213379
1745665831.7578433,-0.001351068145595491,-0.019143156707286835,-0.26563549041748047,0.2904473841190338,-0.976172149181366,-9.790715217590332
1745665831.760294,0.0019502118229866028,-0.014982196502387524,-0.2664361000061035,0.43019771575927734,-0.7310457229614258,-9.478593826293945
1745665831.794576,-0.017420126125216484,-0.020339542999863625,-0.2656465768814087,0.4587534964084625,-0.9025833010673523,-9.71388053894043
1745665831.797652,0.014386099763214588,-0.011902878992259502,-0.26665011048316956,0.35420840978622437,-0.8105409741401672,-9.844558715820312
1745665831.8022468,-0.01424357295036316,-0.019045423716306686,-0.26704999804496765,0.4986446499824524,-0.7469803094863892,-9.749051094055176
1745665831.8050206,0.010135067626833916,-0.014558401890099049,-0.26717495918273926,0.4151837229728699,-0.9540838003158569,-9.80607795715332
1745665831.8381839,-0.009919097647070885,-0.019777100533246994,-0.26661965250968933,0.5392187833786011,-0.8229889869689941,-9.755950927734375
1745665831.8405938,0.00372857553884387,-0.0203818678855896,-0.2663068175315857,0.38667038083076477,-0.9094196557998657,-9.798080444335938
1745665831.842218,-0.012675033882260323,-0.017352556809782982,-0.26404911279678345,0.5191655158996582,-0.9932171106338501,-9.660600662231445
1745665831.8475497,-0.007996983826160431,-0.019756685942411423,-0.2635517716407776,0.37243717908859253,-0.8433864712715149,-9.642725944519043
1745665831.8796713,-0.003662289585918188,-0.018025225028395653,-0.2647641897201538,0.49020639061927795,-0.7744120359420776,-9.710355758666992
1745665831.8847365,-0.024353355169296265,-0.019629020243883133,-0.26442351937294006,0.4089861810207367,-0.9226228594779968,-9.993348121643066
1745665831.8959248,0.014435701072216034,-0.016795482486486435,-0.26410558819770813,0.31526485085487366,-0.7461260557174683,-9.796875
1745665831.8961687,-0.020166661590337753,-0.02504841983318329,-0.2687045633792877,0.5189549922943115,-0.8274957537651062,-9.517900466918945
1745665831.8962982,0.0036194026470184326,-0.018958527594804764,-0.26609933376312256,0.35032933950424194,-0.895473301410675,-9.716560363769531
1745665831.9231493,-0.0023323993664234877,-0.018770882859826088,-0.2636433243751526,0.49581438302993774,-0.7544307708740234,-9.775898933410645
1745665831.924678,-0.006296529434621334,-0.023371687158942223,-0.2634372115135193,0.4556763172149658,-0.9343473315238953,-9.832368850708008
1745665831.9268994,2.904404027503915e-05,-0.016782246530056,-0.2636573910713196,0.44616931676864624,-0.8285247683525085,-9.694340705871582
1745665831.930241,-0.009798383340239525,-0.027218032628297806,-0.26307782530784607,0.4322410523891449,-0.881965160369873,-9.764010429382324
1745665831.9712613,-0.004323148168623447,-0.020797090604901314,-0.2637834846973419,0.33658599853515625,-0.7955607175827026,-9.839925765991211
1745665831.9732296,-0.013479867950081825,-0.021827561780810356,-0.2639206051826477,0.4723033308982849,-0.8167853355407715,-9.649759292602539
1745665831.9764063,0.008527582511305809,-0.021789757534861565,-0.26479029655456543,0.3769025504589081,-0.7687439918518066,-9.577754020690918
1745665831.9776986,-0.020728150382637978,-0.020137682557106018,-0.26396888494491577,0.515583336353302,-0.8260388374328613,-9.719625473022461
1745665831.9815,0.0017627921188250184,-0.01935824193060398,-0.26266422867774963,0.35438859462738037,-0.9415979385375977,-9.961400985717773
1745665832.0088136,0.0021693508606404066,-0.01990537904202938,-0.26266080141067505,0.4150785505771637,-0.7514621019363403,-9.709127426147461
1745665832.0123103,-0.01134092453867197,-0.024785708636045456,-0.26255425810813904,0.4147437512874603,-0.8944631814956665,-9.610483169555664
1745665832.0162132,0.014039036817848682,-0.01494376640766859,-0.261970192193985,0.35724055767059326,-0.7446942329406738,-9.758169174194336
1745665832.0178132,-0.011865487322211266,-0.024006903171539307,-0.260265052318573,0.5062947273254395,-0.8940652012825012,-9.785242080688477
1745665832.052157,0.007127002812922001,-0.01680075377225876,-0.26117387413978577,0.3377743065357208,-0.742457926273346,-9.680227279663086
1745665832.0610924,-0.003700920846313238,-0.014844430610537529,-0.2576419711112976,0.3719921112060547,-0.8173683285713196,-9.834044456481934
1745665832.0611656,0.001941524795256555,-0.022706585004925728,-0.2585913836956024,0.47420796751976013,-0.9330946207046509,-9.607519149780273
1745665832.0621877,-0.0002777479530777782,-0.017390873283147812,-0.25974297523498535,0.30084002017974854,-0.505001425743103,-9.575520515441895
1745665832.0963857,-0.012744504027068615,-0.015214523300528526,-0.2598382532596588,0.5363677740097046,-0.9732160568237305,-9.864592552185059
1745665832.0999913,0.016715608537197113,-0.019944028928875923,-0.259921133518219,0.28392019867897034,-0.5918334722518921,-9.845032691955566
1745665832.1032047,-0.006158306263387203,-0.015542050823569298,-0.2601372003555298,0.503415584564209,-0.8264458775520325,-9.73260498046875
1745665832.1069663,0.01705166883766651,-0.022107556462287903,-0.2580430209636688,0.43711361289024353,-0.7513734102249146,-9.755643844604492
1745665832.1371744,0.006494683213531971,-0.016160398721694946,-0.25828391313552856,0.3678582012653351,-0.7593571543693542,-9.770594596862793
1745665832.1391606,0.013132411055266857,-0.020349280908703804,-0.2574130892753601,0.5274630784988403,-0.7968716025352478,-9.689329147338867
1745665832.1419332,0.007820543833076954,-0.017106274142861366,-0.25854262709617615,0.315751850605011,-0.8177949786186218,-9.750862121582031
1745665832.1453605,0.007225255016237497,-0.018254373222589493,-0.2574746012687683,0.4879848062992096,-0.8713791966438293,-9.755605697631836
1745665832.146677,0.004351217299699783,-0.016975555568933487,-0.2585802972316742,0.3110094666481018,-0.6102544069290161,-9.72380256652832
1745665832.1849716,-0.007885955274105072,-0.016686711460351944,-0.2593519985675812,0.4406011700630188,-1.0443894863128662,-9.826375961303711
1745665832.1896305,0.012038180604577065,-0.022111034020781517,-0.26267164945602417,0.3799063265323639,-0.5630066394805908,-9.692895889282227
1745665832.1923702,-0.013391879387199879,-0.016430038958787918,-0.2611939311027527,0.48892301321029663,-0.8658934831619263,-9.772284507751465
1745665832.1950533,0.010155368596315384,-0.01917707733809948,-0.25982919335365295,0.5116448402404785,-0.835416316986084,-9.70252513885498
1745665832.2263443,0.0020751547999680042,-0.016916947439312935,-0.2603835165500641,0.32078829407691956,-0.6686264276504517,-9.73569393157959
1745665832.228113,0.003901251358911395,-0.01927339844405651,-0.2577323913574219,0.5161527991294861,-0.9282268285751343,-9.814456939697266
1745665832.2303464,0.014080795459449291,-0.01803242601454258,-0.2573834955692291,0.2694072127342224,-0.5330368280410767,-9.810236930847168
1745665832.2352302,0.013508923351764679,-0.017796119675040245,-0.25755390524864197,0.45290088653564453,-0.9001919031143188,-9.739998817443848
1745665832.2376251,0.010956069454550743,-0.02462579496204853,-0.25974124670028687,0.39638856053352356,-0.6343399286270142,-9.668272972106934
1745665832.268721,0.007445830851793289,-0.017779242247343063,-0.25962552428245544,0.43310222029685974,-0.9657484292984009,-9.80984878540039
1745665832.2752614,0.010230259969830513,-0.023316197097301483,-0.25955602526664734,0.4747680127620697,-0.8211109042167664,-9.699259757995605
1745665832.2815757,-0.011378121562302113,-0.02316351607441902,-0.2585606575012207,0.33878469467163086,-0.6485341191291809,-9.748533248901367
1745665832.2837944,-0.01230758149176836,-0.01847182586789131,-0.2589004337787628,0.5295679569244385,-1.0565564632415771,-9.797731399536133
1745665832.311743,0.0023916626814752817,-0.022356385365128517,-0.2571107745170593,0.30439263582229614,-0.5109696388244629,-9.664838790893555
1745665832.31436,-0.012533508241176605,-0.018029963597655296,-0.2606428861618042,0.4222712516784668,-0.9142202138900757,-9.713680267333984
1745665832.3185618,0.002411662368103862,-0.023007318377494812,-0.2572121024131775,0.4298635423183441,-0.6166974306106567,-9.71692180633545
1745665832.321002,0.001116167171858251,-0.015699584037065506,-0.26151829957962036,0.3259282112121582,-0.8498784303665161,-9.869585990905762
1745665832.3523746,-0.0013356911949813366,-0.023262077942490578,-0.25864386558532715,0.5112472772598267,-0.8032525181770325,-9.74007797241211
1745665832.3548536,-0.006283218506723642,-0.022287290543317795,-0.2601751983165741,0.3362885117530823,-0.7269521951675415,-9.730816841125488
1745665832.3554604,0.0036907445173710585,-0.021879786625504494,-0.25808873772621155,0.5539860129356384,-0.9917194247245789,-9.700888633728027
1745665832.3587005,-0.011722971685230732,-0.021077122539281845,-0.25848251581192017,0.4115208685398102,-0.589417576789856,-9.710321426391602
1745665832.3970108,-0.011470552533864975,-0.015489337034523487,-0.25845810770988464,0.5299434065818787,-1.0478185415267944,-9.863886833190918
1745665832.3976824,-0.0005826797569170594,-0.025134513154625893,-0.2569085657596588,0.35436463356018066,-0.553741455078125,-9.709532737731934
1745665832.4001746,-0.014571316540241241,-0.02175082452595234,-0.25710412859916687,0.33492493629455566,-0.715666651725769,-9.63481330871582
1745665832.4052787,0.0058072032406926155,-0.014168024063110352,-0.2551119923591614,0.4403356611728668,-0.7988028526306152,-9.646445274353027
1745665832.4392903,-0.015232214704155922,-0.01793046109378338,-0.25538334250450134,0.4350743889808655,-0.7801753878593445,-9.794918060302734
1745665832.4431627,0.005519818514585495,-0.013057457283139229,-0.2544082701206207,0.3041383624076843,-0.7365561127662659,-9.863381385803223
1745665832.4465244,-0.010542735457420349,-0.016973039135336876,-0.2563970685005188,0.4339429438114166,-0.6145212054252625,-9.649868965148926
1745665832.4502168,-0.007528022862970829,-0.015597311779856682,-0.25706297159194946,0.24848465621471405,-0.8486337661743164,-9.78111457824707
1745665832.4519284,0.003602382494136691,-0.016031544655561447,-0.2593607008457184,0.437380850315094,-0.6348487734794617,-9.643491744995117
1745665832.48381,-0.020037220790982246,-0.019255833700299263,-0.2582907974720001,0.45984727144241333,-0.7792351245880127,-9.807451248168945
1745665832.4873512,0.005191101226955652,-0.0081638740375638,-0.2574389576911926,0.4826478064060211,-0.8891544342041016,-9.756685256958008
1745665832.492425,-0.016851693391799927,-0.02042541839182377,-0.2560388445854187,0.4242855906486511,-0.6278036832809448,-9.676933288574219
1745665832.4953513,0.0022396030835807323,-0.012555134482681751,-0.2546081840991974,0.3901621699333191,-0.8709486126899719,-9.842689514160156
1745665832.524664,-0.007829690352082253,-0.018909290432929993,-0.2538924813270569,0.4568161070346832,-0.5873450040817261,-9.803953170776367
1745665832.527976,0.009593406692147255,-0.01729244366288185,-0.2554032802581787,0.29184263944625854,-0.670123279094696,-9.788140296936035
1745665832.531223,0.00013294853852130473,-0.013663990423083305,-0.25635460019111633,0.45491188764572144,-0.6536194682121277,-9.588666915893555
1745665832.534688,0.002912567462772131,-0.017390508204698563,-0.25818318128585815,0.3094260096549988,-0.7237553000450134,-9.697546005249023
1745665832.5370286,0.013827817514538765,-0.015753019601106644,-0.25786370038986206,0.47497862577438354,-0.7298091650009155,-9.717506408691406
1745665832.5748394,-0.016781121492385864,-0.017417773604393005,-0.2583206593990326,0.4032549262046814,-0.7978085279464722,-9.937832832336426
1745665832.57908,0.015283185057342052,-0.012643377296626568,-0.2585473358631134,0.4373650550842285,-0.8552276492118835,-9.829307556152344
1745665832.5815778,-0.01920415833592415,-0.02466212958097458,-0.2582629323005676,0.514744758605957,-0.6816978454589844,-9.565664291381836
1745665832.585838,-0.006301638670265675,-0.014505314640700817,-0.25655657052993774,0.4047683775424957,-0.926984429359436,-9.820741653442383
1745665832.6111987,-0.0035166065208613873,-0.016548480838537216,-0.2584281861782074,0.4523993134498596,-0.6189998388290405,-9.782050132751465
1745665832.6142843,-0.014249910600483418,-0.01727580837905407,-0.2571503520011902,0.3351376950740814,-0.7917017936706543,-9.728048324584961
1745665832.6159492,0.0011511287884786725,-0.012294413521885872,-0.2558954060077667,0.4560668468475342,-0.613449215888977,-9.574984550476074
1745665832.6164277,0.006283272989094257,-0.012518122792243958,-0.2596755623817444,0.3691312372684479,-0.6419597864151001,-9.91186809539795
1745665832.6544795,-0.009886513464152813,-0.018437456339597702,-0.2588638961315155,0.4494470953941345,-0.741531491279602,-9.63844108581543
1745665832.655662,0.014070597477257252,-0.01830158941447735,-0.2604146897792816,0.3870648741722107,-0.8120397329330444,-9.557833671569824
1745665832.658653,-0.01350709330290556,-0.015378132462501526,-0.2585684061050415,0.559446394443512,-0.626522958278656,-9.694463729858398
1745665832.6598213,-0.0030683185905218124,-0.014183389954268932,-0.25724613666534424,0.39328914880752563,-0.8429004549980164,-10.01867961883545
1745665832.6960933,0.007413550280034542,-0.010977407917380333,-0.25814440846443176,0.42171043157577515,-0.5882648229598999,-9.654065132141113
1745665832.699133,-0.01269830483943224,-0.020957065746188164,-0.26086610555648804,0.38967365026474,-0.7103381752967834,-9.630788803100586
1745665832.7043347,0.013948674313724041,-0.01378178596496582,-0.2620801329612732,0.4081403315067291,-0.7064870595932007,-9.887922286987305
1745665832.7073174,-0.009884092025458813,-0.02117879129946232,-0.25767943263053894,0.39346078038215637,-0.7074085474014282,-9.871379852294922
1745665832.7084408,0.015350311994552612,-0.01198209822177887,-0.2587760388851166,0.3093250095844269,-0.6799389123916626,-9.645553588867188
1745665832.7431002,-0.007359082344919443,-0.018152138218283653,-0.25884824991226196,0.49656495451927185,-0.8184117078781128,-9.552896499633789
1745665832.7443125,0.011151675134897232,-0.017230521887540817,-0.2566797435283661,0.3237355947494507,-0.6291857957839966,-9.86791706085205
1745665832.7470014,0.0010233733337372541,-0.01568588986992836,-0.25842660665512085,0.5275527238845825,-0.668416440486908,-9.909785270690918
1745665832.7506502,0.022119969129562378,-0.012066698633134365,-0.2578262686729431,0.2864448130130768,-0.6171534061431885,-9.777674674987793
1745665832.7839036,-0.0017379637574777007,-0.01495867408812046,-0.25752609968185425,0.5047228336334229,-0.6578014492988586,-9.895195007324219
1745665832.7862213,0.012381961569190025,-0.016473332419991493,-0.25925976037979126,0.3530621826648712,-0.724711537361145,-9.881641387939453
1745665832.7877145,0.0016193501651287079,-0.013297337107360363,-0.25997310876846313,0.3984866440296173,-0.684889554977417,-9.641468048095703
1745665832.7907715,0.002694019814953208,-0.01976126804947853,-0.2606624960899353,0.44065871834754944,-0.7695667147636414,-9.65710163116455
1745665832.8260255,-0.005061490926891565,-0.013510478660464287,-0.25770673155784607,0.4236777722835541,-0.7849176526069641,-9.863582611083984
1745665832.8283703,-0.009369109757244587,-0.015112996101379395,-0.2585928440093994,0.48471465706825256,-0.77293860912323,-9.854246139526367
1745665832.8308496,0.007343659643083811,-0.012896227650344372,-0.2601466774940491,0.3073575794696808,-0.4937461316585541,-9.569056510925293
1745665832.8314238,-0.018446970731019974,-0.014502805657684803,-0.26092809438705444,0.45343494415283203,-0.8047720789909363,-9.739808082580566
1745665832.8339586,0.015716329216957092,-0.016130607575178146,-0.25905632972717285,0.3309144973754883,-0.49807438254356384,-9.919843673706055
1745665832.872676,-0.00023895464255474508,-0.014837106689810753,-0.26216810941696167,0.4445890784263611,-0.595714271068573,-9.795801162719727
1745665832.8763251,0.007182630710303783,-0.014763662591576576,-0.2605988681316376,0.38973352313041687,-0.7348113656044006,-9.66071605682373
1745665832.8811533,0.019359266385436058,-0.009013120085000992,-0.26321250200271606,0.3647100031375885,-0.4915238916873932,-9.59351921081543
1745665832.8847811,-0.00283459248021245,-0.018096640706062317,-0.2598911225795746,0.5487896800041199,-0.8924015760421753,-9.87214469909668
1745665832.9192863,0.018926937133073807,-0.008422487415373325,-0.26354271173477173,0.3333786129951477,-0.49825868010520935,-9.854384422302246
1745665832.9193683,-0.0019228265155106783,-0.013187672011554241,-0.26149338483810425,0.489680677652359,-0.9221906661987305,-9.746088027954102
1745665832.9194272,0.00895653385668993,-0.018208779394626617,-0.26062560081481934,0.3101394474506378,-0.6387912631034851,-9.707021713256836
1745665832.9194734,-0.011437964625656605,-0.011490685865283012,-0.2633070647716522,0.4135652482509613,-0.7546975612640381,-9.818385124206543
1745665832.9569619,0.006877393461763859,-0.015175528824329376,-0.2645493149757385,0.35341688990592957,-0.6801539659500122,-9.756036758422852
1745665832.9599197,-0.0033648847602307796,-0.009253906086087227,-0.2649664878845215,0.40702739357948303,-0.5076701045036316,-9.536062240600586
1745665832.964339,-0.005596641916781664,-0.013280515559017658,-0.26555711030960083,0.5213137865066528,-0.8852688074111938,-9.80497932434082
1745665832.9677079,0.015396145172417164,-0.011500918306410313,-0.26215502619743347,0.26789456605911255,-0.48064368963241577,-9.953595161437988
1745665832.9707332,-0.012181835249066353,-0.013890249654650688,-0.2641550302505493,0.481457382440567,-0.8426907658576965,-9.872020721435547
1745665833.001464,0.021864591166377068,-0.01017487421631813,-0.262509822845459,0.2954009771347046,-0.5736509561538696,-9.601269721984863
1745665833.0028038,-0.002369781956076622,-0.014154304750263691,-0.2614994943141937,0.5119465589523315,-0.7282084226608276,-9.589479446411133
1745665833.0044148,0.012452016584575176,-0.017105599865317345,-0.2606017589569092,0.4021454453468323,-0.5873731374740601,-9.865426063537598
1745665833.012928,0.005572473164647818,-0.007861776277422905,-0.26483339071273804,0.3921735882759094,-0.6857064366340637,-9.91028881072998
1745665833.0416348,0.007364210672676563,-0.016865521669387817,-0.26328444480895996,0.42875584959983826,-0.6504076719284058,-9.68295669555664
1745665833.0456018,0.004754096269607544,-0.012587388046085835,-0.26524290442466736,0.345517635345459,-0.5737227201461792,-9.639215469360352
1745665833.0496178,-0.0039039975963532925,-0.01813371852040291,-0.2640688717365265,0.45111244916915894,-0.9250332117080688,-9.914836883544922
1745665833.0506406,0.022097159177064896,-0.013862376101315022,-0.26412075757980347,0.27764904499053955,-0.46680355072021484,-9.7659912109375
1745665833.0516458,-0.010987876914441586,-0.011151513084769249,-0.26269787549972534,0.548729419708252,-0.8747153282165527,-9.63963794708252
1745665833.0863721,0.022839557379484177,-0.013758158311247826,-0.2621498107910156,0.3502717614173889,-0.5767569541931152,-9.653989791870117
1745665833.0963461,0.004037287086248398,-0.013845386914908886,-0.26164913177490234,0.4737972319126129,-0.5882783532142639,-9.859880447387695
1745665833.0990808,0.018915696069598198,-0.01643732376396656,-0.2626212537288666,0.3992479741573334,-0.7140778303146362,-9.967729568481445
1745665833.1019316,0.021516041830182076,-0.008085450157523155,-0.263656347990036,0.2709779143333435,-0.5398728251457214,-9.663763046264648
1745665833.1277945,0.014472207054495811,-0.01029440201818943,-0.2585325539112091,0.4191412329673767,-0.8136407136917114,-9.666064262390137
1745665833.1295755,0.01749439723789692,-0.02257906273007393,-0.2592769265174866,0.49087071418762207,-0.4712674617767334,-9.64565658569336
1745665833.1317298,0.001687024487182498,-0.015526866540312767,-0.26273155212402344,0.3018220067024231,-0.8052598237991333,-10.043452262878418
1745665833.1338258,0.03171447664499283,-0.018773818388581276,-0.26335471868515015,0.43074050545692444,-0.5870104432106018,-9.810173988342285
1745665833.178127,0.0029283694457262754,-0.01675235480070114,-0.2627820372581482,0.34401434659957886,-0.5130807161331177,-9.545930862426758
1745665833.1782582,0.02693183720111847,-0.015398284420371056,-0.2632984220981598,0.5463050603866577,-0.8533760905265808,-9.63746166229248
1745665833.1783109,0.026026099920272827,-0.021024836227297783,-0.25989753007888794,0.3132745027542114,-0.38094571232795715,-9.821548461914062
1745665833.1783595,0.022953322157263756,-0.011627493426203728,-0.261349618434906,0.4717182219028473,-0.9120557904243469,-9.939709663391113
1745665833.216952,0.03019883669912815,-0.0181739442050457,-0.2586032450199127,0.3816840350627899,-0.5368393659591675,-9.64356803894043
1745665833.220239,0.025106217712163925,-0.017565954476594925,-0.2599155902862549,0.3414744734764099,-0.8253854513168335,-9.735967636108398
1745665833.2227633,0.021882975473999977,-0.02241041325032711,-0.25949034094810486,0.42963629961013794,-0.6696983575820923,-9.814115524291992
1745665833.2246637,0.016669852659106255,-0.01326367724686861,-0.26219281554222107,0.29633739590644836,-0.6974678635597229,-9.802377700805664
1745665833.2266595,0.029598023742437363,-0.013990174047648907,-0.2627669870853424,0.5161537528038025,-0.7651209831237793,-9.465871810913086
1745665833.2561576,-0.004381399601697922,-0.019627738744020462,-0.26394784450531006,0.3623850643634796,-0.5909484624862671,-9.721559524536133
1745665833.2586699,0.022762779146432877,-0.013579731807112694,-0.2606462240219116,0.4889521598815918,-0.9163392782211304,-10.118450164794922
1745665833.2618396,0.010862236842513084,-0.017062244936823845,-0.2598646879196167,0.2803899943828583,-0.46860527992248535,-9.798800468444824
