timestamp,angular_vel_x,angular_vel_y,angular_vel_z,linear_acc_x,linear_acc_y,linear_acc_z
1745733676.9065292,0.005839026998728514,0.012259108945727348,-0.040640801191329956,0.4708380699157715,0.1676948517560959,-10.883278846740723
1745733676.906588,0.056751906871795654,0.031437814235687256,-0.04289265722036362,0.32164645195007324,-0.19467031955718994,-10.139630317687988
1745733676.9067767,0.017358433455228806,0.01742103323340416,-0.0422828383743763,0.6423644423484802,-0.030799254775047302,-8.505666732788086
1745733676.9068396,0.19652928411960602,0.0875253975391388,-0.19680263102054596,0.9048819541931152,-0.16512957215309143,-9.237958908081055
1745733676.9068687,0.21850430965423584,0.09290777891874313,-0.2007027566432953,0.8536022901535034,-0.3066658675670624,-9.760761260986328
1745733676.9572682,0.19837753474712372,0.09324102103710175,-0.20618978142738342,0.8980827331542969,-0.19588570296764374,-10.182088851928711
1745733676.9573078,0.22009322047233582,0.09126198291778564,-0.21561872959136963,0.7738247513771057,-0.19324429333209991,-9.715818405151367
1745733676.9601371,0.20769038796424866,0.09662813693284988,-0.21939626336097717,0.8754352331161499,-0.28991320729255676,-9.234319686889648
1745733676.9625916,0.19734477996826172,0.08344059437513351,-0.2254737913608551,0.9856017827987671,-0.3346104621887207,-9.726682662963867
1745733677.0182455,0.2268940508365631,0.08715278655290604,-0.2284434735774994,1.0854412317276,-0.4044014811515808,-10.26309585571289
1745733677.0189161,0.19358786940574646,0.08492626994848251,-0.23037061095237732,1.0912531614303589,-0.33162814378738403,-9.988479614257812
1745733677.019003,0.23010341823101044,0.08842714130878448,-0.23391517996788025,0.8822523951530457,-0.374875545501709,-9.320706367492676
1745733677.0544305,0.1949072778224945,0.07293336093425751,-0.23518586158752441,1.028881311416626,-0.340864360332489,-9.391151428222656
1745733677.057703,0.22202658653259277,0.07864464819431305,-0.240382120013237,0.8982867002487183,-0.20062002539634705,-10.107121467590332
1745733677.0600092,0.21362309157848358,0.07735435664653778,-0.24835515022277832,1.0066055059432983,-0.3936549127101898,-10.093265533447266
1745733677.060725,0.22591571509838104,0.07336519658565521,-0.2523382008075714,0.8495079874992371,-0.20702628791332245,-9.44090747833252
1745733677.0620692,0.2227044403553009,0.0721011608839035,-0.25537246465682983,0.8804806470870972,-0.4718201160430908,-9.394882202148438
1745733677.0907114,0.20052137970924377,0.05842914059758186,-0.2617921233177185,1.0240659713745117,-0.5981011390686035,-9.954147338867188
1745733677.093716,0.23465564846992493,0.0736183375120163,-0.26282280683517456,0.9737316966056824,-0.5415261387825012,-9.997190475463867
1745733677.1171656,0.17070338129997253,0.06046628952026367,-0.2655211091041565,1.1092110872268677,-0.7349566221237183,-9.603193283081055
1745733677.117219,0.2196333408355713,0.059431422501802444,-0.2660825550556183,1.0226833820343018,-0.6571313142776489,-9.341310501098633
1745733677.119956,0.1732320338487625,0.06046610325574875,-0.2701948583126068,1.029831886291504,-0.5201829671859741,-9.870210647583008
1745733677.1222687,0.1901254951953888,0.0486467219889164,-0.2735663652420044,0.9510141611099243,-0.5265727043151855,-10.176614761352539
1745733677.1258137,0.19148924946784973,0.05095371603965759,-0.27798664569854736,1.0661725997924805,-0.5656387805938721,-9.626389503479004
1745733677.1387117,0.1792585253715515,0.04373697191476822,-0.2823147177696228,0.9414655566215515,-0.25985923409461975,-9.422548294067383
1745733677.1547005,0.1706540733575821,0.02471524477005005,-0.29755470156669617,1.076737880706787,-0.5319964289665222,-9.97490406036377
1745733677.1634533,0.17012807726860046,0.012420411221683025,-0.3024780750274658,0.8834105730056763,-0.5558474063873291,-9.892048835754395
1745733677.1651556,0.19299890100955963,0.018327437341213226,-0.30687183141708374,1.016595482826233,-0.5542685389518738,-9.453328132629395
1745733677.1668744,0.1484006941318512,0.005023380741477013,-0.3107210099697113,0.9629938006401062,-0.6297658681869507,-9.581855773925781
1745733677.171858,0.17892087996006012,0.004923938307911158,-0.31267815828323364,0.963723361492157,-0.8152183294296265,-9.920608520507812
1745733677.195547,0.1437518298625946,-0.0005913171917200089,-0.31483694911003113,1.2133901119232178,-0.7821458578109741,-9.836835861206055
1745733677.1956062,0.16213956475257874,0.00202626409009099,-0.31636276841163635,0.9226692914962769,-0.705414354801178,-9.695783615112305
1745733677.1994722,0.12898467481136322,-0.006021089386194944,-0.3183140456676483,1.0497334003448486,-0.7908662557601929,-9.596526145935059
1745733677.2173944,0.14580538868904114,-0.012334982864558697,-0.3196319043636322,1.0450021028518677,-0.6991689801216125,-9.77372932434082
1745733677.2208061,0.14545895159244537,-0.007336174603551626,-0.3228825628757477,0.9608484506607056,-0.617390513420105,-9.909049034118652
1745733677.2455409,0.12323404848575592,-0.02087581902742386,-0.3271946310997009,0.9992316961288452,-0.6138132214546204,-9.753030776977539
1745733677.2455919,0.16850817203521729,-0.013952243141829967,-0.32780027389526367,0.9759742617607117,-0.6128126382827759,-9.445570945739746
1745733677.248759,0.12345312535762787,-0.02317770943045616,-0.33378273248672485,0.9800388216972351,-0.5288553833961487,-9.7156400680542
1745733677.270004,0.16558365523815155,-0.03008463978767395,-0.3346691131591797,0.9895603060722351,-0.6787335276603699,-10.013063430786133
1745733677.2895339,0.09575823694467545,-0.08142845332622528,-0.3787793815135956,0.8369287252426147,-0.9753690958023071,-9.798587799072266
1745733677.3027058,0.08929368108510971,-0.09023179113864899,-0.38020601868629456,0.7263230085372925,-0.806907057762146,-9.739561080932617
1745733677.330333,0.09768742322921753,-0.08508163690567017,-0.38053953647613525,0.804835319519043,-0.9862433671951294,-9.703946113586426
1745733677.3358567,0.07180292904376984,-0.08758597075939178,-0.38198330998420715,0.8136519193649292,-0.7672138214111328,-9.749588966369629
1745733677.338629,0.09873253852128983,-0.08858934789896011,-0.38495317101478577,0.7481279969215393,-1.0395700931549072,-9.854034423828125
1745733677.3409832,0.0731218159198761,-0.08416184037923813,-0.3857280910015106,0.89569091796875,-0.837690532207489,-9.604570388793945
1745733677.3526564,0.07444944977760315,-0.0866050124168396,-0.386965811252594,0.6884952783584595,-0.9092278480529785,-9.728948593139648
1745733677.3542898,0.08279162645339966,-0.08173389732837677,-0.38693755865097046,0.8723037838935852,-1.052668809890747,-9.739596366882324
1745733677.358503,0.06958825141191483,-0.08347474038600922,-0.3853248059749603,0.7304603457450867,-0.7085191011428833,-9.712579727172852
1745733677.3687563,0.08545684069395065,-0.08109793066978455,-0.3866456151008606,0.688430905342102,-1.0880329608917236,-9.972668647766113
1745733677.374187,0.0711086168885231,-0.08632921427488327,-0.38590872287750244,0.7806304693222046,-0.7546154856681824,-9.592865943908691
1745733677.377928,0.09273278713226318,-0.07749070972204208,-0.385345995426178,0.7128192186355591,-0.9266626238822937,-9.640884399414062
1745733677.3793187,0.06744398176670074,-0.08214011788368225,-0.39031490683555603,0.7770172357559204,-0.8725078701972961,-9.771709442138672
1745733677.382471,0.09058455377817154,-0.08384387195110321,-0.3893287777900696,0.6875895857810974,-0.9615795016288757,-9.76567268371582
1745733677.4099355,0.07155914604663849,-0.06911681592464447,-0.38810059428215027,0.8504627346992493,-0.9576274156570435,-9.598716735839844
1745733677.41153,0.06126407906413078,-0.07826118171215057,-0.3906063437461853,0.6129741668701172,-0.9452031254768372,-9.785932540893555
1745733677.4115689,0.0802588015794754,-0.0789005309343338,-0.3908225893974304,0.8270961046218872,-1.0860322713851929,-9.757779121398926
1745733677.4164567,0.05169554799795151,-0.07286153733730316,-0.3905864357948303,0.7498305439949036,-0.7950998544692993,-9.775444030761719
1745733677.453711,0.07910308241844177,-0.06949486583471298,-0.3922854959964752,0.6138440370559692,-1.0660289525985718,-9.76445484161377
1745733677.455584,0.055358391255140305,-0.07531673461198807,-0.3909342885017395,0.7668690085411072,-0.872175395488739,-9.4935941696167
1745733677.4582796,0.07250277698040009,-0.06918847560882568,-0.392123281955719,0.7084401845932007,-0.9866142272949219,-9.729273796081543
1745733677.4603631,0.0582711324095726,-0.06508906185626984,-0.38980430364608765,0.7199586629867554,-0.9876936078071594,-9.908159255981445
1745733677.461562,0.06627149879932404,-0.07243561744689941,-0.3913000524044037,0.589460015296936,-0.9146506190299988,-9.824604988098145
1745733677.497565,0.04316480830311775,-0.062473952770233154,-0.39371880888938904,0.8001614809036255,-0.843062698841095,-9.593610763549805
1745733677.4995944,0.04851033538579941,-0.06049768254160881,-0.3925183415412903,0.6026083827018738,-1.0639100074768066,-9.710424423217773
1745733677.513785,0.04098519682884216,-0.061913229525089264,-0.393735408782959,0.7817550301551819,-0.9943841099739075,-9.647714614868164
1745733677.517086,0.04223053902387619,-0.061967335641384125,-0.39507466554641724,0.5941821336746216,-0.7953901290893555,-9.785204887390137
1745733677.5414474,0.05217493325471878,-0.050841014832258224,-0.39583566784858704,0.6463383436203003,-1.0739425420761108,-9.875986099243164
1745733677.541549,0.04117867350578308,-0.0629621297121048,-0.39479580521583557,0.5648555755615234,-0.7989367246627808,-9.63286304473877
1745733677.5429795,0.054204970598220825,-0.05869028717279434,-0.39429980516433716,0.697678804397583,-1.1806960105895996,-9.643861770629883
1745733677.5469956,0.031172269955277443,-0.0527774915099144,-0.39511173963546753,0.623532772064209,-0.9563018679618835,-9.787577629089355
1745733677.588444,0.04847720265388489,-0.0490177720785141,-0.39622586965560913,0.5019099712371826,-1.1686766147613525,-9.687433242797852
1745733677.5885117,0.029861759394407272,-0.049638502299785614,-0.3944525122642517,0.8095732927322388,-0.9493618011474609,-9.333691596984863
1745733677.5885828,0.02032851055264473,-0.04943421483039856,-0.3968038558959961,0.5699695944786072,-1.007082223892212,-9.912652969360352
1745733677.5886703,0.03267369046807289,-0.04669343680143356,-0.3965821862220764,0.6752187013626099,-1.1653896570205688,-10.067763328552246
1745733677.6243694,0.014671364799141884,-0.050444625318050385,-0.3991921842098236,0.5984130501747131,-0.7942587733268738,-9.619260787963867
1745733677.628854,-0.008237219415605068,-0.015198295004665852,-0.3983171880245209,0.7518754005432129,-0.7973936796188354,-9.799267768859863
1745733677.6309555,-0.013060006313025951,-0.012660433538258076,-0.39916419982910156,0.5787960290908813,-1.0530611276626587,-9.91772174835205
1745733677.6368608,-0.019370045512914658,-0.014654049649834633,-0.3950347304344177,0.7156389951705933,-1.0869903564453125,-9.683491706848145
1745733677.636978,-0.007074054330587387,-0.014555102214217186,-0.3941308856010437,0.4892593026161194,-0.8333114385604858,-9.629544258117676
1745733677.6690204,-0.01879756897687912,-0.01600836217403412,-0.39407047629356384,0.6844555735588074,-1.0809285640716553,-9.734357833862305
1745733677.6749582,-0.010754474438726902,-0.01654287613928318,-0.3961507976055145,0.5864259600639343,-0.6701372265815735,-9.718414306640625
1745733677.6750717,-0.009560485370457172,-0.010557998903095722,-0.39718490839004517,0.6737223267555237,-1.0899251699447632,-9.707365036010742
1745733677.675719,-0.007342723198235035,-0.01683390885591507,-0.39868810772895813,0.640260636806488,-0.7090216875076294,-9.558744430541992
1745733677.7123847,-0.01337606180459261,-0.010844053700566292,-0.39591312408447266,0.5780301094055176,-1.0597970485687256,-9.840436935424805
1745733677.7145014,-0.010104688815772533,-0.012677645310759544,-0.3961346447467804,0.7507295608520508,-1.0410912036895752,-9.858841896057129
1745733677.7190452,-0.0052706399001181126,-0.013749934732913971,-0.39532074332237244,0.5106562376022339,-0.8714041709899902,-9.720325469970703
1745733677.719454,-0.021470213308930397,-0.013911975547671318,-0.39299124479293823,0.691741943359375,-1.234535574913025,-9.620612144470215
1745733677.722177,-0.0016063835937529802,-0.010553551837801933,-0.3938329815864563,0.5697832703590393,-0.6185535788536072,-9.618432998657227
1745733677.75729,-0.020419171079993248,-0.011047089472413063,-0.39550143480300903,0.732998251914978,-1.2029187679290771,-9.83467960357666
1745733677.7606978,-0.015763621777296066,-0.014826121740043163,-0.39514344930648804,0.6602934002876282,-0.7929284572601318,-9.709903717041016
1745733677.7639537,-0.01748708263039589,-0.01073087565600872,-0.39294496178627014,0.5488556623458862,-1.1690890789031982,-9.804950714111328
1745733677.7681794,-0.02533235214650631,-0.015103469602763653,-0.3935653269290924,0.6279901266098022,-0.9522780179977417,-9.711020469665527
1745733677.7996116,-0.029058730229735374,-0.01355321891605854,-0.3918376564979553,0.5450937151908875,-0.9760978817939758,-9.743406295776367
1745733677.8018289,-0.03441505879163742,-0.01513033825904131,-0.3925125002861023,0.771087646484375,-1.142438292503357,-9.7866792678833
1745733677.80366,-0.013992574997246265,-0.013428030535578728,-0.39170360565185547,0.5553447604179382,-0.5329309701919556,-9.626566886901855
1745733677.8060014,-0.03155452013015747,-0.009659364819526672,-0.3929232358932495,0.7739028334617615,-1.100114107131958,-9.70767593383789
1745733677.8438284,-0.0034374985843896866,-0.014426549896597862,-0.3905986547470093,0.6583331823348999,-0.6171852350234985,-9.611239433288574
1745733677.8439004,-0.025657087564468384,-0.016722973436117172,-0.39175957441329956,0.7733535170555115,-1.2002114057540894,-9.954442977905273
1745733677.847597,-0.016454724594950676,-0.014141932129859924,-0.39017096161842346,0.647863507270813,-0.8020727038383484,-9.607322692871094
1745733677.8526807,-0.03547043725848198,-0.011213058605790138,-0.38769325613975525,0.6058464050292969,-1.1972637176513672,-9.52355670928955
1745733677.8834252,-0.03678661212325096,-0.021331315860152245,-0.3882143497467041,0.7144619226455688,-0.9311913251876831,-9.725545883178711
1745733677.8854604,-0.025171607732772827,-0.014010081067681313,-0.3882412016391754,0.5335386991500854,-0.851030707359314,-10.023762702941895
1745733677.8881307,-0.037639837712049484,-0.015108038671314716,-0.38829541206359863,0.6685662269592285,-0.9041873812675476,-9.766349792480469
1745733677.8902507,-0.007045920938253403,-0.01670047827064991,-0.38895291090011597,0.539630651473999,-0.5678526163101196,-9.452957153320312
1745733677.8926797,-0.03383422642946243,-0.020515765994787216,-0.3865812420845032,0.770542323589325,-1.107051134109497,-9.700276374816895
1745733677.9281945,-0.012347172014415264,-0.023962421342730522,-0.38720595836639404,0.6422012448310852,-0.7110744714736938,-9.960212707519531
1745733677.933205,-0.024401504546403885,-0.014991777949035168,-0.38559985160827637,0.684850811958313,-1.196009635925293,-9.864970207214355
1745733677.936309,-0.022766612470149994,-0.021707162261009216,-0.3823203146457672,0.6380449533462524,-0.7994386553764343,-9.438024520874023
1745733677.945207,-0.027413349598646164,-0.021018246188759804,-0.38226959109306335,0.6533857583999634,-0.9205474853515625,-9.67420768737793
1745733677.9710608,-0.035254206508398056,-0.028057605028152466,-0.38209596276283264,0.7332704663276672,-0.958735466003418,-10.03264331817627
1745733677.9758139,-0.005143387708812952,-0.01810746267437935,-0.38422316312789917,0.516959547996521,-0.6074017882347107,-9.8909912109375
1745733677.9780424,-0.022674493491649628,-0.0353921540081501,-0.3687320351600647,0.6947160959243774,-0.8253651857376099,-9.562100410461426
1745733677.9818847,-0.012815207242965698,-0.036037374287843704,-0.37170296907424927,0.6283977627754211,-0.7291857004165649,-9.757734298706055
1745733678.0140786,-0.00746464217081666,-0.031244438141584396,-0.3671504855155945,0.6722105741500854,-0.8687397837638855,-9.8961763381958
1745733678.0164142,-0.013374273665249348,-0.04066982492804527,-0.3691723942756653,0.4885190427303314,-0.5848931074142456,-9.76034164428711
1745733678.0219066,0.0059240637347102165,-0.03210223466157913,-0.3708142638206482,0.5556857585906982,-1.0027579069137573,-9.742852210998535
1745733678.0219843,-0.016222484409809113,-0.04082876443862915,-0.3672983944416046,0.5733569264411926,-0.750113308429718,-9.698522567749023
1745733678.0342262,0.01005617342889309,-0.0340835340321064,-0.36380892992019653,0.5283514261245728,-0.8603725433349609,-9.751317977905273
1745733678.05776,-0.020670192316174507,-0.03805772587656975,-0.36511287093162537,0.7061758637428284,-0.904688835144043,-9.687816619873047
1745733678.0680027,0.0015565941575914621,-0.034439925104379654,-0.36497917771339417,0.5279167294502258,-0.8084009885787964,-9.673026084899902
1745733678.069439,-0.012326708063483238,-0.034198470413684845,-0.3649371266365051,0.6949209570884705,-0.8681607246398926,-9.669828414916992
1745733678.0705063,-0.019603101536631584,-0.03793978691101074,-0.36605867743492126,0.5453802943229675,-0.646094799041748,-9.848636627197266
1745733678.097515,-0.0030577071011066437,-0.030405446887016296,-0.36626526713371277,0.5736082792282104,-0.9390020370483398,-9.811327934265137
1745733678.10954,-0.015500733628869057,-0.040067750960588455,-0.3639717400074005,0.5252946615219116,-0.5956090092658997,-9.670080184936523
1745733678.1096566,0.003601317759603262,-0.03630085662007332,-0.3642248213291168,0.49591517448425293,-0.9726492166519165,-9.729070663452148
1745733678.1101897,-0.007790854666382074,-0.03635494038462639,-0.3625152111053467,0.6203539967536926,-0.6754765510559082,-9.715723037719727
1745733678.1102602,0.010443535633385181,-0.03636383265256882,-0.3608023524284363,0.48847103118896484,-0.7321502566337585,-9.77785873413086
1745733678.1429963,-1.5701352822361514e-05,-0.03207305446267128,-0.36069101095199585,0.6308163404464722,-0.8167468905448914,-9.658326148986816
1745733678.144632,0.013784663751721382,-0.037141405045986176,-0.3613784909248352,0.5120258331298828,-0.6555967330932617,-9.705484390258789
1745733678.1465771,0.007901469245553017,-0.03385737165808678,-0.3600839376449585,0.613570511341095,-0.9803990125656128,-9.8882417678833
1745733678.1493886,-0.005680191330611706,-0.03883601725101471,-0.3605661988258362,0.5400155186653137,-0.7069040536880493,-9.835813522338867
1745733678.1833873,0.009825187735259533,-0.0321931429207325,-0.3595300614833832,0.5131007432937622,-1.0872243642807007,-9.759626388549805
1745733678.1858478,-0.010006790980696678,-0.034972600638866425,-0.3618646264076233,0.544891357421875,-0.6970199346542358,-9.578180313110352
1745733678.1891527,0.01222188863903284,-0.032181598246097565,-0.3564174771308899,0.5506147146224976,-1.0382344722747803,-9.854521751403809
1745733678.1937695,-0.003564240410923958,-0.037084151059389114,-0.35499194264411926,0.5926193594932556,-0.6842855215072632,-9.708135604858398
1745733678.2257342,0.010413114912807941,-0.034015629440546036,-0.3546811044216156,0.49076661467552185,-0.9026204943656921,-9.66606330871582
1745733678.2286878,0.0014469013549387455,-0.03339612856507301,-0.3568471074104309,0.6798059940338135,-0.7701044082641602,-9.645710945129395
1745733678.2313933,0.002488264814019203,-0.03271270543336868,-0.3545793294906616,0.4889959394931793,-0.6939462423324585,-9.770298957824707
1745733678.233943,-0.001039621653035283,-0.031307950615882874,-0.3567298352718353,0.7138930559158325,-1.029455542564392,-9.836181640625
1745733678.2426128,0.004604268819093704,-0.03194664046168327,-0.3536050617694855,0.4569149911403656,-0.5455036759376526,-9.745941162109375
1745733678.274805,0.00233270600438118,-0.03255673497915268,-0.35369858145713806,0.578393816947937,-1.108514428138733,-9.794242858886719
1745733678.274987,0.006988114211708307,-0.03258833289146423,-0.3502194285392761,0.5502957105636597,-0.5905351638793945,-9.690229415893555
1745733678.2757251,0.006304403301328421,-0.030195128172636032,-0.3511401116847992,0.43951424956321716,-1.027413249015808,-9.824447631835938
1745733678.2772317,0.002846545074135065,-0.03210180252790451,-0.34971001744270325,0.5902544856071472,-0.6483972072601318,-9.607011795043945
1745733678.3162007,0.01192699559032917,-0.030008520931005478,-0.34892958402633667,0.47581571340560913,-0.7584778666496277,-9.720786094665527
1745733678.319231,0.005390238016843796,-0.03008812665939331,-0.35014253854751587,0.6509295105934143,-0.9650827646255493,-9.83596420288086
1745733678.3241343,0.00794191099703312,-0.030997902154922485,-0.350353866815567,0.4571855664253235,-0.6063933372497559,-9.754197120666504
1745733678.3269837,0.008995028212666512,-0.024210505187511444,-0.3392248749732971,0.3975773751735687,-0.6097996830940247,-9.761646270751953
1745733678.328847,-0.0166639294475317,-0.0216512493789196,-0.3394404351711273,0.5234441161155701,-0.8888000249862671,-9.658411026000977
1745733678.3581364,0.0035246044863015413,-0.027441073209047318,-0.34062889218330383,0.4315289556980133,-0.5780140161514282,-9.680437088012695
1745733678.3608825,0.005686737131327391,-0.01739177107810974,-0.3418545126914978,0.4603145122528076,-0.7510892152786255,-9.779631614685059
1745733678.3645074,-0.010920947417616844,-0.02703995443880558,-0.3441465198993683,0.6327585577964783,-0.6766634583473206,-9.744882583618164
1745733678.365965,0.018532970920205116,-0.015016647055745125,-0.3436943292617798,0.461200088262558,-0.8380718231201172,-9.68409538269043
1745733678.4021008,-0.015683041885495186,-0.02322252467274666,-0.3403465151786804,0.5551421046257019,-0.8038128018379211,-9.648534774780273
1745733678.4060113,0.012702278792858124,-0.022090714424848557,-0.34049540758132935,0.517144501209259,-0.7954787015914917,-9.817163467407227
1745733678.4083443,-0.014693875797092915,-0.018920164555311203,-0.337266743183136,0.6307786703109741,-0.9125223159790039,-9.891260147094727
1745733678.4130716,0.004222641699016094,-0.024730822071433067,-0.33905482292175293,0.44934648275375366,-0.6235982179641724,-9.762659072875977
1745733678.4435542,-0.009400936774909496,-0.021232131868600845,-0.34024590253829956,0.5162913799285889,-0.9029334783554077,-9.702939987182617
1745733678.4456093,-0.011346610262989998,-0.023097459226846695,-0.33984312415122986,0.47245460748672485,-0.6473790407180786,-9.65695571899414
1745733678.448628,0.007894628681242466,-0.018522698432207108,-0.3403506875038147,0.5071513652801514,-0.7634273171424866,-9.751405715942383
1745733678.4492779,-0.02550840750336647,-0.022809404879808426,-0.3434160351753235,0.5475268363952637,-0.6760362386703491,-9.71334171295166
1745733678.451338,0.008380033075809479,-0.01913638599216938,-0.341675341129303,0.48236966133117676,-0.8055016398429871,-9.78679370880127
1745733678.4867384,-0.012718451209366322,-0.020187631249427795,-0.340624064207077,0.5635836720466614,-0.6936789155006409,-9.748753547668457
1745733678.4905005,0.0007301791338250041,-0.02488395944237709,-0.34181612730026245,0.4864128530025482,-0.7177790999412537,-9.801027297973633
1745733678.4922802,0.002602031920105219,-0.01690015010535717,-0.3393842577934265,0.6141854524612427,-0.8505698442459106,-9.824853897094727
1745733678.492342,-0.008851529099047184,-0.02579623833298683,-0.3392370343208313,0.43821877241134644,-0.7250310182571411,-9.754148483276367
1745733678.5354416,0.004316956270486116,-0.019663065671920776,-0.338360995054245,0.4862439036369324,-0.9204148054122925,-9.649799346923828
1745733678.5356848,-0.026961464434862137,-0.022450273856520653,-0.33855554461479187,0.5273190140724182,-0.746132493019104,-9.685925483703613
1745733678.5384538,0.002352847484871745,-0.018184371292591095,-0.34068959951400757,0.38432976603507996,-0.7378419637680054,-9.817947387695312
1745733678.5385978,0.006567833013832569,-0.017498217523097992,-0.338200181722641,0.5308789610862732,-0.8129787445068359,-9.88405990600586
1745733678.5704563,-0.009575264528393745,-0.023076675832271576,-0.33834195137023926,0.5564702749252319,-0.6006743907928467,-9.837884902954102
1745733678.572666,0.009881388396024704,-0.020178861916065216,-0.34046879410743713,0.4117051064968109,-0.6851311922073364,-9.825597763061523
1745733678.5738113,-0.014253941364586353,-0.025455674156546593,-0.3407260477542877,0.5843172073364258,-0.8983914256095886,-9.747802734375
1745733678.5750937,-0.0074624111875891685,-0.023185621947050095,-0.3369876742362976,0.43400469422340393,-0.6785756349563599,-9.73682689666748
1745733678.5775797,-0.00796748697757721,-0.01915944553911686,-0.336727112531662,0.6267759203910828,-1.044966459274292,-9.73715591430664
1745733678.6162279,-0.017354261130094528,-0.024786854162812233,-0.33508428931236267,0.48797282576560974,-0.5814434885978699,-9.621257781982422
1745733678.630665,-0.011523311026394367,-0.01802525296807289,-0.33495813608169556,0.5532773733139038,-0.8889330625534058,-9.773669242858887
1745733678.631579,-0.01218089833855629,-0.022162701934576035,-0.3352771997451782,0.5296568870544434,-0.52413409948349,-9.769155502319336
1745733678.632322,0.0009260674705728889,-0.02020968869328499,-0.33697032928466797,0.39458420872688293,-0.6516106724739075,-9.876242637634277
1745733678.663078,-0.006607492920011282,-0.022668784484267235,-0.33767804503440857,0.5718039274215698,-0.7567098140716553,-9.753013610839844
1745733678.663133,0.002341241342946887,-0.024188602343201637,-0.33407458662986755,0.3703959882259369,-0.6554539203643799,-9.757022857666016
1745733678.6662524,-0.003689955221489072,-0.02299664542078972,-0.3344641327857971,0.5610945224761963,-0.942770779132843,-9.70934772491455
1745733678.6698098,-0.014763915911316872,-0.02492673695087433,-0.33461976051330566,0.46961015462875366,-0.6616376638412476,-9.666547775268555
1745733678.7033374,0.016594476997852325,-0.02504120208323002,-0.3287336826324463,0.44221511483192444,-0.3960137367248535,-9.715490341186523
1745733678.706018,0.0010496561881154776,-0.021041404455900192,-0.3285512328147888,0.567451536655426,-0.8519505262374878,-9.767890930175781
1745733678.7098851,0.013745059259235859,-0.02478385902941227,-0.32892870903015137,0.49554547667503357,-0.5651630759239197,-9.690740585327148
1745733678.7145665,0.018732156604528427,-0.020349999889731407,-0.32928526401519775,0.42663899064064026,-0.7064436674118042,-9.775975227355957
1745733678.7196324,-0.002802301198244095,-0.0236204843968153,-0.32699376344680786,0.46174946427345276,-0.6812702417373657,-9.852587699890137
1745733678.7447004,0.031567707657814026,-0.01655224896967411,-0.3279561400413513,0.38202786445617676,-0.5723729729652405,-9.699557304382324
1745733678.7482972,-0.0015136485453695059,-0.024060916155576706,-0.3292364478111267,0.526387095451355,-0.7061901688575745,-9.668983459472656
1745733678.7500193,0.030956316739320755,-0.01952449046075344,-0.32977864146232605,0.38871926069259644,-0.501042366027832,-9.753410339355469
1745733678.7526267,0.014901031740009785,-0.017415309324860573,-0.33129364252090454,0.537981390953064,-0.7437266111373901,-9.783258438110352
1745733678.7863848,0.0221102312207222,-0.024387937039136887,-0.32959479093551636,0.4865451753139496,-0.6523734331130981,-9.714747428894043
1745733678.7970629,0.022092854604125023,-0.015070009045302868,-0.3284171223640442,0.465587854385376,-0.8550207018852234,-9.744919776916504
1745733678.797216,0.011876001954078674,-0.022688811644911766,-0.32766416668891907,0.49490928649902344,-0.7111791372299194,-9.80783748626709
1745733678.7972765,0.02687981352210045,-0.01758517697453499,-0.3255193829536438,0.3708513677120209,-0.7461113333702087,-9.796669006347656
1745733678.7973182,-0.00014469698362518102,-0.02404477261006832,-0.3260122537612915,0.5216292142868042,-0.7365221381187439,-9.717806816101074
1745733678.8306084,0.029220744967460632,-0.02098175510764122,-0.32624948024749756,0.37655383348464966,-0.6385833024978638,-9.786698341369629
1745733678.8347728,0.01160687766969204,-0.019363868981599808,-0.32700294256210327,0.4801880717277527,-0.7202125787734985,-9.709318161010742
1745733678.8368664,0.017390523105859756,-0.019662443548440933,-0.329140841960907,0.4957715570926666,-0.5674939751625061,-9.724023818969727
1745733678.840747,0.025915304198861122,-0.01555581670254469,-0.32686275243759155,0.5421658158302307,-0.8457661867141724,-9.722001075744629
1745733678.875923,0.012744195759296417,-0.02092147246003151,-0.3264375627040863,0.44612249732017517,-0.5426427125930786,-9.740989685058594
1745733678.8854382,0.031776949763298035,-0.014712674543261528,-0.32448798418045044,0.4531511664390564,-0.8674276471138,-9.869695663452148
1745733678.885554,0.010995867662131786,-0.019270803779363632,-0.3229723870754242,0.4764787554740906,-0.6358062028884888,-9.740683555603027
1745733678.885932,0.03384711593389511,-0.018367189913988113,-0.32417792081832886,0.40530213713645935,-0.6586887240409851,-9.692136764526367
1745733678.9160783,0.03010576404631138,-0.014981808140873909,-0.32415771484375,0.42543157935142517,-0.7821478247642517,-9.793159484863281
1745733678.917933,0.025819186121225357,-0.018620755523443222,-0.3239647150039673,0.6028024554252625,-0.6757708787918091,-9.645758628845215
1745733678.9213305,0.03226442262530327,-0.02206682413816452,-0.3229609727859497,0.3744915723800659,-0.6742265820503235,-9.769556045532227
1745733678.9222467,0.024835802614688873,-0.016507776454091072,-0.3242265284061432,0.5356656312942505,-0.814283549785614,-9.750919342041016
1745733678.9257452,0.025005262345075607,-0.017843062058091164,-0.3235805630683899,0.4295680522918701,-0.6151229739189148,-9.672645568847656
1745733678.959909,0.02555486559867859,-0.016390003263950348,-0.3232828974723816,0.46611031889915466,-0.930506706237793,-9.75803279876709
1745733678.9623888,0.010779127478599548,-0.022156914696097374,-0.32355254888534546,0.4926729202270508,-0.491772323846817,-9.802491188049316
1745733678.963989,0.02373323403298855,-0.017128292471170425,-0.3241131901741028,0.42118319869041443,-0.8922274708747864,-9.911677360534668
1745733678.9673202,0.017486363649368286,-0.01746954768896103,-0.3251062035560608,0.54112708568573,-0.595306932926178,-9.63548469543457
1745733679.0052204,0.021749721840023994,-0.02055029571056366,-0.32286936044692993,0.45487743616104126,-0.6486355066299438,-9.671881675720215
1745733679.007905,0.021353935822844505,-0.01887933909893036,-0.3237121105194092,0.592879593372345,-0.9041110873222351,-9.766298294067383
1745733679.0108297,0.029016058892011642,-0.01524999551475048,-0.3215407729148865,0.28768786787986755,-0.45197945833206177,-9.743047714233398
1745733679.015269,0.0289893951267004,-0.013377919793128967,-0.32080110907554626,0.5482051968574524,-0.964166522026062,-9.696022033691406
1745733679.0153737,0.024609554558992386,-0.02110983058810234,-0.31997114419937134,0.39893993735313416,-0.4326407313346863,-9.668628692626953
1745733679.0485525,0.017936984077095985,-0.021051831543445587,-0.3175427317619324,0.49396172165870667,-0.6082020998001099,-9.873923301696777
1745733679.051816,0.011748211458325386,-0.015833161771297455,-0.3170728385448456,0.44757112860679626,-0.8608356714248657,-9.9856538772583
1745733679.0565913,0.011150246486067772,-0.02053520455956459,-0.31355494260787964,0.4243684709072113,-0.6356663107872009,-9.706298828125
1745733679.0885875,0.025293434038758278,-0.017829958349466324,-0.3149508237838745,0.36811593174934387,-0.8119159936904907,-9.645825386047363
1745733679.0915427,0.0019947062246501446,-0.02150736190378666,-0.3128294348716736,0.4999830722808838,-0.6932238340377808,-9.72118091583252
1745733679.0949023,0.03633430227637291,-0.016102712601423264,-0.31708618998527527,0.4055778384208679,-0.5778992176055908,-9.768600463867188
1745733679.0970204,0.0068576945923268795,-0.015955444425344467,-0.31524011492729187,0.552915632724762,-0.7722665071487427,-9.661409378051758
1745733679.100248,0.024942811578512192,-0.019205216318368912,-0.3161033093929291,0.4823899269104004,-0.6530821919441223,-9.676827430725098
1745733679.1338704,0.016747664660215378,-0.015579422004520893,-0.3125647008419037,0.5142277479171753,-0.9045366048812866,-9.891576766967773
1745733679.1375625,0.00952797383069992,-0.02394367754459381,-0.31461480259895325,0.41409388184547424,-0.6768945455551147,-9.870664596557617
1745733679.140793,0.029728949069976807,-0.011235369369387627,-0.3114153742790222,0.41913050413131714,-0.7854887247085571,-9.681602478027344
1745733679.1504722,0.0037120762281119823,-0.021187538281083107,-0.3116820752620697,0.4862777590751648,-0.7016407251358032,-9.577449798583984
1745733679.1749494,0.03590787202119827,-0.017307303845882416,-0.3116820752620697,0.40078505873680115,-0.6257051229476929,-9.737961769104004
1745733679.1786711,0.0052811093628406525,-0.01863284967839718,-0.3113972544670105,0.5591198205947876,-0.7966480255126953,-9.875155448913574
1745733679.181748,0.03709598630666733,-0.015915103256702423,-0.31064531207084656,0.35944515466690063,-0.6409695744514465,-9.76038932800293
1745733679.1841772,0.014343303628265858,-0.013617850840091705,-0.3123012185096741,0.467512845993042,-0.8612340092658997,-9.60422134399414
1745733679.1865704,0.011765473522245884,-0.020670894533395767,-0.3086950182914734,0.4294227957725525,-0.6618117094039917,-9.745689392089844
1745733679.2175453,0.02733520232141018,-0.013890665955841541,-0.30870088934898376,0.5077832341194153,-0.8666766285896301,-9.895047187805176
1745733679.2302666,0.006501520983874798,-0.019552115350961685,-0.31024858355522156,0.4769667685031891,-0.5700993537902832,-9.724590301513672
1745733679.2304668,0.02985948696732521,-0.01774096116423607,-0.3112119436264038,0.43931451439857483,-0.8187500238418579,-9.671283721923828
1745733679.2305448,0.006858354900032282,-0.0172349251806736,-0.30898967385292053,0.5291131734848022,-0.6705266833305359,-9.732693672180176
1745733679.2614162,0.03250579908490181,-0.01718808338046074,-0.30934253334999084,0.4484991431236267,-0.7672160267829895,-9.739080429077148
1745733679.2648387,0.025898527354002,-0.013807201758027077,-0.30490121245384216,0.5485386848449707,-0.9419143795967102,-9.714784622192383
1745733679.2653213,0.027395838871598244,-0.014240913093090057,-0.3058343827724457,0.2770146131515503,-0.5937325358390808,-9.685295104980469
1745733679.267763,0.024787580594420433,-0.010539659298956394,-0.30559441447257996,0.5559473037719727,-0.9759221076965332,-9.782818794250488
1745733679.3065252,0.022258523851633072,-0.018233081325888634,-0.30515870451927185,0.3779500424861908,-0.4278516173362732,-9.747526168823242
1745733679.308006,0.027998317033052444,-0.016196584329009056,-0.3077753484249115,0.45192384719848633,-0.9097335934638977,-9.898052215576172
1745733679.3099215,0.016323229297995567,-0.016144245862960815,-0.3067188858985901,0.43018803000450134,-0.5925606489181519,-9.738907814025879
1745733679.3168235,0.028981313109397888,-0.011610552668571472,-0.30562907457351685,0.3773382008075714,-0.8691611289978027,-9.67851734161377
1745733679.346038,0.01961391605436802,-0.015341532416641712,-0.3054974675178528,0.575498640537262,-0.7499487996101379,-9.575210571289062
1745733679.34895,0.0215885192155838,-0.012268953025341034,-0.303960382938385,0.3636852204799652,-0.6481019258499146,-9.785964965820312
1745733679.3508823,0.019210977479815483,-0.012313535436987877,-0.3027871251106262,0.6042400002479553,-0.9110143780708313,-9.86815357208252
1745733679.352164,0.02903372049331665,-0.01220635138452053,-0.30385684967041016,0.3545309603214264,-0.3983495831489563,-9.754377365112305
1745733679.3528438,0.025236451998353004,-0.014744210056960583,-0.3074781000614166,0.4698934555053711,-0.9455136060714722,-9.827661514282227
1745733679.392481,0.029410943388938904,-0.01764846406877041,-0.3051369786262512,0.43527311086654663,-0.42756301164627075,-9.687131881713867
1745733679.3936296,0.03061635233461857,-0.012787697836756706,-0.3052506744861603,0.3690459132194519,-0.9996476173400879,-9.844512939453125
1745733679.3970869,-0.004042794927954674,-0.009069917723536491,-0.2995639443397522,0.4575217366218567,-0.8780080080032349,-9.80643081665039
1745733679.4013934,0.0029486925341188908,-0.01703079603612423,-0.2994188666343689,0.37856805324554443,-0.5950407981872559,-9.684427261352539
1745733679.4337971,0.01089349202811718,-0.01099624764174223,-0.29752275347709656,0.4925663471221924,-0.8039976358413696,-9.756502151489258
1745733679.4371285,-0.0052255308255553246,-0.016118593513965607,-0.299197256565094,0.4571652412414551,-0.6635807752609253,-9.862090110778809
1745733679.4408784,0.01917298510670662,-0.013485690578818321,-0.29973316192626953,0.4223458766937256,-0.7003914713859558,-9.694798469543457
1745733679.44388,-0.012004511430859566,-0.015298252925276756,-0.2981557846069336,0.5388487577438354,-0.8365746736526489,-9.638725280761719
1745733679.4551232,0.013341844081878662,-0.012461957521736622,-0.2975108325481415,0.3603566586971283,-0.6888178586959839,-9.769527435302734
1745733679.4843595,-0.009858373552560806,-0.012774953618645668,-0.2993547320365906,0.5330585837364197,-0.8636256456375122,-9.824491500854492
1745733679.4844265,-0.004638024605810642,-0.015498192980885506,-0.29933276772499084,0.40169715881347656,-0.5736006498336792,-9.781991958618164
1745733679.4844933,0.003778776852414012,-0.010927954688668251,-0.29873740673065186,0.5028494596481323,-0.874119758605957,-9.761518478393555
1745733679.4858265,-0.0047712428495287895,-0.018827054649591446,-0.2998645305633545,0.41946524381637573,-0.4787008762359619,-9.71166706085205
1745733679.5209467,0.009946691803634167,-0.012611406855285168,-0.2995132505893707,0.4227380156517029,-0.8960930705070496,-9.81395149230957
1745733679.5251563,0.0019271576311439276,-0.013282820582389832,-0.29756683111190796,0.5181112289428711,-0.5716921091079712,-9.758228302001953
1745733679.5273008,0.014493746683001518,-0.015759166330099106,-0.29644396901130676,0.374822199344635,-0.7531823515892029,-9.722030639648438
1745733679.5300388,0.0003501230967231095,-0.015310779213905334,-0.29726719856262207,0.5228453874588013,-0.804154098033905,-9.718538284301758
1745733679.5625184,0.013010956346988678,-0.015119430609047413,-0.2955917418003082,0.3999512195587158,-0.6225292682647705,-9.811930656433105
1745733679.5657096,0.004320601932704449,-0.014930385164916515,-0.2951337695121765,0.4642130434513092,-0.8568007349967957,-9.877001762390137
1745733679.5677896,0.002962070284411311,-0.01693686842918396,-0.2947517931461334,0.4064335823059082,-0.467913955450058,-9.65424919128418
1745733679.5692377,0.014464884996414185,-0.015788454562425613,-0.2961299419403076,0.4577900767326355,-0.9339081048965454,-9.710298538208008
1745733679.6109521,0.004780084826052189,-0.01678592525422573,-0.29433712363243103,0.42324933409690857,-0.46481648087501526,-9.699484825134277
1745733679.6218045,0.015006432309746742,-0.017098229378461838,-0.29146942496299744,0.3485097885131836,-0.7250713109970093,-9.716463088989258
1745733679.621846,0.005144169088453054,-0.01727721095085144,-0.2906856834888458,0.6014637351036072,-0.9452468752861023,-9.787274360656738
1745733679.6237767,0.02647353708744049,-0.017299167811870575,-0.28866899013519287,0.3496663570404053,-0.3950637876987457,-9.778258323669434
1745733679.647227,0.014213146641850471,-0.015666130930185318,-0.29028671979904175,0.5105257034301758,-0.8832322955131531,-9.834362983703613
1745733679.6504266,0.032925501465797424,-0.019897321239113808,-0.29004794359207153,0.4155682921409607,-0.32871025800704956,-9.643202781677246
1745733679.6531773,0.02952585555613041,-0.019321462139487267,-0.2921108305454254,0.4008062481880188,-0.8932073712348938,-9.808059692382812
1745733679.65638,0.029892239719629288,-0.020405814051628113,-0.28837379813194275,0.46779412031173706,-0.5772627592086792,-9.698575973510742
1745733679.6586788,0.03313735872507095,-0.016012031584978104,-0.29183366894721985,0.3162553608417511,-0.7892788052558899,-9.781571388244629
1745733679.6924074,0.021713610738515854,-0.01928878016769886,-0.288987398147583,0.5165645480155945,-0.8359560966491699,-9.692352294921875
1745733679.695089,0.032773714512586594,-0.017358116805553436,-0.2895866334438324,0.35751140117645264,-0.5088551640510559,-9.664057731628418
1745733679.6978836,0.01477124821394682,-0.017502551898360252,-0.289661705493927,0.5838324427604675,-0.9829592704772949,-9.914588928222656
1745733679.7008789,0.031491246074438095,-0.019362857565283775,-0.29020625352859497,0.45777177810668945,-0.43716320395469666,-9.78184700012207
1745733679.7337365,0.024013113230466843,-0.01774488016963005,-0.29161086678504944,0.41510409116744995,-0.9599606394767761,-9.821560859680176
1745733679.7357788,0.026817595586180687,-0.02564149536192417,-0.2874990999698639,0.4290091097354889,-0.6338298320770264,-9.589975357055664
1745733679.7371392,0.03306518867611885,-0.014997914433479309,-0.28851839900016785,0.32993245124816895,-0.7069162130355835,-9.761868476867676
1745733679.7406764,0.03173637390136719,-0.023159775882959366,-0.2839689254760742,0.3788977265357971,-0.6910653710365295,-9.91523265838623
1745733679.7774773,0.026641834527254105,-0.018472975119948387,-0.2832813262939453,0.4998989999294281,-0.8560482263565063,-9.792895317077637
1745733679.7838025,0.02482403814792633,-0.027397653087973595,-0.2842576503753662,0.36011019349098206,-0.5422754287719727,-9.633498191833496
1745733679.7838707,0.03677085041999817,-0.02006787434220314,-0.2855660319328308,0.4143156409263611,-0.8828167915344238,-9.727962493896484
1745733679.7839186,0.025359991937875748,-0.02051575295627117,-0.285061776638031,0.4423900544643402,-0.4815619885921478,-9.780233383178711
1745733679.7874746,0.04701191931962967,-0.02050608955323696,-0.28296390175819397,0.4102596640586853,-0.8462569117546082,-9.780691146850586
1745733679.8198433,0.02700984850525856,-0.021203244104981422,-0.2826949954032898,0.48869842290878296,-0.7291691303253174,-9.641615867614746
1745733679.8233902,0.0466948077082634,-0.02036641165614128,-0.28238147497177124,0.3379027545452118,-0.7554492950439453,-9.803106307983398
1745733679.8260264,0.029626231640577316,-0.02069859951734543,-0.28129661083221436,0.46439704298973083,-0.8619937896728516,-9.847646713256836
1745733679.827664,0.033011555671691895,-0.020868882536888123,-0.2844908535480499,0.35814008116722107,-0.5311851501464844,-9.71466064453125
1745733679.8633435,0.038839150220155716,-0.018529776483774185,-0.28249210119247437,0.5037514567375183,-1.0157734155654907,-9.683267593383789
1745733679.864333,0.02787112630903721,-0.0244919341057539,-0.2847372889518738,0.3941703736782074,-0.559174656867981,-9.686408996582031
1745733679.8664424,0.03329641744494438,-0.018381228670477867,-0.2858765125274658,0.45797228813171387,-0.923714280128479,-9.891250610351562
1745733679.8697777,0.023665767163038254,-0.01639377512037754,-0.28237494826316833,0.4814302325248718,-0.799348771572113,-9.6466703414917
1745733679.9062324,0.033355824649333954,-0.019257178530097008,-0.2847435772418976,0.2589479088783264,-0.7150164842605591,-9.634832382202148
1745733679.9085832,0.023076098412275314,-0.019516076892614365,-0.2817386984825134,0.5696881413459778,-0.9145568609237671,-9.870614051818848
1745733679.9112554,0.03411133959889412,-0.02052394673228264,-0.28010180592536926,0.3298301100730896,-0.5454341769218445,-9.910921096801758
1745733679.9129055,0.032971449196338654,-0.01796296238899231,-0.2819039225578308,0.4600563943386078,-0.9495131373405457,-9.747859001159668
1745733679.9153414,0.02671738900244236,-0.02448732778429985,-0.27927926182746887,0.3556358814239502,-0.5557693243026733,-9.595314025878906
1745733679.9509208,0.03280912712216377,-0.018735218793153763,-0.28312891721725464,0.3917009234428406,-0.9760727882385254,-9.804545402526855
1745733679.9546828,0.026807868853211403,-0.019458632916212082,-0.2812219262123108,0.47883057594299316,-0.663620114326477,-9.703112602233887
1745733679.9572368,0.03208669275045395,-0.01846114546060562,-0.2811543643474579,0.29359859228134155,-0.5704053640365601,-9.758773803710938
1745733679.9595382,0.010547934100031853,-0.0200292207300663,-0.28207284212112427,0.5046039819717407,-0.9715827703475952,-9.792108535766602
1745733679.9930015,0.034182872623205185,-0.020838754251599312,-0.2820131480693817,0.3929590582847595,-0.5515664219856262,-9.709333419799805
1745733679.998132,0.013944899663329124,-0.022422078996896744,-0.2824699878692627,0.48444804549217224,-1.0351641178131104,-9.873605728149414
1745733680.001478,0.02061530388891697,-0.020400717854499817,-0.28304523229599,0.3774324059486389,-0.6936153173446655,-9.682199478149414
1745733680.0053923,0.024206753820180893,-0.013232889585196972,-0.27943500876426697,0.38227635622024536,-0.8747956156730652,-9.595867156982422
1745733680.0097802,0.00822629313915968,-0.025852397084236145,-0.2794008255004883,0.5783958435058594,-0.811794102191925,-9.71027946472168
1745733680.0375636,0.02829224243760109,-0.01794327422976494,-0.27742865681648254,0.34426137804985046,-0.7071784734725952,-9.921549797058105
1745733680.0380044,0.01031123474240303,-0.017777791246771812,-0.2785237729549408,0.5001016855239868,-0.8507795333862305,-9.891923904418945
1745733680.0401003,0.03289591521024704,-0.020393162965774536,-0.28003478050231934,0.2689574658870697,-0.5428274869918823,-9.598262786865234
1745733680.0413702,0.009916538372635841,-0.020712072029709816,-0.27932435274124146,0.4681270122528076,-0.9927595853805542,-9.673124313354492
1745733680.081224,0.027288246899843216,-0.02478945627808571,-0.2811105251312256,0.38250190019607544,-0.6421380639076233,-9.835563659667969
1745733680.0812888,0.02282457798719406,-0.011657637543976307,-0.2790065407752991,0.3442794680595398,-0.9158784747123718,-9.834609985351562
1745733680.0836315,0.008836145512759686,-0.01985776796936989,-0.27884000539779663,0.5534265041351318,-0.7075244188308716,-9.513418197631836
1745733680.085349,0.031458042562007904,-0.017129119485616684,-0.27891629934310913,0.4204920828342438,-0.812853217124939,-9.646702766418457
1745733680.123781,0.017621159553527832,-0.017535347491502762,-0.2723647356033325,0.3314725458621979,-0.45905303955078125,-9.8406982421875
1745733680.1238225,0.01663972996175289,-0.011983250267803669,-0.2736812233924866,0.4500405192375183,-0.8956273794174194,-9.933784484863281
1745733680.1279047,0.015660550445318222,-0.01199329737573862,-0.27645164728164673,0.42678719758987427,-0.6191737055778503,-9.426836013793945
1745733680.133913,0.02482161484658718,-0.01586579717695713,-0.27679112553596497,0.3051666021347046,-0.7777730822563171,-9.626446723937988
1745733680.162878,0.011392625980079174,-0.018874051049351692,-0.27516987919807434,0.5590395331382751,-0.8765139579772949,-10.049474716186523
1745733680.1651733,0.02396349422633648,-0.011613046750426292,-0.27391761541366577,0.3037368357181549,-0.7298965454101562,-10.015852928161621
1745733680.1671264,0.01080887671560049,-0.014745181426405907,-0.2755221128463745,0.5059759020805359,-1.04318106174469,-9.555900573730469
1745733680.1705,0.00556304631754756,-0.023156795650720596,-0.2732316851615906,0.39834287762641907,-0.6440637707710266,-9.497636795043945
1745733680.1711862,0.0054376451298594475,-0.014728534035384655,-0.27421391010284424,0.49191030859947205,-1.0411131381988525,-9.980707168579102
1745733680.216434,0.006010216660797596,-0.015985483303666115,-0.2753310203552246,0.45022639632225037,-0.5375868082046509,-9.840411186218262
1745733680.216499,0.004442279692739248,-0.012856523506343365,-0.27445822954177856,0.32911428809165955,-0.8428031206130981,-9.629473686218262
1745733680.216555,-0.0046747224405407906,-0.018896078690886497,-0.27532193064689636,0.48285216093063354,-0.8052338361740112,-9.58812427520752
1745733680.2166097,0.018480295315384865,-0.016241885721683502,-0.27556195855140686,0.27787140011787415,-0.603900134563446,-9.937725067138672
1745733680.2509282,-0.007089250721037388,-0.017990171909332275,-0.274557888507843,0.500983715057373,-0.9481636881828308,-9.990568161010742
1745733680.253117,0.021250784397125244,-0.015031186863780022,-0.27468037605285645,0.3488486409187317,-0.48056143522262573,-9.564790725708008
1745733680.2575045,0.001898731105029583,-0.01730557717382908,-0.2736382484436035,0.4710915982723236,-1.0982946157455444,-9.616388320922852
1745733680.260805,0.0065372781828045845,-0.02347312681376934,-0.27281659841537476,0.4491335451602936,-0.5926815867424011,-9.779131889343262
1745733680.2632532,0.0035730041563510895,-0.013542148284614086,-0.2737734615802765,0.41348886489868164,-1.0189828872680664,-10.00007152557373
1745733680.2935486,-0.003541117999702692,-0.01544996164739132,-0.2736607789993286,0.44174256920814514,-0.7220586538314819,-9.653291702270508
1745733680.299555,0.004626498557627201,-0.016182560473680496,-0.274108350276947,0.3211764991283417,-0.724054217338562,-9.525446891784668
1745733680.2996318,-0.017756137996912003,-0.022422805428504944,-0.2723489999771118,0.5378963351249695,-0.8853228688240051,-9.850451469421387
1745733680.30989,-0.025830665603280067,-0.018285389989614487,-0.26896166801452637,0.4756878912448883,-0.9084280133247375,-9.972723007202148
1745733680.3387537,-0.00037037915899418294,-0.018835529685020447,-0.27155375480651855,0.3786157965660095,-0.5972360372543335,-9.6699800491333
1745733680.3397675,-0.008476059883832932,-0.017414018511772156,-0.26955077052116394,0.426889568567276,-0.8354899287223816,-9.512801170349121
1745733680.3412945,-0.017461013048887253,-0.024834875017404556,-0.27097436785697937,0.5114922523498535,-0.616195559501648,-9.738171577453613
1745733680.3517604,0.008462696336209774,-0.011671621352434158,-0.269947350025177,0.3958452343940735,-0.8687702417373657,-10.007882118225098
1745733680.3818307,-0.01605198159813881,-0.01924891024827957,-0.2686317265033722,0.37491101026535034,-0.6835111379623413,-9.704082489013672
1745733680.3831074,0.009888588450849056,-0.017442839220166206,-0.26703137159347534,0.3616192042827606,-0.8012751340866089,-9.622474670410156
1745733680.3868582,-0.01263001561164856,-0.020146934315562248,-0.26630666851997375,0.4591692388057709,-0.7989782691001892,-9.802102088928223
1745733680.3914309,0.009879762306809425,-0.020421799272298813,-0.26674237847328186,0.30188655853271484,-0.5308176875114441,-9.905447006225586
1745733680.4232895,-0.007084148935973644,-0.016224710270762444,-0.2676953077316284,0.44812721014022827,-0.9159574508666992,-9.727599143981934
1745733680.426824,-0.004537503235042095,-0.022786179557442665,-0.2701262831687927,0.3800278306007385,-0.59821617603302,-9.472607612609863
1745733680.4298186,0.0016548518324270844,-0.01820158213376999,-0.27128955721855164,0.47377100586891174,-0.8925169110298157,-9.754495620727539
1745733680.4347434,-0.02421194314956665,-0.01932753250002861,-0.2666749358177185,0.44710010290145874,-0.7022767066955566,-9.969964981079102
1745733680.4360938,0.004084048327058554,-0.011448277160525322,-0.2665121853351593,0.3712931275367737,-0.9003790020942688,-9.813514709472656
1745733680.475362,-0.017397750169038773,-0.018854456022381783,-0.26731252670288086,0.4197538495063782,-0.6925918459892273,-9.546392440795898
1745733680.475596,0.002089420799165964,-0.019256580621004105,-0.26418206095695496,0.4199196696281433,-0.4359782338142395,-9.68797492980957
1745733680.4756691,-0.006474637892097235,-0.015825331211090088,-0.26702457666397095,0.40752869844436646,-0.9100755453109741,-9.749632835388184
1745733680.475727,-0.0008518279646523297,-0.02113478258252144,-0.2684757709503174,0.4032110273838043,-0.5713623762130737,-9.753246307373047
1745733680.5093038,0.003964436240494251,-0.015345564112067223,-0.2688392996788025,0.2504104971885681,-0.6373249888420105,-9.876228332519531
1745733680.5258095,-0.005569905042648315,-0.017999988049268723,-0.2681649625301361,0.5004576444625854,-0.8239299058914185,-9.703878402709961
1745733680.5259922,0.017015807330608368,-0.017982227727770805,-0.26838573813438416,0.36232420802116394,-0.44449156522750854,-9.614057540893555
1745733680.5260923,-1.3266503628983628e-05,-0.021051550284028053,-0.266069233417511,0.555871844291687,-1.0246894359588623,-9.788251876831055
1745733680.5261698,0.010413696058094501,-0.01744784414768219,-0.26394277811050415,0.3792009949684143,-0.5097413063049316,-9.792755126953125
1745733680.552213,0.011831705458462238,-0.013162066228687763,-0.26487624645233154,0.4025023579597473,-0.960163950920105,-9.838567733764648
1745733680.5532506,0.006008057855069637,-0.01841946318745613,-0.26347625255584717,0.367901086807251,-0.5223869681358337,-9.637481689453125
1745733680.5543914,0.012417711317539215,-0.015455374494194984,-0.2649822235107422,0.3331804871559143,-0.7323333024978638,-9.754789352416992
1745733680.5568511,-0.0008361933869309723,-0.019680002704262733,-0.2661427855491638,0.45572128891944885,-0.7820578217506409,-9.811666488647461
1745733680.5939205,0.015141172334551811,-0.017015863209962845,-0.2702025771141052,0.2881237864494324,-0.5729673504829407,-9.736639022827148
1745733680.6004057,-0.01181152742356062,-0.020620187744498253,-0.270081102848053,0.5666882395744324,-0.9894760847091675,-9.729114532470703
1745733680.6073081,0.006737247109413147,-0.017575012519955635,-0.2677578330039978,0.3688686490058899,-0.6310043931007385,-9.675335884094238
1745733680.6109579,-0.010646604001522064,-0.014890695922076702,-0.2654499411582947,0.42697715759277344,-0.9751750230789185,-9.7926025390625
1745733680.6152098,-0.00023931628675200045,-0.02129177190363407,-0.2632560133934021,0.5022346377372742,-0.6175869703292847,-9.741636276245117
1745733680.6383767,0.0015130676329135895,-0.014824720099568367,-0.26328498125076294,0.35819751024246216,-0.7761809229850769,-9.80858039855957
1745733680.6428306,-0.001365020521916449,-0.02296260930597782,-0.26272207498550415,0.428556352853775,-0.5750616788864136,-9.777009963989258
1745733680.642876,0.017655378207564354,-0.016969304531812668,-0.2657768130302429,0.26829034090042114,-0.5198401808738708,-9.770967483520508
1745733680.645913,-0.003124986542388797,-0.021433014422655106,-0.2672179341316223,0.4862845540046692,-0.7812835574150085,-9.698862075805664
1745733680.6819582,-0.009966177865862846,-0.019569922238588333,-0.26535290479660034,0.4605486989021301,-0.9360186457633972,-9.756986618041992
1745733680.6851113,0.011939512565732002,-0.020133882761001587,-0.26604223251342773,0.3363367021083832,-0.5474388003349304,-9.860729217529297
1745733680.6890001,0.0006080378079786897,-0.014703348278999329,-0.267221599817276,0.4471057951450348,-0.8276864886283875,-9.764274597167969
1745733680.69103,-0.008537115529179573,-0.023131955415010452,-0.26675549149513245,0.44177955389022827,-0.6331151127815247,-9.686854362487793
1745733680.7260537,0.022573087364435196,-0.018037278205156326,-0.26785436272621155,0.4640515446662903,-0.6734314560890198,-9.759005546569824
1745733680.7283103,-0.010204051621258259,-0.024549400433897972,-0.2657039761543274,0.516457736492157,-0.625545084476471,-9.891889572143555
1745733680.7294607,0.02533503994345665,-0.017460014671087265,-0.2664376497268677,0.29863423109054565,-0.7322293519973755,-9.817778587341309
1745733680.7402613,0.00011585187166929245,-0.018646765500307083,-0.2668319344520569,0.42265981435775757,-0.6889517903327942,-9.570047378540039
1745733680.768145,0.017341038212180138,-0.02419154904782772,-0.26595544815063477,0.3437686264514923,-0.6519766449928284,-9.650601387023926
1745733680.7696683,0.006925933063030243,-0.01722392439842224,-0.2653833329677582,0.42450442910194397,-0.8032792806625366,-9.885485649108887
1745733680.7731578,0.00593684334307909,-0.022310622036457062,-0.2675318121910095,0.3979412019252777,-0.6010314226150513,-9.85997200012207
1745733680.7759488,0.01788530871272087,-0.019629154354333878,-0.26410287618637085,0.3602806031703949,-0.8112185597419739,-9.728829383850098
1745733680.7783604,-0.006435449235141277,-0.024482067674398422,-0.2650890350341797,0.4487887918949127,-0.6748821139335632,-9.657910346984863
1745733680.816033,0.02247483655810356,-0.019793948158621788,-0.26390790939331055,0.37762564420700073,-0.8580061793327332,-9.844612121582031
1745733680.816098,-0.0027735016774386168,-0.018413778394460678,-0.26175743341445923,0.39179128408432007,-0.7042240500450134,-9.827143669128418
1745733680.8209093,0.0103251151740551,-0.014081405475735664,-0.26436948776245117,0.41490763425827026,-0.9558318257331848,-9.683115005493164
1745733680.824838,0.011958788149058819,-0.021009372547268867,-0.26143378019332886,0.35874325037002563,-0.490776926279068,-9.605177879333496
1745733680.8540387,0.011842811480164528,-0.01808532513678074,-0.2671322822570801,0.37170273065567017,-0.7848470211029053,-9.930604934692383
1745733680.8570101,0.00762181868776679,-0.01800820790231228,-0.26754215359687805,0.4665864408016205,-0.6984940767288208,-9.814552307128906
1745733680.8580468,0.024369236081838608,-0.011913451366126537,-0.26601386070251465,0.23773960769176483,-0.5912396907806396,-9.55844783782959
1745733680.8607528,-0.0011088611790910363,-0.01822046935558319,-0.26708483695983887,0.553202211856842,-0.8984445333480835,-9.597189903259277
1745733680.8620229,0.02820834144949913,-0.011728557758033276,-0.2649504542350769,0.3352418839931488,-0.49312180280685425,-9.808947563171387
1745733680.8972418,0.007014378905296326,-0.011113198474049568,-0.2647416591644287,0.4873724579811096,-0.8631162643432617,-9.969082832336426
1745733680.9014707,0.02937236987054348,-0.015570792369544506,-0.2667786777019501,0.39754050970077515,-0.483131468296051,-9.711246490478516
1745733680.9047208,0.019976478070020676,-0.013337555341422558,-0.2659308612346649,0.37408316135406494,-0.8407126665115356,-9.712980270385742
1745733680.90931,0.018929865211248398,-0.019044075161218643,-0.26623114943504333,0.4573545455932617,-0.6471133232116699,-9.731513977050781
1745733680.9400437,0.02240944467484951,-0.013161676004529,-0.2665988802909851,0.3194059133529663,-0.8214508891105652,-9.860447883605957
1745733680.9425552,0.0028874624986201525,-0.012979927472770214,-0.26654964685440063,0.48992782831192017,-0.9019211530685425,-9.66755485534668
1745733680.9437478,0.02114483341574669,-0.014644721522927284,-0.2673862874507904,0.35245805978775024,-0.5440629720687866,-9.581718444824219
1745733680.948073,-0.009699600748717785,-0.016479577869176865,-0.2673513889312744,0.49887004494667053,-0.9332349896430969,-9.867280960083008
1745733680.9512458,0.015507911331951618,-0.013798607513308525,-0.2689129412174225,0.41209179162979126,-0.5300394296646118,-9.891889572143555
1745733680.9841206,0.004992092028260231,-0.01183896791189909,-0.26904231309890747,0.42035484313964844,-0.8424248695373535,-9.80870246887207
1745733680.986043,0.007858881726861,-0.021679503843188286,-0.26898929476737976,0.4245639741420746,-0.5881580114364624,-9.668902397155762
1745733680.987042,0.0231957845389843,-0.012193580158054829,-0.26828083395957947,0.3821704685688019,-0.6892193555831909,-9.768056869506836
1745733680.98905,0.0014130385825410485,-0.019636016339063644,-0.26629945635795593,0.43176349997520447,-0.7944169640541077,-9.828951835632324
1745733681.0304651,0.03026176057755947,-0.0112938042730093,-0.26482897996902466,0.3344751298427582,-0.6304298639297485,-9.694039344787598
1745733681.0357559,0.02404998429119587,-0.018060076981782913,-0.26874494552612305,0.36753612756729126,-0.5614566206932068,-9.71095085144043
1745733681.0394292,0.014752430841326714,-0.013038495555520058,-0.26627588272094727,0.44545072317123413,-0.7200018167495728,-9.830192565917969
1745733681.0414407,0.02178652212023735,-0.01917947828769684,-0.269491583108902,0.3493494987487793,-0.586294949054718,-9.856584548950195
1745733681.0687687,0.02101830206811428,-0.01431969553232193,-0.2681809961795807,0.37660619616508484,-0.902830958366394,-9.813423156738281
1745733681.0701573,0.004310617223381996,-0.020311493426561356,-0.2681982219219208,0.38328856229782104,-0.6250823736190796,-9.670814514160156
1745733681.073615,0.024608399718999863,-0.015777256339788437,-0.26754942536354065,0.4092511236667633,-0.8906110525131226,-9.742074966430664
1745733681.076042,0.0022202031686902046,-0.018376287072896957,-0.26677626371383667,0.46495598554611206,-0.6310054659843445,-9.669684410095215
1745733681.1138217,0.01367670577019453,-0.017610473558306694,-0.26969918608665466,0.474315345287323,-0.6877168416976929,-9.758702278137207
1745733681.11931,0.004313761368393898,-0.01527926605194807,-0.2700045108795166,0.5057632327079773,-0.8192288279533386,-9.769598007202148
1745733681.1208687,0.012195102870464325,-0.01826736330986023,-0.2703935503959656,0.23457422852516174,-0.5187085270881653,-9.78809928894043
1745733681.1219573,0.01575031317770481,-0.015888074412941933,-0.2661520838737488,0.40343350172042847,-0.9158418774604797,-9.789840698242188
1745733681.123943,0.008459645323455334,-0.016402345150709152,-0.26660749316215515,0.3268302083015442,-0.5219117999076843,-9.717645645141602
1745733681.15598,0.026960302144289017,-0.01792791485786438,-0.2668950855731964,0.3754294216632843,-0.7833217978477478,-9.761889457702637
1745733681.1601944,0.00807160697877407,-0.022556012496352196,-0.2678505778312683,0.4625507891178131,-0.6398245096206665,-9.744268417358398
1745733681.1695058,0.026657572016119957,-0.016607040539383888,-0.26693445444107056,0.32830628752708435,-0.7129819393157959,-9.749300003051758
1745733681.1696177,0.020032700151205063,-0.017051294445991516,-0.2705765664577484,0.3296775817871094,-0.855516254901886,-9.79776668548584
1745733681.1983194,0.0071723260916769505,-0.017648950219154358,-0.26859694719314575,0.4690003991127014,-0.8378532528877258,-9.836416244506836
1745733681.2031307,0.03324175626039505,-0.01276842225342989,-0.2690311372280121,0.3392382860183716,-0.532727062702179,-9.612785339355469
1745733681.2031832,-0.0025113471783697605,-0.01665327697992325,-0.26881399750709534,0.507686972618103,-0.9128924608230591,-9.670984268188477
1745733681.210402,0.02604404091835022,-0.019686713814735413,-0.2698532044887543,0.3950023055076599,-0.5751117467880249,-9.821260452270508
1745733681.2135258,0.015237212181091309,-0.010974493809044361,-0.2712201476097107,0.3808644711971283,-0.810132622718811,-9.958090782165527
1745733681.2416866,0.017843227833509445,-0.020022932440042496,-0.2713782489299774,0.39126715064048767,-0.5790647268295288,-9.687267303466797
1745733681.2447293,0.03249478340148926,-0.013652021065354347,-0.27091360092163086,0.3554824888706207,-0.7549068927764893,-9.645017623901367
1745733681.2468197,0.01223612017929554,-0.01926185004413128,-0.2693403363227844,0.4249398112297058,-0.7816659808158875,-9.802545547485352
1745733681.248914,0.03707422688603401,-0.014081137254834175,-0.2690950334072113,0.34521904587745667,-0.6674749255180359,-9.78392505645752
1745733681.2842321,0.008594056591391563,-0.014396032318472862,-0.26856762170791626,0.4746318757534027,-0.8757981061935425,-9.70922565460205
1745733681.2863777,0.03578142449259758,-0.015240798704326153,-0.2691057622432709,0.27459001541137695,-0.5876089334487915,-9.65202522277832
1745733681.29158,0.014447513036429882,-0.012281717732548714,-0.2696465849876404,0.4534999430179596,-0.840984046459198,-9.74742603302002
1745733681.292108,0.015675630420446396,-0.018491270020604134,-0.27169257402420044,0.42619600892066956,-0.5909311771392822,-9.887046813964844
1745733681.294976,0.03320132568478584,-0.010787606239318848,-0.26972493529319763,0.4001713693141937,-0.8212515115737915,-9.865150451660156
1745733681.3342388,0.014097723178565502,-0.01935700513422489,-0.2700469493865967,0.37130624055862427,-0.6201934814453125,-9.64002513885498
1745733681.3352914,0.03721601143479347,-0.012240370735526085,-0.27179229259490967,0.32189443707466125,-0.798983097076416,-9.633260726928711
1745733681.3431592,0.016450749710202217,-0.012970076873898506,-0.2694694697856903,0.4946008622646332,-0.7103861570358276,-9.752589225769043
1745733681.346293,0.04281366616487503,-0.016067378222942352,-0.2689068019390106,0.3784621059894562,-0.6700313091278076,-9.851618766784668
1745733681.3721814,0.022443270310759544,-0.011348940432071686,-0.26772332191467285,0.4479614198207855,-0.8643145561218262,-9.754606246948242
1745733681.3747473,0.034262415021657944,-0.018058035522699356,-0.26878708600997925,0.33443132042884827,-0.6827689409255981,-9.695666313171387
1745733681.3807244,0.03183721750974655,-0.012577729299664497,-0.2671296298503876,0.38045844435691833,-0.843294620513916,-9.825230598449707
1745733681.3849738,0.0316564105451107,-0.013468563556671143,-0.2692158818244934,0.2682724595069885,-0.5743394494056702,-9.681863784790039
1745733681.412176,0.030107010155916214,-0.013904595747590065,-0.2668653428554535,0.5473344922065735,-0.9891613721847534,-9.675498962402344
1745733681.413524,0.02677539549767971,-0.019037362188100815,-0.264822781085968,0.36575639247894287,-0.554776668548584,-9.828370094299316
1745733681.4167519,0.04077699035406113,-0.012600742280483246,-0.2654382586479187,0.34595420956611633,-0.8875508308410645,-9.961736679077148
1745733681.428427,0.01862063631415367,-0.017715372145175934,-0.2670617997646332,0.404849112033844,-0.6685616970062256,-9.632533073425293
1745733681.4565394,0.0376855731010437,-0.015103042125701904,-0.2675960659980774,0.3076457977294922,-0.7606785893440247,-9.581659317016602
1745733681.4570057,0.023704828694462776,-0.01643333211541176,-0.26699745655059814,0.5179678201675415,-0.7867896556854248,-9.735795974731445
1745733681.461341,0.03431505709886551,-0.016572730615735054,-0.2707074284553528,0.32261893153190613,-0.6212078332901001,-9.904680252075195
1745733681.4614773,0.01908825896680355,-0.013067221269011497,-0.2701641321182251,0.5509055256843567,-1.0326331853866577,-9.784364700317383
1745733681.4679093,0.02767866849899292,-0.016175946220755577,-0.2659509479999542,0.3730994462966919,-0.5899311304092407,-9.59803295135498
1745733681.5055745,0.019682075828313828,-0.016761595383286476,-0.266512930393219,0.4488646984100342,-0.9997482299804688,-9.88646125793457
1745733681.5057657,0.022925997152924538,-0.019225705415010452,-0.2659626603126526,0.4240279197692871,-0.5895337462425232,-9.891499519348145
1745733681.5089715,0.03094113990664482,-0.013272267766296864,-0.266948938369751,0.30613258481025696,-0.8552314043045044,-9.779232025146484
1745733681.5134904,0.017104104161262512,-0.018909001722931862,-0.265542209148407,0.47146955132484436,-0.6850214600563049,-9.505121231079102
1745733681.5431314,0.03913290426135063,-0.011615683324635029,-0.26709574460983276,0.2739388942718506,-0.5755584239959717,-9.675143241882324
1745733681.5451787,0.016411397606134415,-0.01435273326933384,-0.26795491576194763,0.5273647308349609,-0.8877344131469727,-9.582651138305664
1745733681.5482645,0.014211678877472878,-0.021362632513046265,-0.2666844427585602,0.38646095991134644,-0.7091590166091919,-9.840033531188965
1745733681.5605907,0.027118777856230736,-0.010618642903864384,-0.2678024172782898,0.4097862243652344,-0.9796961545944214,-10.013096809387207
1745733681.586896,0.011059083975851536,-0.015261569991707802,-0.26695767045021057,0.3393058180809021,-0.6246197819709778,-9.685571670532227
1745733681.5928814,0.027303824201226234,-0.013722683303058147,-0.26510900259017944,0.34960392117500305,-0.8513832092285156,-9.487298011779785
1745733681.592923,0.013757032342255116,-0.02027123048901558,-0.26586562395095825,0.5536872148513794,-0.6191281676292419,-9.753883361816406
1745733681.5929725,0.03154175728559494,-0.01651870273053646,-0.2658882141113281,0.30439406633377075,-0.7357880473136902,-10.05424690246582
1745733681.5943086,0.020724480971693993,-0.013343391939997673,-0.26536959409713745,0.44483184814453125,-0.8872915506362915,-9.70507526397705
1745733681.6302192,0.029663994908332825,-0.018218282610177994,-0.2650274634361267,0.364189088344574,-0.6602638959884644,-9.471508026123047
1745733681.6309123,0.02389686368405819,-0.01856452040374279,-0.26344820857048035,0.3981960117816925,-0.9933639764785767,-9.828015327453613
1745733681.6368814,0.01802738942205906,-0.018802545964717865,-0.26454877853393555,0.38050585985183716,-0.5253223180770874,-9.960245132446289
1745733681.6369457,0.03164391964673996,-0.012031877413392067,-0.26428765058517456,0.3775528073310852,-0.995129406452179,-9.778681755065918
1745733681.6718714,0.023297598585486412,-0.023046210408210754,-0.266404390335083,0.43277543783187866,-0.6016747355461121,-9.421422958374023
1745733681.674015,0.027060270309448242,-0.01947006955742836,-0.26583895087242126,0.3890136778354645,-0.7555318474769592,-9.813260078430176
1745733681.6780715,0.02057388238608837,-0.015679989010095596,-0.26630252599716187,0.48582667112350464,-0.9195371866226196,-9.96342658996582
1745733681.6815643,0.02828999236226082,-0.015178298577666283,-0.2670995593070984,0.20764854550361633,-0.5798750519752502,-9.613219261169434
1745733681.6851602,0.020229358226060867,-0.017611443996429443,-0.264678418636322,0.5376917123794556,-1.0805027484893799,-9.560800552368164
1745733681.7140634,0.020374387502670288,-0.022652408108115196,-0.26119425892829895,0.3626419007778168,-0.5386743545532227,-9.769739151000977
1745733681.7169147,0.03090912476181984,-0.013871182687580585,-0.2629011273384094,0.39214760065078735,-0.9724584817886353,-10.072175979614258
1745733681.7284746,0.018094055354595184,-0.02026102878153324,-0.26404303312301636,0.40193843841552734,-0.5961215496063232,-9.703221321105957
1745733681.7289646,0.03517146408557892,-0.01645578444004059,-0.26334041357040405,0.32982495427131653,-0.8117292523384094,-9.545442581176758
1745733681.76258,0.02400355413556099,-0.021284837275743484,-0.26547008752822876,0.4697030484676361,-0.8051026463508606,-9.664830207824707
1745733681.765362,0.017322946339845657,-0.019899781793355942,-0.26402249932289124,0.45622292160987854,-1.071479082107544,-9.909868240356445
1745733681.770368,0.023448016494512558,-0.02062070369720459,-0.26468902826309204,0.4385061264038086,-0.581599771976471,-9.914255142211914
1745733681.7727897,0.027496129274368286,-0.013616159558296204,-0.2640153765678406,0.3278338313102722,-0.9715045690536499,-9.804550170898438
1745733681.7748168,0.01579662412405014,-0.020430315285921097,-0.26278382539749146,0.4469105303287506,-0.7817378044128418,-9.455225944519043
1745733681.8019364,0.020660841837525368,-0.019772719591856003,-0.2632739245891571,0.28372785449028015,-0.8142805099487305,-9.707955360412598
1745733681.8059824,0.012319383211433887,-0.01684645749628544,-0.2614629864692688,0.419687420129776,-0.9106342196464539,-9.926023483276367
1745733681.8060622,0.025391027331352234,-0.013623964972794056,-0.26390936970710754,0.2898811995983124,-0.4816964566707611,-9.675592422485352
1745733681.8082538,0.008291570469737053,-0.01697411946952343,-0.2638404369354248,0.47481727600097656,-1.0461235046386719,-9.670733451843262
1745733681.8442512,0.025339137762784958,-0.021256066858768463,-0.2647106349468231,0.409892737865448,-0.5816648602485657,-9.749418258666992
1745733681.8466141,0.018087485805153847,-0.015635380521416664,-0.26610758900642395,0.3456761837005615,-0.9802607297897339,-10.032352447509766
1745733681.8475811,0.015009813010692596,-0.015880310907959938,-0.26262977719306946,0.42193523049354553,-0.7999780178070068,-9.646302223205566
1745733681.8490252,0.02873227372765541,-0.013695301488041878,-0.26395153999328613,0.3010614514350891,-0.726503849029541,-9.464679718017578
1745733681.8862543,0.006870918907225132,-0.021184802055358887,-0.26123282313346863,0.5189523100852966,-0.9652416110038757,-9.729225158691406
1745733681.892341,0.0008386030094698071,-0.018325434997677803,-0.26141566038131714,0.4808562397956848,-0.8965207934379578,-9.808206558227539
1745733681.892481,0.019467147067189217,-0.01688467338681221,-0.2613464593887329,0.34004372358322144,-0.7054389119148254,-9.885980606079102
1745733681.9022763,0.010601596906781197,-0.014646679162979126,-0.26125580072402954,0.4307398796081543,-0.8809653520584106,-9.755295753479004
1745733681.9327998,0.0060180798172950745,-0.02023584395647049,-0.26324033737182617,0.36865171790122986,-0.5508350133895874,-9.648469924926758
1745733681.933779,0.02182740345597267,-0.01590060442686081,-0.2634027600288391,0.37773123383522034,-0.9542828798294067,-9.811125755310059
1745733681.9462314,0.007929595187306404,-0.017172422260046005,-0.26381993293762207,0.378425657749176,-0.6198970079421997,-9.74303913116455
1745733681.9478743,0.019471194595098495,-0.016404656693339348,-0.26308441162109375,0.3953537940979004,-0.8060225248336792,-9.743432998657227
1745733681.9524958,0.007526732981204987,-0.013232129625976086,-0.26302045583724976,0.4879487454891205,-0.8833133578300476,-9.638912200927734
1745733681.9721365,0.021178293973207474,-0.018037473782896996,-0.26362642645835876,0.24570660293102264,-0.6613896489143372,-9.74411678314209
1745733681.9762576,0.011301140300929546,-0.012277276255190372,-0.26244115829467773,0.5022515058517456,-1.0327485799789429,-9.903696060180664
1745733681.9781468,0.01605295203626156,-0.017883088439702988,-0.2614898681640625,0.346158504486084,-0.5776720643043518,-9.763927459716797
1745733681.9804842,0.020371532067656517,-0.015353108756244183,-0.2600753605365753,0.41047200560569763,-0.9570377469062805,-9.733065605163574
1745733682.0185282,0.0011666150530800223,-0.02176458016037941,-0.2649172842502594,0.4113174378871918,-0.6593111753463745,-9.754462242126465
1745733682.0215936,0.020116623491048813,-0.014899502508342266,-0.26271936297416687,0.3558209538459778,-0.8676047325134277,-9.826470375061035
1745733682.0265148,0.0036116554401814938,-0.01779177226126194,-0.265006959438324,0.48638296127319336,-0.7807229161262512,-9.67083740234375
1745733682.0294104,0.013010924682021141,-0.020534943789243698,-0.2636505663394928,0.3009112477302551,-0.7589325308799744,-9.716679573059082
1745733682.0576289,0.0005741892382502556,-0.014831376262009144,-0.26255565881729126,0.5273935198783875,-0.968056321144104,-9.791603088378906
1745733682.0595825,0.017538879066705704,-0.01700868085026741,-0.2611609399318695,0.2746134400367737,-0.4598108232021332,-9.796762466430664
1745733682.0611072,0.01131171453744173,-0.016996832564473152,-0.26262909173965454,0.46195918321609497,-0.9116347432136536,-9.799641609191895
1745733682.0621493,0.02618306316435337,-0.018380390480160713,-0.2639469504356384,0.4049873352050781,-0.44439858198165894,-9.673677444458008
1745733682.064232,0.029873568564653397,-0.0185699500143528,-0.2639820873737335,0.33572307229042053,-0.9635534286499023,-9.82351016998291
1745733682.1043427,0.01788739301264286,-0.020929526537656784,-0.2612857520580292,0.43660077452659607,-0.7021052241325378,-9.653703689575195
1745733682.1111207,0.003247809363529086,-0.016173165291547775,-0.2647770643234253,0.3358941972255707,-1.0008337497711182,-9.876221656799316
1745733682.1181142,0.0015453014057129622,-0.019159764051437378,-0.26177889108657837,0.3421372175216675,-0.7514475584030151,-9.633184432983398
1745733682.1210501,0.014569413848221302,-0.010954666882753372,-0.2651715874671936,0.2803964912891388,-0.6964427828788757,-9.629837036132812
1745733682.1455445,0.0010461072670295835,-0.019597267732024193,-0.26425597071647644,0.5026692152023315,-0.8264783620834351,-9.747418403625488
1745733682.148746,0.01883840002119541,-0.016276337206363678,-0.2648012936115265,0.3247148394584656,-0.5754416584968567,-9.815183639526367
1745733682.1574867,0.0047109671868383884,-0.01680839993059635,-0.26404398679733276,0.5250353217124939,-1.0325701236724854,-9.86262321472168
1745733682.159389,0.018635744228959084,-0.02063463069498539,-0.26439809799194336,0.2937411367893219,-0.49743908643722534,-9.701180458068848
1745733682.1874096,0.006512541323900223,-0.015209132805466652,-0.26418590545654297,0.4290751814842224,-1.0682804584503174,-9.778548240661621
1745733682.1905208,0.008952761068940163,-0.022912031039595604,-0.26459193229675293,0.38893985748291016,-0.7120736241340637,-9.703801155090332
1745733682.1960325,0.01602708175778389,-0.01337556354701519,-0.26422277092933655,0.25794488191604614,-0.8151683807373047,-9.77095890045166
1745733682.1979525,-0.002568122697994113,-0.022727999836206436,-0.26557788252830505,0.5390464067459106,-0.7440948486328125,-9.668669700622559
1745733682.1994212,0.02055291086435318,-0.01590287871658802,-0.26621589064598083,0.320848286151886,-0.6609499454498291,-9.700190544128418
1745733682.2319238,0.0015198644250631332,-0.015995552763342857,-0.267146497964859,0.4018626809120178,-0.8304656147956848,-9.79771614074707
1745733682.2361019,0.020192621275782585,-0.019776687026023865,-0.26916974782943726,0.3890905976295471,-0.6536287069320679,-9.762407302856445
1745733682.2398486,-0.004001660738140345,-0.014480406418442726,-0.268400102853775,0.5408707857131958,-0.9882959127426147,-9.805971145629883
1745733682.2449293,0.005811331328004599,-0.01853749342262745,-0.2656281590461731,0.37305933237075806,-0.514103889465332,-9.775125503540039
1745733682.274574,0.010206660255789757,-0.016800373792648315,-0.26977628469467163,0.42393964529037476,-0.9503706693649292,-9.930959701538086
1745733682.2770221,0.0037728280294686556,-0.022839423269033432,-0.2684059143066406,0.3585399091243744,-0.5741166472434998,-9.736815452575684
1745733682.2777882,0.01383927185088396,-0.014555146917700768,-0.27038639783859253,0.333000123500824,-0.8988850712776184,-9.667341232299805
1745733682.2796726,0.0032704975455999374,-0.019330041483044624,-0.26833224296569824,0.488029807806015,-0.769324779510498,-9.593077659606934
1745733682.315638,0.016582241281867027,-0.01462459284812212,-0.2702053189277649,0.3006659746170044,-0.6863896250724792,-9.765501976013184
1745733682.3209794,-0.005941872019320726,-0.015971248969435692,-0.2699022889137268,0.5550357699394226,-0.9417014122009277,-9.81900691986084
1745733682.3237271,0.021384915336966515,-0.01461231242865324,-0.2680770754814148,0.3408759534358978,-0.529549241065979,-9.733575820922852
1745733682.3239734,0.003190660150721669,-0.01854698732495308,-0.2725578248500824,0.44912710785865784,-0.9527084231376648,-9.830998420715332
1745733682.326856,0.013350790366530418,-0.01997724547982216,-0.2687869668006897,0.35786181688308716,-0.5729285478591919,-9.76828670501709
1745733682.3611715,0.018305551260709763,-0.01314961165189743,-0.269143283367157,0.3514748513698578,-0.9298850893974304,-9.794761657714844
1745733682.3627884,0.010060355067253113,-0.02001820132136345,-0.26875048875808716,0.4209243655204773,-0.5800933837890625,-9.560419082641602
1745733682.3641372,0.020612236112356186,-0.016335126012563705,-0.27132344245910645,0.301968514919281,-0.8187203407287598,-9.710494041442871
1745733682.3658352,0.00915546901524067,-0.016299059614539146,-0.27064672112464905,0.5000126957893372,-0.8580201268196106,-9.780828475952148
1745733682.4036264,0.026788029819726944,-0.015265291556715965,-0.27071791887283325,0.37092018127441406,-0.5500961542129517,-9.782892227172852
1745733682.4058237,0.005099852569401264,-0.016728918999433517,-0.27028539776802063,0.46971744298934937,-0.9817895889282227,-9.784385681152344
1745733682.4202116,0.02546895667910576,-0.01762918010354042,-0.2701992392539978,0.3389982581138611,-0.5960962176322937,-9.717130661010742
1745733682.4203446,0.019263364374637604,-0.012020271271467209,-0.2717655301094055,0.3533652126789093,-0.9584975242614746,-9.812402725219727
1745733682.4204538,0.012363730929791927,-0.022537605836987495,-0.27027657628059387,0.4341687262058258,-0.6666918992996216,-9.66948127746582
1745733682.450289,0.028366172686219215,-0.013776792213320732,-0.2723361849784851,0.39994296431541443,-0.7305164933204651,-9.828832626342773
1745733682.4503784,0.007061483804136515,-0.02066699229180813,-0.2731907069683075,0.45944148302078247,-0.871587872505188,-9.785673141479492
1745733682.4600866,0.0261727012693882,-0.013965511694550514,-0.27098459005355835,0.3880941867828369,-0.7486960291862488,-9.718928337097168
1745733682.4601784,0.003006689716130495,-0.024554140865802765,-0.2741249203681946,0.45035070180892944,-0.6359236240386963,-9.787461280822754
1745733682.4911468,0.030191203579306602,-0.01603139564394951,-0.2744421064853668,0.3235737681388855,-0.8053332567214966,-9.797218322753906
1745733682.4939997,0.0070759146474301815,-0.015929708257317543,-0.27311256527900696,0.4201965928077698,-0.8205812573432922,-9.605188369750977
1745733682.4965715,0.02429415099322796,-0.019249677658081055,-0.27301520109176636,0.3797605633735657,-0.7380529642105103,-9.688359260559082
1745733682.4998345,0.007194304373115301,-0.016010526567697525,-0.2708636224269867,0.45270591974258423,-0.9781697392463684,-9.866488456726074
1745733682.531507,0.016857227310538292,-0.01814822293817997,-0.2715071439743042,0.3892812132835388,-0.6244574189186096,-9.803018569946289
1745733682.5356853,0.015832463279366493,-0.018264848738908768,-0.2722843289375305,0.40891513228416443,-0.8942679166793823,-9.731088638305664
1745733682.5395977,0.0013398658484220505,-0.02326282300055027,-0.2720639109611511,0.38243022561073303,-0.6160833239555359,-9.718622207641602
1745733682.5443933,0.029982423409819603,-0.015361467376351357,-0.27383455634117126,0.332533061504364,-0.8202726244926453,-9.792272567749023
1745733682.5550992,0.0013030620757490396,-0.018684828653931618,-0.27530187368392944,0.4074900150299072,-0.7970344424247742,-9.649062156677246
1745733682.5828276,0.020676638931035995,-0.019311854615807533,-0.2744866907596588,0.3666171431541443,-0.7425575852394104,-9.689360618591309
1745733682.5828826,0.008679973892867565,-0.01528238970786333,-0.27303993701934814,0.4908685088157654,-0.8918312191963196,-9.768085479736328
1745733682.5829225,-0.03879168629646301,-0.03918679803609848,-0.22309288382530212,0.19743241369724274,-1.1541545391082764,-9.291061401367188
1745733682.6349344,-0.01064235158264637,-0.04360101372003555,-0.2145218849182129,0.06796984374523163,-0.5244237184524536,-9.714836120605469
1745733682.6350186,-0.019540823996067047,-0.037259314209222794,-0.21452435851097107,0.08734937012195587,-0.5920548439025879,-10.173316955566406
1745733682.6350791,-0.007456583436578512,-0.03696133568882942,-0.2166646420955658,0.1015680655837059,-0.4808276295661926,-9.791352272033691
1745733682.6351264,0.006828200072050095,-0.040440790355205536,-0.2196802794933319,-0.005312363617122173,-0.5648623704910278,-9.360452651977539
1745733682.6611533,-0.0200542863458395,-0.04963519424200058,-0.21895630657672882,0.30926114320755005,-0.89134681224823,-9.78727912902832
1745733682.6618989,0.000544515554793179,-0.04034364968538284,-0.2145698517560959,0.10157325118780136,-0.8614119291305542,-10.236394882202148
1745733682.667546,-0.03720381483435631,-0.03635236620903015,-0.21067459881305695,0.3148847222328186,-1.31001877784729,-9.733999252319336
1745733682.6712234,-0.02768179401755333,-0.04418926686048508,-0.20299479365348816,0.17866964638233185,-0.79078209400177,-9.223517417907715
1745733682.6739457,-0.05463188886642456,-0.044119659811258316,-0.2006317377090454,0.24120071530342102,-1.0833791494369507,-9.77520751953125
1745733682.7077205,-0.033458393067121506,-0.042108915746212006,-0.19891761243343353,0.15321415662765503,-0.4059049189090729,-10.144498825073242
1745733682.7192695,-0.03838936239480972,-0.0393945574760437,-0.19955208897590637,-0.03859199583530426,-0.6401016712188721,-9.947587966918945
1745733682.7194624,-0.03167013078927994,-0.04281459003686905,-0.19922547042369843,-0.007614983711391687,-0.6216303110122681,-9.337953567504883
1745733682.7217906,-0.036126382648944855,-0.04969098046422005,-0.1955622136592865,-0.16234932839870453,-0.7741543650627136,-9.603253364562988
1745733682.7480156,-0.050198573619127274,-0.037940047681331635,-0.18741288781166077,-0.017468901351094246,-1.1091407537460327,-10.144892692565918
1745733682.7481449,-0.03245050087571144,-0.03191262483596802,-0.18270167708396912,0.0436573401093483,-0.5524420142173767,-9.625147819519043
1745733682.7510161,-0.04978308081626892,-0.038357656449079514,-0.17173199355602264,0.4832359254360199,-0.8990379571914673,-9.432262420654297
1745733682.751927,-0.029186811298131943,-0.06271544843912125,-0.1707940399646759,0.46859216690063477,-0.07288204878568649,-10.064271926879883
1745733682.7562914,-0.022367823868989944,-0.058207083493471146,-0.18427011370658875,0.03697773069143295,-0.4983042776584625,-10.82485580444336
1745733682.7910771,-0.023746991530060768,-0.03670087829232216,-0.1892620027065277,-0.38573628664016724,-0.4117197096347809,-9.640094757080078
1745733682.7951121,-0.036768458783626556,-0.05417003482580185,-0.18396179378032684,-0.27508077025413513,-1.0353906154632568,-8.6287202835083
1745733682.7995682,-0.05928068235516548,-0.06946492940187454,-0.17373615503311157,0.053796183317899704,-1.228041410446167,-9.66174030303955
1745733682.8041677,-0.0702524334192276,-0.029826100915670395,-0.14281471073627472,-0.062228262424468994,-0.7385565042495728,-8.755134582519531
1745733682.8334363,-0.088877372443676,-0.05109049007296562,-0.13776737451553345,0.05152153968811035,-0.7249081134796143,-8.259698867797852
1745733682.8365664,-0.08317675441503525,-0.05068547651171684,-0.1328025460243225,0.21520471572875977,-0.18055562674999237,-10.477323532104492
1745733682.8379297,-0.0812782272696495,-0.027580296620726585,-0.13755908608436584,0.3402935266494751,-0.4789126515388489,-11.330245971679688
1745733682.8410475,-0.0381663516163826,-0.0317503996193409,-0.1359410136938095,0.23899808526039124,0.1704256683588028,-9.079717636108398
1745733682.8773687,-0.043109968304634094,-0.04627881571650505,-0.13321781158447266,0.5068821907043457,-0.5525616407394409,-8.686370849609375
1745733682.8792026,-0.014436614699661732,-0.05840094015002251,-0.12510482966899872,0.3091627359390259,-0.37393102049827576,-10.669682502746582
1745733682.8802865,-0.0029147271998226643,-0.026126399636268616,-0.11468998342752457,0.011302845552563667,-0.9631592631340027,-10.921135902404785
1745733682.8825045,0.0018430467462167144,-0.0222505833953619,-0.10697338730096817,-0.07552728801965714,-0.5545424818992615,-8.701096534729004
1745733682.8846614,-0.013310101814568043,-0.042525146156549454,-0.10312290489673615,-0.045351892709732056,-0.5814617872238159,-8.591326713562012
1745733682.9214988,-0.018802249804139137,-0.04682818800210953,-0.10699670016765594,0.2500922679901123,-0.6289052963256836,-10.545846939086914
1745733682.925868,-0.023020654916763306,-0.019372928887605667,-0.11451345682144165,0.05894715338945389,-0.49652695655822754,-11.05232048034668
1745733682.927933,-0.03918984532356262,-0.023399915546178818,-0.11537279188632965,0.32517537474632263,-1.1644089221954346,-9.235719680786133
1745733682.930687,-0.07804849743843079,-0.04639354348182678,-0.11034168303012848,0.10851363837718964,-0.9795848727226257,-8.718445777893066
1745733682.964376,-0.09478157758712769,0.005381994415074587,-0.007609807886183262,0.2039400339126587,-0.4368317723274231,-9.794382095336914
1745733682.9678226,-0.13078606128692627,0.015162862837314606,-0.0042105307802557945,0.21850642561912537,-0.6704272031784058,-10.246078491210938
1745733682.97206,-0.11516149342060089,0.02499108575284481,-0.0015032257651910186,0.14230403304100037,-0.4477999806404114,-9.63306713104248
1745733682.9765656,-0.12257597595453262,0.017736751586198807,0.011100334115326405,0.583448052406311,-0.7692970037460327,-9.154874801635742
1745733683.012876,-0.143635556101799,0.01933913491666317,0.020328622311353683,0.5409442186355591,-0.6098753213882446,-10.075213432312012
1745733683.013035,-0.1369706094264984,0.02488325536251068,0.031244823709130287,0.6166465878486633,-0.6356140375137329,-10.249673843383789
1745733683.0131152,-0.1560606062412262,0.02731502428650856,0.04010738059878349,0.9520301818847656,-0.42456334829330444,-9.383258819580078
1745733683.0143979,-0.14568205177783966,0.023494882509112358,0.04588090255856514,0.634070098400116,0.13429628312587738,-9.578086853027344
1745733683.020453,-0.14923521876335144,0.020163778215646744,0.045734304934740067,0.7219519019126892,-0.1501879245042801,-10.329649925231934
1745733683.04853,-0.10731340944766998,0.025397945195436478,0.048669278621673584,0.4613493084907532,0.5066565275192261,-10.036311149597168
1745733683.0496645,-0.10465435683727264,0.03317645937204361,0.052381329238414764,0.27416345477104187,-0.09011886268854141,-9.373555183410645
1745733683.052581,-0.08223243057727814,0.021379102021455765,0.05712079256772995,0.2190914899110794,0.3421078622341156,-9.141502380371094
1745733683.0560265,-0.047354891896247864,0.030439918860793114,0.06502930819988251,0.3062005043029785,-0.22953450679779053,-10.097441673278809
1745733683.0941904,-0.03793768957257271,0.045159000903367996,0.07264769822359085,0.4233080744743347,-0.11449959129095078,-10.196086883544922
1745733683.098627,-0.029230326414108276,0.0394057035446167,0.07891900837421417,0.41818109154701233,-0.45275840163230896,-9.479806900024414
1745733683.1033444,-0.049514248967170715,0.03882112726569176,0.08738149702548981,0.6532906889915466,-0.8171098828315735,-9.382739067077637
1745733683.1120481,-0.0643964409828186,0.038246769458055496,0.09115690737962723,0.37446528673171997,-0.6535335779190063,-10.06543254852295
1745733683.134201,-0.10463450849056244,0.046885523945093155,0.09766169637441635,0.44595733284950256,-1.3128235340118408,-10.148770332336426
1745733683.135722,-0.14095142483711243,0.04698272421956062,0.10432054102420807,0.4439615309238434,-0.7971699833869934,-9.336435317993164
1745733683.1368659,-0.17660722136497498,0.04693794250488281,0.10915577411651611,0.3632470369338989,-0.9544903635978699,-9.414937973022461
1745733683.1394281,-0.20647147297859192,0.03915592283010483,0.11053889989852905,0.4851512908935547,-0.48320531845092773,-9.986231803894043
1745733683.1778708,-0.08742959797382355,0.05182842165231705,0.1435132771730423,0.43536582589149475,0.03506112098693848,-9.796792030334473
1745733683.1801171,-0.10873287916183472,0.04649467393755913,0.1411704570055008,0.6048022508621216,-0.34316152334213257,-9.89037036895752
1745733683.184324,-0.10979460179805756,0.0453469380736351,0.14632557332515717,0.42027169466018677,-0.37925276160240173,-9.754646301269531
1745733683.1884062,-0.14742408692836761,0.04873742535710335,0.14958471059799194,0.6188348531723022,-0.8293578028678894,-9.650453567504883
1745733683.1919167,-0.14831367135047913,0.04951627925038338,0.1591692864894867,0.39552977681159973,-0.39919599890708923,-9.600520133972168
1745733683.2223814,-0.17477038502693176,0.05245102569460869,0.16489049792289734,0.45045414566993713,-0.5857785940170288,-9.837408065795898
1745733683.2228622,-0.1698646992444992,0.04189998656511307,0.1689368486404419,0.5187308192253113,-0.10398273169994354,-9.7599458694458
1745733683.2259252,-0.1611766368150711,0.05693160369992256,0.17137357592582703,0.35269853472709656,-0.16759255528450012,-9.771787643432617
1745733683.2294989,-0.1686914712190628,0.044125884771347046,0.17409351468086243,0.3497230112552643,0.006050774361938238,-9.645672798156738
1745733683.2630131,-0.1520538330078125,0.04234129562973976,0.17638342082500458,0.31640806794166565,-0.08170442283153534,-9.705471992492676
1745733683.2658136,-0.16770341992378235,0.05234377458691597,0.17964638769626617,0.49279046058654785,-0.19189907610416412,-9.799168586730957
1745733683.27795,-0.1614799201488495,0.04930572956800461,0.18127265572547913,0.35319456458091736,0.06023135036230087,-9.680588722229004
1745733683.278352,-0.17099355161190033,0.045200131833553314,0.18537211418151855,0.6320344805717468,-0.26959821581840515,-9.627400398254395
1745733683.2785234,-0.17461106181144714,0.038492538034915924,0.1847148984670639,0.6845626831054688,0.0848931223154068,-9.77180004119873
1745733683.309615,-0.16793140769004822,0.005217717960476875,0.24998152256011963,0.5269495248794556,0.044875647872686386,-9.937543869018555
1745733683.3118372,-0.14750733971595764,0.005651123821735382,0.2532880902290344,0.45815008878707886,0.38742339611053467,-9.928305625915527
1745733683.315538,-0.15330949425697327,0.013796982355415821,0.25598543882369995,0.5004069209098816,0.031039636582136154,-9.641436576843262
1745733683.3481383,-0.1550932675600052,0.002866498427465558,0.2575487792491913,0.387650728225708,0.4770330488681793,-9.464138984680176
1745733683.3506489,-0.14874479174613953,0.0022418571170419455,0.2596912086009979,0.528136134147644,0.14560659229755402,-9.877331733703613
1745733683.3519695,-0.1571107655763626,0.004028909839689732,0.2584551274776459,0.6355557441711426,0.39082908630371094,-9.970094680786133
1745733683.3548872,-0.13653884828090668,0.0062182145193219185,0.2597710192203522,0.4432050287723541,0.3638544976711273,-9.790104866027832
1745733683.356515,-0.15970581769943237,-0.005474396515637636,0.2591954171657562,0.5133374929428101,0.17652627825737,-9.632758140563965
1745733683.3946972,-0.13758963346481323,-0.0023739044554531574,0.26319628953933716,0.43000245094299316,0.3749815821647644,-9.70191478729248
1745733683.3978121,-0.1545482575893402,0.002273926045745611,0.2632295489311218,0.560445249080658,0.09662647545337677,-9.85814094543457
1745733683.4010868,-0.13837012648582458,-0.005944106727838516,0.2703186571598053,0.3166966140270233,0.5460866689682007,-9.760107040405273
1745733683.4012158,-0.13476543128490448,-0.010691779665648937,0.2703514099121094,0.587894856929779,0.3108770251274109,-9.829706192016602
1745733683.4399443,-0.10837918519973755,-0.027833957225084305,0.2608865797519684,0.5537438988685608,1.170488953590393,-9.775012016296387
1745733683.440077,-0.08685500919818878,-0.01649579405784607,0.24249689280986786,-0.6100735664367676,1.0808042287826538,-10.452753067016602
1745733683.4404564,-0.0844762772321701,-0.0376676507294178,0.22364692389965057,-0.2705453336238861,0.937981128692627,-9.252477645874023
1745733683.4453297,-0.03529350832104683,-0.03523210436105728,0.21375708281993866,-0.43674492835998535,0.46693164110183716,-9.321959495544434
1745733683.4487095,-0.04090326279401779,-0.023950587958097458,0.20897944271564484,-0.7379275560379028,0.29729360342025757,-10.152276039123535
1745733683.481075,-0.07291485369205475,-0.03239786624908447,0.21249830722808838,-0.6032274961471558,-0.8855267763137817,-9.826603889465332
1745733683.4818516,-0.038515929132699966,-0.00814211368560791,0.22022180259227753,0.39612480998039246,-0.47798267006874084,-8.740273475646973
1745733683.4849393,-0.1395019292831421,-0.039186254143714905,0.22076690196990967,0.27935153245925903,-0.5919032692909241,-10.084437370300293
1745733683.4889503,-0.1406078338623047,-0.0517711266875267,0.2193659245967865,0.4840981960296631,-0.9611614942550659,-10.931243896484375
1745733683.5253093,0.017735108733177185,-0.06761623919010162,0.1788531094789505,-0.01039064209908247,0.9815729856491089,-10.003007888793945
1745733683.532163,0.0111209936439991,-0.06938701868057251,0.18539683520793915,0.15945525467395782,0.8121950030326843,-8.60373306274414
1745733683.534288,0.026749199256300926,-0.08860120177268982,0.1852683573961258,-0.5319241285324097,0.3929564952850342,-9.662113189697266
1745733683.5354867,0.023985013365745544,-0.06904350221157074,0.16912096738815308,-0.464419424533844,0.198337122797966,-10.55487060546875
1745733683.5648396,-0.06790454685688019,-0.07635824382305145,0.14813895523548126,0.520530104637146,-0.14141064882278442,-9.619699478149414
1745733683.5661142,-0.12455954402685165,-0.09622861444950104,0.14470618963241577,0.07029145210981369,-0.8881769180297852,-9.939409255981445
1745733683.5689623,-0.15891747176647186,-0.07973289489746094,0.1416696012020111,-0.4691247045993805,0.15623614192008972,-9.955209732055664
1745733683.5792122,-0.14259615540504456,-0.031189238652586937,0.1365482360124588,0.846953272819519,0.0005985855823382735,-8.87373161315918
1745733683.6101713,-0.18590576946735382,-0.11261177062988281,0.14542584121227264,1.2205326557159424,-0.13590304553508759,-9.725415229797363
1745733683.6140683,-0.13101203739643097,-0.08837462961673737,0.1585269272327423,0.19496865570545197,0.21420304477214813,-11.694073677062988
1745733683.6215975,-0.1012265533208847,-0.07502137124538422,0.1682768017053604,-0.8114007711410522,0.8809269070625305,-9.929722785949707
1745733683.624551,-0.09914141893386841,-0.05473044514656067,0.17187924683094025,-1.131767988204956,0.3091616630554199,-7.9534759521484375
1745733683.6499422,-0.07643590122461319,-0.07595989108085632,0.15431781113147736,0.27455049753189087,1.3017112016677856,-8.554986953735352
1745733683.65151,-0.10156425088644028,-0.08951450139284134,0.12672309577465057,0.46314898133277893,1.8373024463653564,-11.886052131652832
1745733683.6532457,0.027881015092134476,-0.055978287011384964,0.10269086062908173,0.17333127558231354,1.6029083728790283,-11.411506652832031
1745733683.6559217,-0.038900814950466156,-0.019719524309039116,0.07057008892297745,0.11697320640087128,0.05765584111213684,-10.82538890838623
1745733683.6605444,-0.02338140271604061,-0.02567886747419834,0.07924988865852356,-0.029408853501081467,0.36592236161231995,-9.053617477416992
1745733683.7015083,-0.015778500586748123,-0.030533665791153908,0.09111939370632172,-0.017222022637724876,0.22910690307617188,-8.918086051940918
1745733683.7016056,-0.0037854784168303013,-0.031687114387750626,0.09468703716993332,0.09525085985660553,0.8399990797042847,-10.35029411315918
1745733683.7018661,0.05632549524307251,-0.030396927148103714,0.08372558653354645,0.10546702146530151,1.1995702981948853,-10.679093360900879
1745733683.701924,0.03399280458688736,-0.017359305173158646,0.06321822851896286,-0.6366723775863647,0.9857033491134644,-9.953271865844727
1745733683.7413805,0.0713842362165451,-0.030787944793701172,0.05522196739912033,-0.373523086309433,0.7401078939437866,-8.385465621948242
1745733683.7442381,0.040047504007816315,-0.02260606549680233,0.05820385366678238,-0.026554744690656662,-0.21680691838264465,-9.812368392944336
1745733683.7443893,0.03563932329416275,-0.013893386349081993,0.06738506257534027,0.19704897701740265,0.010109877213835716,-10.77202320098877
1745733683.7444704,0.0019250646000728011,0.0016664124559611082,0.0810602530837059,0.5143104195594788,-1.1745389699935913,-10.140061378479004
1745733683.745091,-0.006195348687469959,-0.004307805560529232,0.08821307867765427,0.6733046174049377,0.6702150702476501,-8.525762557983398
1745733683.7834387,-0.06301174312829971,-0.016742970794439316,0.08452966809272766,0.5757960081100464,-0.07333477586507797,-10.120527267456055
1745733683.7846231,-0.0019842826295644045,-0.0370749905705452,0.0836908370256424,0.7170370817184448,1.1789674758911133,-11.031928062438965
1745733683.7890894,-0.006798365619033575,0.008658554404973984,0.07497471570968628,-0.20783081650733948,0.8679181933403015,-10.461231231689453
1745733683.7924333,0.011859985999763012,-0.014252731576561928,0.07343295216560364,-0.4745689332485199,0.8988004922866821,-8.464953422546387
1745733683.833881,0.02873755432665348,-0.01804368570446968,0.07487594336271286,-0.1432875394821167,0.8381568789482117,-8.640142440795898
1745733683.8365881,0.06276044249534607,-0.00416299095377326,0.07592363655567169,0.3564698100090027,0.9127643704414368,-10.813326835632324
1745733683.8427541,0.07478052377700806,0.008142750710248947,0.07540816813707352,0.15211081504821777,0.917472243309021,-10.985837936401367
1745733683.845458,0.1283419132232666,0.00914907269179821,0.07748229801654816,0.4873695373535156,0.2657189667224884,-8.912498474121094
1745733683.8462727,0.09337522089481354,-0.0036042840220034122,0.08544164896011353,0.7258493304252625,0.4169330596923828,-8.649558067321777
1745733683.8679821,0.09545279294252396,-0.006554402410984039,0.09095332026481628,0.39767593145370483,-0.3686179518699646,-10.995539665222168
1745733683.8708556,0.07162995636463165,0.03946853429079056,0.1070416122674942,0.176797553896904,0.35335004329681396,-11.046354293823242
1745733683.8739731,0.07136058807373047,0.03680570423603058,0.11366865783929825,0.45228415727615356,0.2816429138183594,-9.08637809753418
1745733683.877671,0.08171544224023819,0.02452508546411991,0.11436431109905243,0.33238500356674194,0.7085849046707153,-8.615333557128906
1745733683.914152,0.05537601187825203,0.023436088114976883,0.10652259737253189,0.4910823702812195,0.3983535170555115,-10.40776538848877
1745733683.9142373,0.05504176765680313,0.03473299369215965,0.10493507236242294,0.6432000994682312,0.30086275935173035,-10.829174041748047
1745733683.918609,0.03921668976545334,0.042847007513046265,0.10573005676269531,0.7988661527633667,-0.058520592749118805,-9.210749626159668
1745733683.9211059,-0.009858988225460052,0.03323708474636078,0.11927740275859833,0.6457808613777161,-0.2255459725856781,-8.91455078125
1745733683.9553635,-0.006463757250458002,0.03400876000523567,0.13362239301204681,0.7633516788482666,0.14461743831634521,-9.960302352905273
1745733683.9564006,-0.013677695766091347,0.04530182480812073,0.14301621913909912,1.1552841663360596,0.29616421461105347,-10.45753288269043
1745733683.9590123,0.04199471324682236,0.049375128000974655,0.15004147589206696,0.7232357859611511,1.3626365661621094,-9.722379684448242
1745733683.961444,0.04754906892776489,0.039537463337183,0.1468396782875061,0.4288322925567627,0.9029698371887207,-9.391854286193848
1745733683.996112,0.11753696203231812,0.03999284654855728,0.15130293369293213,0.2248048484325409,1.439212441444397,-9.542787551879883
1745733683.9982338,0.13413211703300476,0.057376403361558914,0.15148958563804626,0.3042305111885071,0.7568985819816589,-9.984163284301758
1745733684.0001874,0.15098293125629425,0.05182834342122078,0.15340039134025574,0.21948015689849854,0.5888463258743286,-9.735809326171875
1745733684.0039632,0.15814901888370514,0.0630352646112442,0.15809795260429382,0.26720577478408813,0.10264439880847931,-9.39062786102295
1745733684.0063145,0.0010567670688033104,0.045376669615507126,0.24382324516773224,0.6618870496749878,0.30065345764160156,-9.34470272064209
1745733684.0410562,-0.011650879867374897,0.031361933797597885,0.24873724579811096,0.6180998086929321,0.45308583974838257,-9.755390167236328
1745733684.0432656,0.017386162653565407,0.03794052079319954,0.2523389458656311,0.49216610193252563,0.22081825137138367,-10.122541427612305
1745733684.0447943,0.0022663106210529804,0.04589701443910599,0.25510138273239136,0.5002447366714478,0.27286943793296814,-9.610586166381836
1745733684.0463622,0.013524724170565605,0.03628643602132797,0.25822120904922485,0.3120732307434082,0.3506128191947937,-9.253024101257324
1745733684.08021,-0.003799502272158861,0.028134480118751526,0.2573813796043396,0.6185885667800903,0.1718018800020218,-9.675823211669922
1745733684.0832646,0.0019815838895738125,0.029277989640831947,0.2598005533218384,0.5745495557785034,0.42332005500793457,-10.130456924438477
1745733684.0842896,-0.010273988358676434,0.04120425134897232,0.2567722201347351,0.6402981877326965,-0.01305063534528017,-9.891692161560059
1745733684.0860345,-0.029431140050292015,0.02386876568198204,0.2587742805480957,0.5962909460067749,0.21073584258556366,-9.33244800567627
1745733684.0882478,-0.03317227214574814,0.02182367630302906,0.26516592502593994,0.6341385841369629,-0.17647668719291687,-9.665266036987305
1745733684.1258855,-0.05668272823095322,0.02568025514483452,0.2703237533569336,0.6310223340988159,0.18806859850883484,-10.04045295715332
1745733684.1301415,-0.04659918695688248,0.029305681586265564,0.2726936936378479,0.41557636857032776,0.32916224002838135,-9.784399032592773
1745733684.1336195,-0.05438675731420517,0.019049853086471558,0.271784245967865,0.6511737704277039,0.30365246534347534,-9.34119987487793
1745733684.1351476,-0.03932180255651474,0.014206580817699432,0.27242618799209595,0.5572554469108582,0.8246855735778809,-9.696564674377441
1745733684.166904,-0.032351862639188766,0.0175702515989542,0.27013033628463745,0.526545524597168,0.44339776039123535,-10.230488777160645
1745733684.1689858,-0.020789766684174538,0.011127481237053871,0.2718510925769806,0.4236685633659363,0.5756310224533081,-9.735599517822266
1745733684.1708293,-0.013147883117198944,0.01522824726998806,0.2738725543022156,0.5618144273757935,0.17687833309173584,-9.278294563293457
1745733684.172069,-0.03629010170698166,0.006441914476454258,0.28168797492980957,0.6138641834259033,0.25003111362457275,-9.638483047485352
1745733684.1754248,-0.018551042303442955,0.007580121047794819,0.2814781367778778,0.5598840117454529,0.25696486234664917,-10.133050918579102
1745733684.2126083,-0.04237836226820946,0.008658631704747677,0.2829248309135437,0.7923039197921753,0.1375213861465454,-9.90398120880127
1745733684.2216246,-0.03203069046139717,0.005657619796693325,0.28295955061912537,0.5384417772293091,0.4560483396053314,-9.523042678833008
1745733684.2232845,-0.05914513021707535,-0.002447661478072405,0.282265305519104,0.5632422566413879,0.0480496846139431,-9.660470962524414
1745733684.2279096,-0.057248760014772415,-0.00518461037427187,0.29434606432914734,0.5352237820625305,0.4621397852897644,-10.025003433227539
1745733684.2556772,-0.06284249573945999,-0.009043135680258274,0.295587956905365,0.6821250915527344,0.352535605430603,-9.763874053955078
1745733684.2562382,-0.05793505162000656,-0.015529382042586803,0.2962876558303833,0.48353472352027893,0.4825287461280823,-9.614822387695312
1745733684.25756,-0.05860551446676254,-0.009732535108923912,0.3005998730659485,0.5184558033943176,0.21693582832813263,-9.752350807189941
1745733684.25941,-0.07238011807203293,-0.015544679947197437,0.2986305058002472,0.5060998201370239,0.47495800256729126,-9.779267311096191
1745733684.2988503,-0.059337567538022995,-0.014130721800029278,0.29944509267807007,0.5653916001319885,0.26432478427886963,-9.795711517333984
1745733684.3017044,-0.07968328148126602,-0.02031671069562435,0.29876700043678284,0.6806604862213135,0.4859851002693176,-9.717065811157227
1745733684.3046255,-0.06118583679199219,-0.01962796039879322,0.299479603767395,0.47338002920150757,0.44060689210891724,-9.903707504272461
1745733684.3075602,-0.07883467525243759,-0.02197401598095894,0.2994242310523987,0.5807948112487793,0.26504313945770264,-9.887750625610352
1745733684.3128886,-0.06542928516864777,-0.024257345125079155,0.3037791848182678,0.47979241609573364,0.40288227796554565,-9.631492614746094
1745733684.340554,-0.0780126228928566,-0.017028076574206352,0.30700019001960754,0.5794800519943237,0.11414001137018204,-9.731501579284668
1745733684.3440263,-0.07351472973823547,-0.02583486959338188,0.3109981417655945,0.41540732979774475,0.6062843799591064,-9.829504013061523
1745733684.3493717,-0.07317007333040237,-0.024350283667445183,0.3079879879951477,0.4993339478969574,0.19580572843551636,-9.877768516540527
1745733684.3495312,-0.07950156927108765,-0.02684823051095009,0.3099782466888428,0.555605411529541,0.6104665398597717,-9.713886260986328
1745733684.382874,-0.09588105231523514,-0.027843350544571877,0.3343764543533325,0.47419628500938416,0.6746459007263184,-9.915558815002441
1745733684.3859239,-0.10979248583316803,-0.02290746010839939,0.33698999881744385,0.5388510823249817,0.4876326620578766,-9.821118354797363
1745733684.3890002,-0.09286350756883621,-0.031239643692970276,0.3365899920463562,0.33742666244506836,0.7421141862869263,-9.596342086791992
1745733684.3918328,-0.10317269712686539,-0.028204312548041344,0.33718341588974,0.587469220161438,0.4570547938346863,-9.755319595336914
1745733684.431748,-0.10784230381250381,-0.027167391031980515,0.3382585644721985,0.4749060273170471,0.733294665813446,-9.981451034545898
1745733684.4318182,-0.0927772969007492,-0.022757835686206818,0.33759722113609314,0.42183589935302734,0.5375298261642456,-9.839475631713867
1745733684.4318812,-0.11520340293645859,-0.032747797667980194,0.3376539647579193,0.4833570122718811,0.6635509729385376,-9.601896286010742
1745733684.4319339,-0.0921037569642067,-0.025162622332572937,0.33738499879837036,0.41923242807388306,0.597408652305603,-9.801669120788574
1745733684.434545,-0.11834536492824554,-0.023872002959251404,0.3388838768005371,0.5454351305961609,0.6400291323661804,-9.878108978271484
1745733684.4692824,-0.09542206674814224,-0.027807623147964478,0.3385263979434967,0.3544021248817444,0.6871703863143921,-9.825923919677734
1745733684.4705818,-0.10868923366069794,-0.026081791147589684,0.33928853273391724,0.5913005471229553,0.5560895204544067,-9.758851051330566
1745733684.475841,-0.09123481810092926,-0.03027571178972721,0.3388647437095642,0.40451478958129883,0.9661674499511719,-9.799173355102539
1745733684.4785156,-0.09224939346313477,-0.024535223841667175,0.3326626420021057,0.14048054814338684,0.7040324211120605,-10.008551597595215
1745733684.5130718,-0.08206836879253387,-0.04070470482110977,0.32779914140701294,0.1909906417131424,1.006447672843933,-9.532289505004883
1745733684.515193,-0.06569059193134308,-0.029325265437364578,0.3247261643409729,0.13525958359241486,0.7506523132324219,-9.656923294067383
1745733684.5200548,-0.0704030692577362,-0.0324728861451149,0.32106056809425354,0.06808475404977798,0.8632402420043945,-9.906294822692871
1745733684.5234046,-0.05594397708773613,-0.03615836054086685,0.3182338774204254,-0.08528696745634079,0.49237027764320374,-9.89813232421875
1745733684.5565455,-0.055258702486753464,-0.02543758787214756,0.3167778551578522,0.3150903582572937,0.3087887465953827,-9.479497909545898
1745733684.5595186,-0.08333851397037506,-0.027922507375478745,0.31870168447494507,0.208266943693161,0.4695705771446228,-9.673826217651367
1745733684.5645258,-0.08925609290599823,-0.039773039519786835,0.3207997679710388,0.45203477144241333,-0.09373496472835541,-10.126482009887695
1745733684.5675058,-0.10291876643896103,-0.031188657507300377,0.31851980090141296,0.41407933831214905,0.6216071248054504,-9.77614974975586
1745733684.570234,-0.1285581886768341,-0.028358304873108864,0.316579669713974,0.1996031105518341,0.21470901370048523,-9.68604850769043
1745733684.6015723,-0.10887859761714935,-0.042342785745859146,0.30133289098739624,0.10877196490764618,1.130730390548706,-9.533102989196777
1745733684.6035578,-0.09361709654331207,-0.04005536064505577,0.30267760157585144,0.4749153256416321,1.0653736591339111,-9.42813491821289
1745733684.6061664,-0.0728769525885582,-0.0432051345705986,0.3006748557090759,0.2932029068470001,1.3594744205474854,-10.004531860351562
1745733684.641257,-0.03691883385181427,-0.04380721598863602,0.30110102891921997,0.2935822904109955,0.7155171632766724,-10.219012260437012
1745733684.6431923,-0.020866921171545982,-0.04207408428192139,0.3015732765197754,0.33402860164642334,1.1458662748336792,-9.416329383850098
1745733684.6451328,-0.026946324855089188,-0.033824436366558075,0.29818543791770935,0.13953900337219238,0.6255460381507874,-9.437936782836914
1745733684.6460142,-0.035049788653850555,-0.04519002512097359,0.30184823274612427,0.37645864486694336,0.3442241847515106,-9.895721435546875
1745733684.6485732,-0.038384389132261276,-0.03838401287794113,0.30539998412132263,0.5031691789627075,0.5256417989730835,-9.852507591247559
1745733684.689776,-0.07799563556909561,-0.025861363857984543,0.3064228296279907,0.5874755382537842,-0.05922703072428703,-9.858577728271484
1745733684.689902,-0.10777930170297623,-0.032273612916469574,0.30933812260627747,0.6078124046325684,0.4522954821586609,-9.468304634094238
1745733684.6899993,-0.11530119180679321,-0.03893344849348068,0.31241583824157715,0.9586421251296997,0.11785268783569336,-9.71998405456543
1745733684.6942594,-0.14557978510856628,-0.03411572799086571,0.31431829929351807,0.7041308283805847,0.9893032312393188,-10.212679862976074
1745733684.730039,-0.1282908171415329,-0.03230562433600426,0.31756478548049927,0.43431907892227173,0.6122000813484192,-10.129866600036621
1745733684.7326849,-0.05764270946383476,-0.009602589532732964,0.3423152565956116,0.5105706453323364,0.6808058023452759,-9.858759880065918
1745733684.7358148,-0.027974313125014305,-0.014663887210190296,0.3446226716041565,0.4077926576137543,1.0949575901031494,-9.658114433288574
1745733684.7408125,-0.03574129194021225,-0.004620660096406937,0.3436144292354584,0.46407562494277954,0.851579487323761,-9.712069511413574
1745733684.770843,-0.0204709954559803,-0.01579398289322853,0.3455725610256195,0.3687153458595276,1.080934762954712,-9.73883056640625
1745733684.77309,0.0002708181564230472,-0.010591543279588223,0.34384647011756897,0.34272754192352295,0.8807225227355957,-9.774124145507812
1745733684.775217,-0.019272606819868088,-0.009674943052232265,0.3431064486503601,0.5594426989555359,0.7729588747024536,-9.656075477600098
1745733684.7766943,-4.140939563512802e-05,-0.008774111047387123,0.3442966043949127,0.3791256248950958,0.7337456345558167,-9.767536163330078
1745733684.8150206,-0.02381521463394165,-0.013049584813416004,0.3458552956581116,0.5324031114578247,0.556117594242096,-9.726852416992188
1745733684.8172832,-0.02544330433011055,-0.013076385483145714,0.3472678065299988,0.4327273964881897,0.6394990682601929,-9.747377395629883
1745733684.8324943,-0.035899315029382706,-0.006425922270864248,0.34832391142845154,0.5349649786949158,0.5497866272926331,-9.736532211303711
1745733684.8325896,-0.054171472787857056,-0.012326030991971493,0.34740012884140015,0.4037627577781677,0.8180967569351196,-9.728837013244629
1745733684.8326924,-0.03869421035051346,-0.013716919347643852,0.347383975982666,0.4619731903076172,0.6483508348464966,-9.754424095153809
1745733684.858231,-0.05838196352124214,-0.01148279570043087,0.34570860862731934,0.5460894107818604,0.9782453775405884,-9.699502944946289
1745733684.8606331,-0.03240872919559479,-0.007748001720756292,0.34800076484680176,0.2663061022758484,0.9204319715499878,-9.806096076965332
1745733684.863082,-0.04138680920004845,-0.01325128972530365,0.3475129008293152,0.4435126781463623,0.8228054046630859,-9.671130180358887
1745733684.8673928,-0.015509745106101036,-0.011751646175980568,0.35049906373023987,0.4383912980556488,1.1471378803253174,-9.562715530395508
1745733684.8984015,-0.023149622604250908,-0.00658321613445878,0.3496702313423157,0.5141972899436951,0.7762428522109985,-9.848455429077148
1745733684.9013247,-0.003517553675919771,-0.016496052965521812,0.35112014412879944,0.4354431629180908,1.1935094594955444,-9.797279357910156
1745733684.9059627,-0.00018759742670226842,-0.012835541740059853,0.34866008162498474,0.5632055997848511,0.7128039002418518,-9.780084609985352
1745733684.9073532,-0.0050800577737390995,-0.013514977879822254,0.348652720451355,0.4702189862728119,0.9965949058532715,-9.675002098083496
1745733684.9087684,-0.006021679844707251,-0.010949069634079933,0.34861132502555847,0.3792194426059723,0.6727909445762634,-9.763324737548828
1745733684.9419215,-0.01729259453713894,-0.020765502005815506,0.34895554184913635,0.5789996981620789,0.6630620956420898,-9.690153121948242
1745733684.9450595,-0.014261198230087757,-0.01244873832911253,0.34800490736961365,0.4220285415649414,0.8633729219436646,-9.792647361755371
1745733684.9502664,-0.015626808628439903,-0.01938268356025219,0.3499082922935486,0.37238165736198425,0.9806510806083679,-9.625101089477539
1745733684.9531207,-0.01908530667424202,-0.014066187664866447,0.35130733251571655,0.545129120349884,0.6143292188644409,-9.694174766540527
1745733684.9909585,-0.023385455831885338,-0.016588633880019188,0.3536131680011749,0.4251885414123535,0.9064898490905762,-9.833991050720215
1745733684.9934943,-0.0032056118361651897,-0.013216376304626465,0.35342222452163696,0.39593473076820374,0.8318452835083008,-9.767156600952148
1745733684.9950767,-0.023417381569743156,-0.020408645272254944,0.35459136962890625,0.4887069761753082,0.8100911974906921,-9.65090274810791
1745733684.999115,0.00479239784181118,-0.014886109158396721,0.35343465209007263,0.3564226031303406,0.9768303632736206,-9.718069076538086
1745733685.0299733,-0.025714853778481483,-0.014853553846478462,0.3514178395271301,0.5227615237236023,0.792546272277832,-9.786651611328125
1745733685.0343885,-0.000419739808421582,-0.020872168242931366,0.3505028486251831,0.40350955724716187,0.9330002665519714,-9.723236083984375
1745733685.0385568,-0.017389193177223206,-0.013724274933338165,0.3509754538536072,0.6023381948471069,0.7113157510757446,-9.714449882507324
1745733685.0420015,-0.015425297431647778,-0.019795812666416168,0.3510062098503113,0.4055763781070709,0.915278434753418,-9.800518989562988
1745733685.072048,-0.006285032723098993,-0.015349552035331726,0.35193026065826416,0.3914686441421509,0.6772357821464539,-9.745237350463867
1745733685.0748305,-0.01739675924181938,-0.02078128606081009,0.3531801104545593,0.5355850458145142,0.8840607404708862,-9.55375862121582
1745733685.0779505,-0.004455116577446461,-0.013818611390888691,0.3553839325904846,0.4015483856201172,0.8586913347244263,-9.819208145141602
1745733685.0780501,-0.009011970832943916,-0.02919290028512478,0.35532671213150024,0.46987634897232056,0.9564203023910522,-9.677125930786133
1745733685.081964,-0.006759680807590485,-0.01671954244375229,0.3559369444847107,0.4311344623565674,0.6601366996765137,-9.853548049926758
1745733685.1175854,-0.022283103317022324,-0.022912967950105667,0.35516759753227234,0.3726116120815277,0.8768692016601562,-9.75217342376709
1745733685.12062,0.002498627407476306,-0.02260425314307213,0.35535913705825806,0.3479381203651428,0.7999632954597473,-9.677348136901855
1745733685.1232827,-0.02139558084309101,-0.021868588402867317,0.35686296224594116,0.5501402020454407,0.8365259170532227,-9.697776794433594
1745733685.1265411,0.004063683561980724,-0.022955849766731262,0.3546988368034363,0.345267117023468,0.998274028301239,-9.895585060119629
1745733685.1575055,-0.014774267561733723,-0.02332277037203312,0.35306835174560547,0.4865291714668274,0.703376293182373,-9.876733779907227
1745733685.1600838,-0.00013407590449787676,-0.02219351753592491,0.3547830879688263,0.3695636987686157,0.9156826734542847,-9.594664573669434
1745733685.1622424,-0.006957147270441055,-0.021601717919111252,0.35375118255615234,0.49910229444503784,0.6654070019721985,-9.603666305541992
1745733685.164096,-0.02212044969201088,-0.02527330256998539,0.35329097509384155,0.41041702032089233,0.8628463745117188,-9.938817977905273
1745733685.167931,-0.0019459414761513472,-0.022913111373782158,0.35506367683410645,0.3986254632472992,0.7563601732254028,-9.933988571166992
1745733685.2025995,-0.02367231622338295,-0.021129537373781204,0.3553036153316498,0.4809642732143402,0.797931969165802,-9.51024055480957
1745733685.2048218,-0.005781980697065592,-0.021835576742887497,0.35569337010383606,0.31569546461105347,0.8898288011550903,-9.615351676940918
1745733685.2070112,-0.016117244958877563,-0.02442847564816475,0.3550605773925781,0.49181050062179565,0.6673415899276733,-9.996850967407227
1745733685.2084398,-0.009355836547911167,-0.022508587688207626,0.355560839176178,0.3706657886505127,1.0014288425445557,-9.868122100830078
1745733685.243752,-0.002227559220045805,-0.017842363566160202,0.3568900227546692,0.4681083559989929,0.7081243991851807,-9.568418502807617
1745733685.2451534,-0.015061981976032257,-0.02651510015130043,0.3540118932723999,0.3525741696357727,1.0391637086868286,-9.666746139526367
1745733685.2465367,0.0012289952719584107,-0.020221713930368423,0.3534717857837677,0.39990806579589844,0.6460061073303223,-9.991533279418945
1745733685.248857,-0.007957777939736843,-0.01949222758412361,0.355695903301239,0.524630069732666,0.9565839767456055,-9.660858154296875
1745733685.2521954,-0.0063170879147946835,-0.018282581120729446,0.35285741090774536,0.310086190700531,0.801284909248352,-9.683927536010742
1745733685.288125,-0.013279600068926811,-0.02829432114958763,0.3529875874519348,0.5273257493972778,0.7203014492988586,-9.735884666442871
1745733685.2914917,0.000567047274671495,-0.02342902310192585,0.3545020818710327,0.3770162761211395,0.9384343028068542,-9.832317352294922
1745733685.295296,-0.015094664879143238,-0.01371743530035019,0.35634148120880127,0.46056604385375977,0.6097514033317566,-9.80461311340332
1745733685.2989929,0.0005459802923724055,-0.024632487446069717,0.3571850061416626,0.35773420333862305,0.9845897555351257,-9.614232063293457
1745733685.331952,-0.00021712170564569533,-0.022791797295212746,0.3569405972957611,0.4663783013820648,0.7687219381332397,-9.726150512695312
1745733685.3375363,0.0009010943467728794,-0.023373426869511604,0.35848721861839294,0.4635463356971741,0.9373437762260437,-9.86540412902832
1745733685.3395326,0.00899849645793438,-0.019530970603227615,0.3535331189632416,0.30044829845428467,0.8761427998542786,-9.893280982971191
1745733685.3429883,-0.003045684192329645,-0.02419637329876423,0.35452017188072205,0.43884986639022827,0.7130686044692993,-9.600886344909668
1745733685.3722801,0.012624952010810375,-0.023066310212016106,0.3549322187900543,0.335665762424469,0.9324566721916199,-9.546361923217773
1745733685.3752909,-0.016667906194925308,-0.019213305786252022,0.3532646596431732,0.4710812568664551,0.5343749523162842,-9.970376968383789
1745733685.3840148,0.004496600478887558,-0.024957546964287758,0.3550150990486145,0.39437833428382874,0.9318448305130005,-9.82029914855957
1745733685.3841128,-0.009655837900936604,-0.020253758877515793,0.3563048243522644,0.4704398214817047,0.5879958868026733,-9.642308235168457
1745733685.3841805,-0.010235670953989029,-0.020377200096845627,0.3577524721622467,0.3860591948032379,0.9176999926567078,-9.603365898132324
