timestamp,angular_vel_x,angular_vel_y,angular_vel_z,linear_acc_x,linear_acc_y,linear_acc_z
1745733402.8201377,-0.0042273495346307755,-0.0022276726085692644,0.000525954004842788,0.012765524908900261,0.31767353415489197,-9.764439582824707
1745733402.8398733,0.010776295326650143,0.0006873740931041539,0.00015268882270902395,-0.10106810182332993,0.3271048367023468,-9.79691219329834
1745733402.8399339,-0.005221671890467405,-0.0022159493528306484,0.0018952175742015243,0.05113912746310234,0.21520264446735382,-9.796188354492188
1745733402.8399682,0.007009468041360378,-0.0023206595797091722,-0.00039341268711723387,-0.12571479380130768,0.4497087597846985,-9.761298179626465
1745733402.8495927,0.0008514637011103332,0.0011626598425209522,0.0011723277857527137,0.030672555789351463,0.11482025682926178,-9.828320503234863
1745733402.8534966,0.0014627774944528937,-0.0034521177876740694,0.0015340420650318265,-0.05122814327478409,0.43573054671287537,-9.75381851196289
1745733402.8549829,0.005891432520002127,0.0013649219181388617,0.0019739470444619656,-0.025961268693208694,0.16876381635665894,-9.795605659484863
1745733402.8570838,0.005688452627509832,-5.874093767488375e-05,-0.0016447121743112803,-0.07608439028263092,0.40026864409446716,-9.77662181854248
1745733402.8594403,-0.0017915995558723807,0.001939439564011991,-0.00043611429282464087,0.051597170531749725,0.13382366299629211,-9.8016996383667
1745733402.8959196,0.0015948184300214052,-0.002313577104359865,0.0008510808693245053,-0.0917564257979393,0.44490402936935425,-9.773706436157227
1745733402.8959775,0.0014002823736518621,0.0039816307835280895,0.0005470938049256802,-0.047033537179231644,0.10973744094371796,-9.826481819152832
1745733402.8987873,-0.006244347430765629,-0.003156279679387808,-0.0014926418662071228,0.0896427184343338,0.3557215631008148,-9.74632453918457
1745733402.9020844,-0.0077368817292153835,0.00323895993642509,-0.003005737904459238,-0.14710982143878937,0.3003568947315216,-9.758256912231445
1745733402.9391336,-0.0030324584804475307,0.003522536251693964,0.005284258630126715,0.04193069413304329,0.053028203547000885,-9.763425827026367
1745733402.9398427,0.0032434549648314714,-0.006829944904893637,0.009495964273810387,0.09251304715871811,0.626625657081604,-9.70055103302002
1745733402.9402692,0.01190854050219059,-0.00645303213968873,0.0005238878657110035,-0.27787524461746216,0.16589485108852386,-10.299287796020508
1745733402.9439032,0.017543163150548935,0.017369333654642105,0.0015448633348569274,-0.1165248304605484,0.6143037676811218,-9.5045166015625
1745733402.9840853,0.002278133761137724,-0.006147111766040325,0.006481469608843327,0.20782825350761414,0.21006035804748535,-9.383394241333008
1745733402.9842992,0.011439995840191841,-0.005329008214175701,0.0016743842279538512,0.012233367189764977,0.29414117336273193,-10.023449897766113
1745733402.9843836,-0.00527301337569952,0.006668759044259787,-0.0007739089196547866,-0.017603257670998573,0.06961459666490555,-9.964081764221191
1745733402.985962,-0.03617091849446297,0.006256020162254572,-0.001082424190826714,-0.05406041815876961,0.03409313037991524,-9.717907905578613
1745733402.9893706,0.019923174753785133,-0.0037368678022176027,0.001997557934373617,0.13397440314292908,0.7308101654052734,-9.411127090454102
1745733403.028162,-0.029772037640213966,-0.003994758240878582,0.0021192540880292654,0.03747456520795822,0.13208642601966858,-10.230836868286133
1745733403.0282366,-0.0003368855104781687,0.01373335998505354,0.006168299354612827,-0.17452052235603333,0.20038780570030212,-9.974494934082031
1745733403.0291958,-0.024140000343322754,0.0033866495359688997,0.00898834504187107,0.21288271248340607,-0.055186428129673004,-9.12085247039795
1745733403.031007,-0.016018042340874672,-0.006041871849447489,0.012790828943252563,0.05322594568133354,0.44182342290878296,-9.566146850585938
1745733403.113388,-0.03369145467877388,0.013528093695640564,0.019605401903390884,0.14549241960048676,-0.2368880808353424,-10.639029502868652
1745733403.11407,-0.0300728939473629,0.02117994800209999,0.028782755136489868,0.023748431354761124,-0.06561267375946045,-9.627328872680664
1745733403.114192,-0.06450531631708145,0.03227119892835617,0.03986969590187073,0.17619220912456512,-0.13297127187252045,-8.504156112670898
1745733403.1906824,-0.0912875309586525,0.007307293359190226,0.0493718683719635,0.6393704414367676,-0.3085635304450989,-9.72608757019043
1745733403.1979485,-0.08864334970712662,0.025567632168531418,0.06113133579492569,0.2548394501209259,0.1211320161819458,-11.029745101928711
1745733403.2001922,-0.10860122740268707,0.04486986994743347,0.06567356735467911,0.26021450757980347,0.2984672486782074,-9.759495735168457
1745733403.2005932,-0.1010449156165123,0.006664407905191183,0.06334240734577179,0.2163945734500885,1.2415663003921509,-8.695075988769531
1745733403.219354,-0.05180889368057251,-0.007924249395728111,0.055565476417541504,0.3015402555465698,1.5690338611602783,-10.257200241088867
1745733403.2213192,-0.03622952848672867,-0.005414541810750961,0.04064418375492096,0.1335432231426239,1.8245296478271484,-11.441376686096191
1745733403.2230146,0.033519480377435684,0.002365643624216318,0.0317443385720253,-0.21678893268108368,1.4451942443847656,-9.947530746459961
1745733403.2231407,0.02618895098567009,-0.006402057595551014,0.024092499166727066,-0.2086985558271408,1.1018564701080322,-8.26172161102295
1745733403.2269845,0.045915644615888596,-0.012794350273907185,0.02381821535527706,-0.32025617361068726,0.5749511122703552,-9.390118598937988
1745733403.247623,0.03002334199845791,0.017519144341349602,0.02955293096601963,0.10304965823888779,0.09031878411769867,-10.52369213104248
1745733403.2489145,0.05281789228320122,0.034125469624996185,0.03663666918873787,0.2229909896850586,0.16997775435447693,-9.545019149780273
1745733403.2617295,0.021225012838840485,0.03760412707924843,0.058845121413469315,0.5155965685844421,-0.4785881042480469,-8.77700138092041
1745733403.2618167,0.0076250433921813965,0.01723596453666687,0.07721896469593048,0.7918267250061035,-0.3517356514930725,-9.829994201660156
1745733403.2633462,-0.006428956985473633,0.060720574110746384,0.08900110423564911,0.5471034646034241,-0.635009229183197,-10.692898750305176
1745733403.2938697,0.041114967316389084,0.1061522513628006,0.2584761083126068,0.15583720803260803,1.2634977102279663,-11.050198554992676
1745733403.2983015,0.06253590434789658,0.11697153747081757,0.23689119517803192,0.18594226241111755,1.2601317167282104,-8.430731773376465
1745733403.3227286,-0.035823509097099304,0.10473674535751343,0.2303822934627533,0.6317475438117981,-0.804305911064148,-8.501886367797852
1745733403.3251026,-0.09953583776950836,0.08235134184360504,0.23716792464256287,0.6086805462837219,-0.9990091323852539,-10.646721839904785
1745733403.3495524,-0.20494213700294495,0.13170185685157776,0.2557157874107361,0.24146458506584167,-1.6246875524520874,-10.714981079101562
1745733403.3495884,-0.21805913746356964,0.14200526475906372,0.2652471661567688,0.9012627601623535,0.30353522300720215,-7.774850368499756
1745733403.3528218,-0.26193174719810486,0.07146713882684708,0.25755494832992554,0.9050496816635132,1.6031494140625,-9.184402465820312
1745733403.3626835,-0.17230969667434692,0.06295620650053024,0.2359699308872223,0.9539706110954285,1.9650013446807861,-12.884603500366211
1745733403.373114,-0.02948082983493805,0.11544501781463623,0.23048952221870422,-0.07369748502969742,2.968799591064453,-11.319219589233398
1745733403.384674,0.04216132313013077,0.1318136751651764,0.2448282688856125,-1.2982778549194336,0.9054040908813477,-6.887075901031494
1745733403.3931646,0.03782948851585388,0.09748668968677521,0.2698875069618225,0.385256826877594,-0.2420879304409027,-5.731769561767578
1745733403.3961086,-0.020133905112743378,0.08004699647426605,0.296489417552948,1.4416420459747314,-0.7251496315002441,-12.091414451599121
1745733403.416858,-0.020449506118893623,0.14047695696353912,0.2952481806278229,1.002310037612915,0.40515127778053284,-13.961766242980957
1745733403.423689,-0.040138207376003265,0.13621702790260315,0.2826599180698395,0.8845902681350708,0.6041696071624756,-7.935254096984863
1745733403.427128,-0.1346573531627655,0.0876942127943039,0.2712588608264923,1.2699899673461914,0.2043541967868805,-6.17300271987915
1745733403.428379,-0.15367676317691803,0.06948000192642212,0.27060920000076294,1.229325294494629,0.04053431749343872,-11.464315414428711
1745733403.4311092,-0.19611594080924988,0.11195015907287598,0.2805801033973694,0.48722225427627563,-0.14428754150867462,-13.325895309448242
1745733403.4322357,-0.13683275878429413,0.1478346586227417,0.29935869574546814,-0.05670340731739998,0.2307543009519577,-7.651963710784912
1745733403.4350617,-0.18885734677314758,0.1022871881723404,0.3173597753047943,0.3041611313819885,0.15300503373146057,-5.349872589111328
1745733403.4373045,-0.1750260442495346,0.06501948088407516,0.32587963342666626,0.7371271848678589,1.3110358715057373,-11.326858520507812
1745733403.4402578,-0.06789712607860565,0.1518116295337677,0.3222147226333618,0.4975869059562683,1.7206748723983765,-14.100336074829102
1745733403.442533,-0.005081954412162304,0.15593764185905457,0.3207499086856842,0.23583149909973145,0.8373138308525085,-7.75900411605835
1745733403.4439125,-0.10842955112457275,0.08827970176935196,0.3270115852355957,0.3687717914581299,0.0007362485048361123,-5.72644567489624
1745733403.459059,-0.148753359913826,0.14914150536060333,0.33601802587509155,0.2900245189666748,0.4508849084377289,-12.9988431930542
1745733403.4595482,-0.19560930132865906,0.1759130209684372,0.3380327522754669,0.5439954400062561,-0.04902203753590584,-7.815408229827881
1745733403.461205,-0.24515068531036377,0.10087165981531143,0.34430789947509766,1.58009672164917,0.10744519531726837,-6.234904766082764
1745733403.496273,-0.25032514333724976,0.08610893785953522,0.347889244556427,1.0327718257904053,1.2704201936721802,-11.904417991638184
1745733403.4981287,-0.1978600174188614,0.14693523943424225,0.3459843099117279,0.7420216798782349,1.281632900238037,-13.436701774597168
1745733403.501213,-0.12622734904289246,0.15508051216602325,0.35786116123199463,0.1967146098613739,1.2865253686904907,-7.715277194976807
1745733403.5024743,-0.1192966103553772,0.11439941823482513,0.3684287667274475,0.41442957520484924,1.6081418991088867,-6.068051338195801
1745733403.50542,-0.062038809061050415,0.09695397317409515,0.3728647828102112,0.5758556127548218,1.8457609415054321,-11.258817672729492
1745733403.5392485,0.025054950267076492,0.15570685267448425,0.368989497423172,0.5276575088500977,1.9158809185028076,-12.959569931030273
1745733403.5402906,0.0634203627705574,0.1614297330379486,0.3669756352901459,0.6226133108139038,1.4291912317276,-8.353141784667969
1745733403.5424547,0.05183959752321243,0.10753878206014633,0.36541885137557983,0.7665661573410034,0.43466266989707947,-6.9047064781188965
1745733403.5455952,-0.014005077071487904,0.1012900099158287,0.37054070830345154,1.0306646823883057,0.27640292048454285,-11.303823471069336
1745733403.5814764,0.011720315553247929,0.1444661170244217,0.37116122245788574,0.9006465673446655,0.1649762988090515,-12.454416275024414
1745733403.5848937,0.11357047408819199,-0.03398522734642029,0.384622186422348,0.34751200675964355,-0.0625879317522049,-10.33962345123291
1745733403.5876935,0.22240230441093445,-0.017470017075538635,0.3919502794742584,0.565581738948822,-0.8127039670944214,-10.931894302368164
1745733403.5893004,0.1671185940504074,-0.01093785185366869,0.39825671911239624,0.8769083023071289,0.22374768555164337,-9.040693283081055
1745733403.6237257,0.033455803990364075,-0.03920576721429825,0.4078819155693054,0.1455143541097641,-1.7475948333740234,-10.281839370727539
1745733403.62857,0.09210243821144104,-0.036165304481983185,0.3927932381629944,0.5131358504295349,0.976182758808136,-9.599908828735352
1745733403.6321752,-0.021267440170049667,-0.022497734054923058,0.36104509234428406,0.91108238697052,0.7357364296913147,-9.244166374206543
1745733403.635498,0.06005774065852165,-0.04753061383962631,0.3384811282157898,0.6156244277954102,1.590652585029602,-10.057063102722168
1745733403.6418886,-0.012433469295501709,-0.07634671032428741,0.31976208090782166,1.0525643825531006,0.7991802096366882,-10.601305961608887
1745733403.6671236,0.12185074388980865,-0.03995062783360481,0.3193298280239105,0.561301589012146,1.2480205297470093,-9.94177532196045
1745733403.668164,0.0328553169965744,-0.05750861018896103,0.32086455821990967,0.6908199191093445,0.9251149296760559,-9.206151962280273
1745733403.6701798,0.1752042919397354,-0.07420438528060913,0.32407790422439575,1.0606958866119385,0.8887810707092285,-9.787550926208496
1745733403.6735585,0.20685303211212158,-0.07216189801692963,0.3176237940788269,0.986120343208313,2.765510082244873,-10.339856147766113
1745733403.7102273,0.2673892676830292,-0.06264013051986694,0.30396872758865356,0.892823338508606,1.3564741611480713,-10.60981273651123
1745733403.715328,0.40637922286987305,-0.08179712295532227,0.29144224524497986,0.39068377017974854,2.191185712814331,-9.119688034057617
1745733403.716441,0.2858503460884094,-0.10174071788787842,0.27974453568458557,0.5779626965522766,-0.12251591682434082,-9.745004653930664
1745733403.720311,0.35161566734313965,-0.08545663207769394,0.2743365168571472,-0.08914382755756378,-0.052089907228946686,-10.471526145935059
1745733403.7237725,0.2226092368364334,-0.06707973778247833,0.26334089040756226,0.24610427021980286,-0.259823739528656,-9.72174072265625
1745733403.7543645,0.23384352028369904,-0.06936070322990417,0.24284832179546356,1.2397910356521606,0.19388268887996674,-8.546549797058105
1745733403.7559693,0.15400049090385437,-0.09589654207229614,0.22568805515766144,1.7548366785049438,0.04398702457547188,-10.100347518920898
1745733403.758558,0.17564979195594788,-0.09969614446163177,0.22043509781360626,1.69716477394104,-0.038464199751615524,-11.622776985168457
1745733403.7586088,0.17449377477169037,-0.07821684330701828,0.2228078842163086,0.8837170600891113,0.010008526034653187,-10.169408798217773
1745733403.7980824,0.15775994956493378,-0.08934486657381058,0.23258617520332336,0.4560045599937439,-0.5501421093940735,-8.38554573059082
1745733403.8000216,0.179340198636055,-0.08846797049045563,0.23578867316246033,0.35791298747062683,0.7864305377006531,-8.888236045837402
1745733403.8015785,0.17718549072742462,-0.07987775653600693,0.22345206141471863,0.6321471929550171,1.033820629119873,-11.144031524658203
1745733403.8026512,0.2834179401397705,-0.06733915954828262,0.1955600082874298,0.5302749872207642,2.370269536972046,-10.272055625915527
1745733403.8039682,0.2726556062698364,-0.07816751301288605,0.1668700873851776,0.6331976056098938,1.1778981685638428,-8.876063346862793
1745733403.8396103,0.3151518404483795,-0.09798502922058105,0.1555912345647812,1.0503103733062744,0.7248288989067078,-9.375834465026855
1745733403.8425274,0.27395105361938477,-0.07831022143363953,0.14725975692272186,1.0975620746612549,-0.18589039146900177,-11.09217357635498
1745733403.8441231,0.2686411440372467,-0.07217644155025482,0.1542634665966034,1.1501057147979736,-0.43402767181396484,-10.428861618041992
1745733403.846184,0.25861600041389465,-0.06795239448547363,0.15811286866664886,1.0167551040649414,0.3015921115875244,-8.570939064025879
1745733403.8826716,0.233389213681221,-0.08919233083724976,0.15281948447227478,1.1598517894744873,0.187397763133049,-9.35933780670166
1745733403.8846273,0.2915971279144287,-0.08671838045120239,0.14164546132087708,0.9214516878128052,1.411583662033081,-10.893714904785156
1745733403.8874283,0.27909034490585327,-0.06940041482448578,0.12064500153064728,0.49730294942855835,0.6996840834617615,-10.879777908325195
1745733403.8890054,0.3457532823085785,-0.0790940597653389,0.10846062004566193,0.1133095994591713,0.9917961359024048,-8.667623519897461
1745733403.9313874,0.31769299507141113,-0.07370218634605408,0.09893036633729935,0.12164763361215591,0.39851391315460205,-8.82296371459961
1745733403.9314687,0.3485105633735657,-0.07224644720554352,0.09577035158872604,0.5414909720420837,0.2857286334037781,-10.436197280883789
1745733403.9351761,0.2986655533313751,-0.0047324784100055695,-0.08713023364543915,0.5958216786384583,-0.6261245012283325,-9.397172927856445
1745733403.935282,0.29644882678985596,-0.010934585705399513,-0.09206904470920563,0.8575325012207031,-0.5802100300788879,-9.657186508178711
1745733403.9682164,0.28856295347213745,-0.0013276280369609594,-0.09356848895549774,0.7668941617012024,-0.734650194644928,-10.071428298950195
1745733403.970749,0.25469470024108887,-3.0571573006454855e-05,-0.0970350056886673,0.890484631061554,-0.9365471601486206,-9.767207145690918
1745733403.9723098,0.26003044843673706,0.000300576735753566,-0.09893590211868286,0.691351056098938,-0.539276123046875,-9.311153411865234
1745733403.9743397,0.21921995282173157,-0.004215113818645477,-0.10519184917211533,0.7538232207298279,-0.9116111993789673,-9.709922790527344
1745733403.9760056,0.24276351928710938,-0.0032527383882552385,-0.11089777946472168,0.5340121388435364,-0.18902793526649475,-9.901601791381836
1745733404.020163,0.22850504517555237,0.005226754583418369,-0.11462904512882233,0.5266267657279968,-0.4598833918571472,-9.75204086303711
1745733404.0275815,0.25080180168151855,0.0027634543366730213,-0.12128834426403046,0.5219390988349915,-0.26358047127723694,-9.273773193359375
1745733404.0303426,0.2602666914463043,0.004377506207674742,-0.12412635236978531,0.4399055540561676,-0.35096102952957153,-9.570600509643555
1745733404.030454,0.2582208514213562,0.0004834116843994707,-0.1254698634147644,0.8193653225898743,-0.7356248497962952,-10.032641410827637
1745733404.0539303,0.28146761655807495,0.007238437421619892,-0.1268714964389801,0.6392128467559814,-0.5703037977218628,-9.855155944824219
1745733404.0581925,0.2506938576698303,0.0024862790014594793,-0.125538170337677,0.7954300045967102,-1.134735345840454,-9.524179458618164
1745733404.058287,0.25237053632736206,-0.0021675447933375835,-0.1280151605606079,0.7134111523628235,-0.7116851806640625,-9.460108757019043
1745733404.0592752,0.2067166268825531,0.0018053653184324503,-0.13242974877357483,0.7854337692260742,-1.0909955501556396,-9.95181655883789
1745733404.0614707,0.21467454731464386,0.0019266229355707765,-0.13914784789085388,0.7305124998092651,-0.6828279495239258,-9.745390892028809
1745733404.1024768,0.18725304305553436,0.006595709826797247,-0.1443091481924057,0.5633785724639893,-0.7566360235214233,-9.4498291015625
1745733404.1085443,0.16858771443367004,-0.0036315075121819973,-0.15141117572784424,0.7380448579788208,-0.8771573305130005,-9.558930397033691
1745733404.108601,0.19331274926662445,0.007346510887145996,-0.15237638354301453,0.47870415449142456,-0.4895055890083313,-9.751785278320312
1745733404.110693,0.1679793745279312,0.003140796674415469,-0.15543638169765472,0.6904066801071167,-0.8820368051528931,-9.82161808013916
1745733404.1415622,0.20972514152526855,0.008355142548680305,-0.1547337919473648,0.5324881672859192,-0.4288603663444519,-9.452305793762207
1745733404.1430128,0.18903467059135437,0.0063479505479335785,-0.15607742965221405,0.6513903141021729,-0.864608883857727,-9.523103713989258
1745733404.1455884,0.21027407050132751,0.0035008075647056103,-0.15414564311504364,0.6963837742805481,-0.5311660766601562,-9.6948881149292
1745733404.1486607,0.21071341633796692,0.013799773529171944,-0.16013553738594055,0.631067156791687,-0.8035354614257812,-9.859357833862305
1745733404.1494212,0.19693101942539215,0.006876848638057709,-0.16350142657756805,0.6927887797355652,-0.8771006464958191,-9.574204444885254
1745733404.1940196,0.1937621831893921,0.008977231569588184,-0.16838407516479492,0.623704195022583,-0.7857292890548706,-9.451501846313477
1745733404.194179,0.15196725726127625,0.003059949027374387,-0.1724168211221695,0.7719115018844604,-1.2627004384994507,-9.830180168151855
1745733404.1942785,0.1702548712491989,0.00920771062374115,-0.17644493281841278,0.5828344225883484,-0.7312348484992981,-9.845049858093262
1745733404.1943555,0.12443236261606216,0.009147433564066887,-0.17807932198047638,0.6991152763366699,-1.1200354099273682,-9.6586275100708
1745733404.2283037,0.14557066559791565,0.0027761070523411036,-0.18123145401477814,0.7068221569061279,-0.839553713798523,-9.364656448364258
1745733404.2309093,0.13125395774841309,0.009631688706576824,-0.17993417382240295,0.608693540096283,-0.8590133786201477,-9.716203689575195
1745733404.2330644,0.13766583800315857,0.002692090580239892,-0.18125054240226746,0.7258492112159729,-0.8183199763298035,-9.982711791992188
1745733404.2346997,0.15912136435508728,0.012174295261502266,-0.18267183005809784,0.4681094288825989,-0.6598919034004211,-9.642521858215332
1745733404.2689276,0.13755811750888824,0.0033355685882270336,-0.18386928737163544,0.628717303276062,-0.9249618649482727,-9.492650032043457
1745733404.2709582,0.16080047190189362,0.003705871058627963,-0.18811485171318054,0.5369380712509155,-0.6752029657363892,-9.645654678344727
1745733404.273681,0.12502305209636688,0.006319285836070776,-0.19093744456768036,0.7307469248771667,-1.1662187576293945,-9.949079513549805
1745733404.2762592,-0.003282324643805623,-0.0066703809425234795,-0.24190397560596466,0.6877213716506958,-0.9735568165779114,-9.818991661071777
1745733404.3118968,0.011116000823676586,-0.00730177154764533,-0.24175162613391876,0.5756052732467651,-1.0969533920288086,-9.798503875732422
1745733404.3153949,-0.007628495339304209,-0.0018583619967103004,-0.2443954199552536,0.736685037612915,-1.0964184999465942,-9.63785171508789
1745733404.31586,-0.00807235762476921,-0.011881483718752861,-0.24245981872081757,0.6172052621841431,-0.941860020160675,-9.640503883361816
1745733404.3190415,-0.013560637831687927,-0.0013937157345935702,-0.24517817795276642,0.6838167905807495,-1.1631057262420654,-9.820419311523438
1745733404.3208299,-0.016046594828367233,-0.00807606615126133,-0.24568545818328857,0.5952214002609253,-0.8637612462043762,-9.806666374206543
1745733404.3584313,-0.010977060534060001,-0.0037699430249631405,-0.24662871658802032,0.5800675749778748,-1.0207390785217285,-9.762319564819336
1745733404.3593898,-0.02880941890180111,-0.012670907191932201,-0.24731485545635223,0.6663960814476013,-0.8884986042976379,-9.76860523223877
1745733404.3611684,0.005460759159177542,-0.005888394080102444,-0.24709410965442657,0.4725310802459717,-0.930925726890564,-9.809234619140625
1745733404.363248,-0.01389473956078291,-0.005079537630081177,-0.2482394427061081,0.6401168704032898,-0.9480969309806824,-9.61241626739502
1745733404.3987179,-0.006353974342346191,-0.009742533788084984,-0.2505055069923401,0.6285340785980225,-0.8602393269538879,-9.630760192871094
1745733404.400901,-0.005772539414465427,-0.0020804787054657936,-0.24911408126354218,0.7415193319320679,-1.146986722946167,-9.793440818786621
1745733404.4050114,-0.01842156983911991,-0.011752643622457981,-0.2534482479095459,0.6103858947753906,-0.806285560131073,-9.857752799987793
1745733404.4084623,-0.012595808133482933,-0.008432361297309399,-0.2540992498397827,0.7119332551956177,-1.2581400871276855,-9.863404273986816
1745733404.4137447,-0.03455024212598801,-0.01462043821811676,-0.25405487418174744,0.7031630277633667,-1.036056399345398,-9.67304801940918
1745733404.4428337,-0.02510775998234749,-0.013375809416174889,-0.25264886021614075,0.5482928156852722,-1.0745385885238647,-9.802152633666992
1745733404.4443214,-0.052018921822309494,-0.014823252335190773,-0.2540435194969177,0.7171157598495483,-1.055330514907837,-9.796937942504883
1745733404.4479637,-0.03290526941418648,-0.013308736495673656,-0.25547537207603455,0.5247431993484497,-0.8505967855453491,-9.664163589477539
1745733404.4487865,-0.03995078057050705,-0.011865103617310524,-0.25693804025650024,0.7220457196235657,-0.9443303942680359,-9.636381149291992
1745733404.4850686,-0.04121469706296921,-0.01835349202156067,-0.2591082453727722,0.5309476852416992,-0.6647065877914429,-9.74276351928711
1745733404.4872935,-0.027416342869400978,-0.0126646114513278,-0.2603934109210968,0.6654052734375,-1.1508926153182983,-9.943479537963867
1745733404.4892175,-0.033013716340065,-0.015891052782535553,-0.2596050500869751,0.607082188129425,-0.674959659576416,-9.715997695922852
1745733404.4936054,-0.022973880171775818,-0.017707405611872673,-0.2585813105106354,0.5926297903060913,-1.106176733970642,-9.695767402648926
1745733404.5282278,-0.038023557513952255,-0.016721896827220917,-0.26293429732322693,0.7413871884346008,-1.0536664724349976,-9.653373718261719
1745733404.5294771,-0.03570682182908058,-0.018685664981603622,-0.2650700509548187,0.5907425880432129,-0.7933034896850586,-9.633549690246582
1745733404.53232,-0.03810742124915123,-0.018341921269893646,-0.26426810026168823,0.6679213643074036,-1.1482304334640503,-9.86194133758545
1745733404.5355568,-0.04962119087576866,-0.02026389352977276,-0.2662579417228699,0.6126874685287476,-0.7922940254211426,-9.772887229919434
1745733404.5730145,-0.04128756374120712,-0.01695547066628933,-0.26553159952163696,0.5322830677032471,-1.1324129104614258,-9.813275337219238
1745733404.573905,-0.04492127150297165,-0.019729236140847206,-0.26513391733169556,0.6377614736557007,-0.7589766383171082,-9.561983108520508
1745733404.5755775,-0.036499373614788055,-0.022828301414847374,-0.26614731550216675,0.526225209236145,-0.8150898814201355,-9.734618186950684
1745733404.5777795,-0.03587961941957474,-0.020877685397863388,-0.26805227994918823,0.7540000081062317,-0.9616707563400269,-9.844480514526367
1745733404.6163683,-0.027531931176781654,-0.016975082457065582,-0.26745128631591797,0.5057722330093384,-0.5912062525749207,-9.738238334655762
1745733404.6195798,-0.03183051198720932,-0.021697407588362694,-0.26944097876548767,0.7115126848220825,-1.1206159591674805,-9.698040962219238
1745733404.6226163,-0.03130650520324707,-0.022635646164417267,-0.2688417434692383,0.5851678252220154,-0.684155285358429,-9.67146110534668
1745733404.625609,-0.029242277145385742,-0.022884303703904152,-0.2692071795463562,0.6231862902641296,-1.1329296827316284,-9.959101676940918
1745733404.6578763,-0.024188673123717308,-0.027233317494392395,-0.28235068917274475,0.6599869728088379,-1.0279806852340698,-9.869222640991211
1745733404.6608284,-0.009160768240690231,-0.031251080334186554,-0.284078985452652,0.594458281993866,-0.7239145040512085,-9.61447525024414
1745733404.6616163,-0.01243387721478939,-0.027330826967954636,-0.28379884362220764,0.534189760684967,-0.9028722047805786,-9.676307678222656
1745733404.6626744,-0.014684977941215038,-0.03424426540732384,-0.28385129570961,0.5508354902267456,-0.6637264490127563,-9.826532363891602
1745733404.664681,0.010758670046925545,-0.02760973572731018,-0.28077971935272217,0.5387713313102722,-0.77784663438797,-9.848467826843262
1745733404.703791,-0.0086235161870718,-0.03225477784872055,-0.2828645706176758,0.5587621927261353,-0.7631241083145142,-9.649608612060547
1745733404.7053294,0.021796658635139465,-0.031160986050963402,-0.2822706997394562,0.46180644631385803,-0.6694754362106323,-9.53011703491211
1745733404.7085743,0.0003376295499037951,-0.027379900217056274,-0.28349074721336365,0.6047776937484741,-0.8875116109848022,-9.741693496704102
1745733404.7122438,0.023234862834215164,-0.028225447982549667,-0.28426218032836914,0.47548922896385193,-0.6414128541946411,-9.79902458190918
1745733404.7459009,0.011289263144135475,-0.023913558572530746,-0.28633275628089905,0.6259974837303162,-0.8912509083747864,-9.67602825164795
1745733404.748858,-0.0016988518182188272,-0.03172237053513527,-0.287320077419281,0.5949147939682007,-0.7713584899902344,-9.743537902832031
1745733404.7525394,0.018908414989709854,-0.025651102885603905,-0.28780367970466614,0.6021624803543091,-0.9835548400878906,-9.849645614624023
1745733404.7551885,-0.013521738350391388,-0.033697497099637985,-0.28792649507522583,0.6490551233291626,-0.7932049632072449,-9.769988059997559
1745733404.7860458,0.01640542596578598,-0.027100497856736183,-0.28741368651390076,0.5076770782470703,-0.9334246516227722,-9.672285079956055
1745733404.7890291,-0.005969600286334753,-0.02458275854587555,-0.28662070631980896,0.5563440918922424,-0.7691271305084229,-9.564227104187012
1745733404.7907443,0.011503202840685844,-0.03177059441804886,-0.28702038526535034,0.52293860912323,-0.773235023021698,-9.712377548217773
1745733404.7931118,0.007302450481802225,-0.023692604154348373,-0.2852333188056946,0.5808018445968628,-0.864474892616272,-9.856952667236328
1745733404.7950397,0.012377189472317696,-0.031247127801179886,-0.2853303849697113,0.4783353805541992,-0.6087551116943359,-9.863932609558105
1745733404.8339472,0.019945038482546806,-0.024317029863595963,-0.2872895300388336,0.5230085253715515,-0.9048296809196472,-9.751643180847168
1745733404.8390324,0.0014180333819240332,-0.03261949494481087,-0.28756722807884216,0.5539497137069702,-0.6717318296432495,-9.62535572052002
1745733404.8427272,0.025470668449997902,-0.029319679364562035,-0.28824084997177124,0.565227746963501,-0.98542320728302,-9.753120422363281
1745733404.8447804,0.0037624023389071226,-0.029754500836133957,-0.28831323981285095,0.6632242798805237,-0.7971196174621582,-9.693041801452637
1745733404.8724997,0.01299333106726408,-0.027333443984389305,-0.2893127202987671,0.5692211389541626,-0.8422867655754089,-9.72083568572998
1745733404.8759875,0.018238719552755356,-0.02683868631720543,-0.2872665226459503,0.5865185260772705,-0.9293305277824402,-9.892677307128906
1745733404.8775856,0.00610216474160552,-0.030969342216849327,-0.28897666931152344,0.49809202551841736,-0.6124410033226013,-9.75401496887207
1745733404.87988,0.028315329924225807,-0.02860761620104313,-0.2895107567310333,0.4451215863227844,-0.8258670568466187,-9.628503799438477
1745733404.917209,0.0037399872671812773,-0.032313935458660126,-0.2903054654598236,0.5966068506240845,-0.7782357931137085,-9.608346939086914
1745733404.9310288,0.02709372341632843,-0.028152089565992355,-0.2900172770023346,0.5076117515563965,-0.8768267631530762,-9.79969596862793
1745733404.9311082,0.012536058202385902,-0.026498248800635338,-0.2915826439857483,0.7273615598678589,-0.920623779296875,-9.775769233703613
1745733404.931167,0.007227982394397259,-0.029180428013205528,-0.2902998924255371,0.49049797654151917,-0.8060625791549683,-9.720386505126953
1745733404.9320185,0.007758575025945902,-0.0263955257833004,-0.2884851396083832,0.6200887560844421,-1.1023211479187012,-9.767401695251465
1745733404.9595149,-0.0012308802688494325,-0.031212229281663895,-0.2892700731754303,0.48423728346824646,-0.6180523037910461,-9.779401779174805
1745733404.9640396,0.007029212079942226,-0.03019997477531433,-0.2906966805458069,0.532629668712616,-1.02392578125,-9.854246139526367
1745733404.9682581,0.00291906064376235,-0.0288840439170599,-0.28995782136917114,0.5982903242111206,-0.575538158416748,-9.646053314208984
1745733404.972516,0.012861465103924274,-0.0305701345205307,-0.2898474633693695,0.43399491906166077,-0.8433753848075867,-9.714090347290039
1745733405.0008986,0.004018671810626984,-0.03084006905555725,-0.29095810651779175,0.6003813147544861,-0.7781667113304138,-9.699867248535156
1745733405.0034924,0.009792769327759743,-0.02754196524620056,-0.2940683960914612,0.4469740390777588,-0.595582127571106,-9.646905899047852
1745733405.006255,-0.0029878972563892603,-0.022815091535449028,-0.2971173822879791,0.5317657589912415,-0.8946881294250488,-9.84010124206543
1745733405.0075994,0.0005518500693142414,-0.028735756874084473,-0.2992802560329437,0.47308045625686646,-0.6762923002243042,-9.842254638671875
1745733405.00883,0.023669099435210228,-0.02156708762049675,-0.2998744547367096,0.4019351899623871,-0.6724182963371277,-9.716283798217773
1745733405.0460415,0.0002544041781220585,-0.027307715266942978,-0.30027520656585693,0.6264077425003052,-0.7667080163955688,-9.599620819091797
1745733405.0487053,0.0301828570663929,-0.022680876776576042,-0.29986968636512756,0.4763661324977875,-0.8010470271110535,-9.714324951171875
1745733405.0497708,0.0023249229416251183,-0.021768469363451004,-0.29696863889694214,0.5331166982650757,-0.9334192276000977,-9.842133522033691
1745733405.0526762,0.025996793061494827,-0.023186445236206055,-0.29851919412612915,0.47182995080947876,-0.7447215914726257,-9.743975639343262
1745733405.0894492,0.006159866228699684,-0.021045442670583725,-0.29867318272590637,0.5528019666671753,-0.954771876335144,-9.713123321533203
1745733405.0907524,0.012549069710075855,-0.027926042675971985,-0.297812819480896,0.5206587314605713,-0.6682256460189819,-9.771261215209961
1745733405.0921154,0.01127940509468317,-0.022366786375641823,-0.3001426160335541,0.5053139925003052,-0.8893579244613647,-9.885924339294434
1745733405.0934892,-0.002262586262077093,-0.025106709450483322,-0.3019248843193054,0.5343248844146729,-0.7916879653930664,-9.665925979614258
1745733405.1311972,0.02166822925209999,-0.021665720269083977,-0.30057457089424133,0.42004767060279846,-0.8660165667533875,-9.550358772277832
1745733405.1347597,-0.009431373327970505,-0.02348649501800537,-0.2993529438972473,0.5644446611404419,-0.9298657178878784,-9.723588943481445
1745733405.1387835,0.014645936898887157,-0.021445849910378456,-0.2984592914581299,0.4565057158470154,-0.7216499447822571,-9.905811309814453
1745733405.1433656,0.006684235297143459,-0.016820896416902542,-0.29722657799720764,0.554157555103302,-0.8523662686347961,-9.77197265625
1745733405.1492696,0.01100147981196642,-0.025330115109682083,-0.2980540692806244,0.450225293636322,-0.5796076655387878,-9.632379531860352
1745733405.186427,0.0248207226395607,-0.02114119566977024,-0.30021578073501587,0.5462200045585632,-0.865092933177948,-9.826465606689453
1745733405.1865938,0.010108621791005135,-0.024331312626600266,-0.2994166910648346,0.5342416763305664,-0.7560650110244751,-9.905986785888672
1745733405.1867537,0.02595270797610283,-0.023977462202310562,-0.2983953058719635,0.4458516538143158,-0.9164956212043762,-9.784660339355469
1745733405.186852,-0.0005337300826795399,-0.02418636903166771,-0.2972133755683899,0.5403257608413696,-0.9545766115188599,-9.559165954589844
1745733405.2168512,0.015991102904081345,-0.022319257259368896,-0.29779043793678284,0.4129919409751892,-0.7822372317314148,-9.664774894714355
1745733405.2213469,-0.0003529537352733314,-0.021382726728916168,-0.2977263927459717,0.5943759083747864,-0.8346353769302368,-9.815328598022461
1745733405.231165,0.019506867974996567,-0.020659828558564186,-0.29760947823524475,0.4248295724391937,-1.0041007995605469,-9.748920440673828
1745733405.2312238,0.01232859492301941,-0.017666764557361603,-0.30052486062049866,0.5248633623123169,-0.6649256944656372,-9.654436111450195
1745733405.259035,0.025880027562379837,-0.02300703525543213,-0.2963249087333679,0.4649730622768402,-0.8262365460395813,-9.698247909545898
1745733405.262294,0.008363047614693642,-0.020104948431253433,-0.29903969168663025,0.6219499707221985,-0.8590667843818665,-9.728202819824219
1745733405.2673843,0.019863735884428024,-0.02216205559670925,-0.2997022569179535,0.4533569812774658,-0.7171818614006042,-9.878034591674805
1745733405.2709928,0.010609823279082775,-0.018451064825057983,-0.29993849992752075,0.5558690428733826,-1.0023540258407593,-9.832453727722168
1745733405.2747972,0.0005557540571317077,-0.024214312434196472,-0.3020697236061096,0.4932363033294678,-0.6998647451400757,-9.689261436462402
1745733405.3063354,0.005449781659990549,-0.02096925489604473,-0.29877516627311707,0.4840978980064392,-1.0834938287734985,-9.780282020568848
1745733405.3112984,9.342543489765376e-05,-0.0211289431899786,-0.30054378509521484,0.47232913970947266,-0.6093155741691589,-9.689846992492676
1745733405.3157334,0.005337688140571117,-0.02201451174914837,-0.30019721388816833,0.47352057695388794,-0.8111283183097839,-9.733808517456055
1745733405.3204088,0.0033691939897835255,-0.020214537158608437,-0.29935234785079956,0.6232509016990662,-0.7595123648643494,-9.651960372924805
1745733405.3472924,0.019974321126937866,-0.020052388310432434,-0.3020455837249756,0.3346860408782959,-0.5489412546157837,-9.784778594970703
1745733405.3496878,0.01210435014218092,-0.019594168290495872,-0.30081114172935486,0.6181119084358215,-0.9765273928642273,-9.851606369018555
1745733405.3544743,0.02425953932106495,-0.024172823876142502,-0.3030913770198822,0.43323326110839844,-0.6537147760391235,-9.622187614440918
1745733405.3568554,0.018645351752638817,-0.021700134500861168,-0.3027244210243225,0.44492921233177185,-0.9141803979873657,-9.71186637878418
1745733405.3897953,0.008405444212257862,-0.023330023512244225,-0.29911643266677856,0.5503589510917664,-0.8017913699150085,-9.765974044799805
1745733405.3918505,0.03469835966825485,-0.017808547243475914,-0.3036363124847412,0.3908836841583252,-0.7580272555351257,-9.723917007446289
1745733405.3942635,0.0038952163886278868,-0.01848018728196621,-0.30154043436050415,0.5394676327705383,-0.8804945945739746,-9.609491348266602
1745733405.3953688,0.024247044697403908,-0.02185840904712677,-0.3026732802391052,0.4677499234676361,-0.7108361124992371,-9.685152053833008
1745733405.3988078,0.011958008632063866,-0.01574881002306938,-0.3008196949958801,0.5545482039451599,-0.9287220239639282,-9.928083419799805
1745733405.4360719,0.014648256823420525,-0.021823083981871605,-0.30309659242630005,0.4185234010219574,-0.6885620951652527,-9.876089096069336
1745733405.4390495,0.022162633016705513,-0.017054183408617973,-0.3012903034687042,0.44060057401657104,-0.9351726770401001,-9.707719802856445
1745733405.4433484,0.0076026394963264465,-0.02247227355837822,-0.3002118766307831,0.43674802780151367,-0.7468810081481934,-9.600377082824707
1745733405.4475436,0.027640309184789658,-0.017986448481678963,-0.2988240122795105,0.4433366656303406,-0.7906695008277893,-9.693891525268555
1745733405.4761155,0.0030346857383847237,-0.02114890329539776,-0.3012635111808777,0.563218891620636,-0.8029550313949585,-9.801963806152344
1745733405.477686,0.03333795815706253,-0.017425548285245895,-0.30068427324295044,0.39407268166542053,-0.6449653506278992,-9.743894577026367
1745733405.4795573,0.014172688126564026,-0.015583490952849388,-0.30172282457351685,0.5359616279602051,-0.8360583186149597,-9.664162635803223
1745733405.480566,0.021459508687257767,-0.019393380731344223,-0.3035295307636261,0.4044589102268219,-0.5935426950454712,-9.677095413208008
1745733405.5173993,0.025422394275665283,-0.014447607100009918,-0.302863746881485,0.5142496824264526,-0.9969124794006348,-9.882946014404297
1745733405.522463,0.021956171840429306,-0.01986406184732914,-0.3022054135799408,0.4465414881706238,-0.5922719240188599,-9.784502983093262
1745733405.5259786,0.03385642170906067,-0.015140732750296593,-0.3010125458240509,0.4068842828273773,-0.9270660281181335,-9.673128128051758
1745733405.529696,0.021959414705634117,-0.01635499857366085,-0.302817165851593,0.5293846130371094,-0.7184766530990601,-9.582087516784668
1745733405.5606022,0.03262278065085411,-0.01925128698348999,-0.3016718029975891,0.4041236937046051,-0.8671363592147827,-9.821298599243164
1745733405.5640152,0.01652829349040985,-0.01436256431043148,-0.30123525857925415,0.5354894399642944,-0.900823712348938,-9.837244033813477
1745733405.5669847,0.028788473457098007,-0.017720401287078857,-0.3002016246318817,0.35209783911705017,-0.7467591166496277,-9.697931289672852
1745733405.5706244,0.023012690246105194,-0.017127441242337227,-0.30378517508506775,0.467049777507782,-0.8311371803283691,-9.611956596374512
1745733405.6048234,0.019454238936305046,-0.016712740063667297,-0.29843515157699585,0.595169723033905,-0.8461273312568665,-9.66776180267334
1745733405.6075356,0.03034248948097229,-0.016123663634061813,-0.3026389479637146,0.3367713987827301,-0.6262368559837341,-9.869924545288086
1745733405.6094224,0.023049818351864815,-0.013626495376229286,-0.3007754981517792,0.5617586374282837,-0.9708921313285828,-9.84257698059082
1745733405.6121004,0.031661853194236755,-0.016019055619835854,-0.2988150119781494,0.36729031801223755,-0.5531265139579773,-9.577656745910645
1745733405.6139486,0.03456878662109375,-0.017584742978215218,-0.3010891079902649,0.4914085268974304,-0.945405125617981,-9.768580436706543
1745733405.6495726,0.02149079367518425,-0.020830798894166946,-0.30145150423049927,0.5120762586593628,-0.7103195190429688,-9.879023551940918
1745733405.6532638,0.03733658790588379,-0.014566210098564625,-0.3009432852268219,0.4076193869113922,-0.9587872624397278,-9.841105461120605
1745733405.656156,0.0224566999822855,-0.017752710729837418,-0.2987517714500427,0.5254760384559631,-0.8992635011672974,-9.456769943237305
1745733405.6608589,0.02718440815806389,-0.017523789778351784,-0.2975226938724518,0.3694879114627838,-0.8515140414237976,-9.631635665893555
1745733405.6905913,0.011514978483319283,-0.01382111944258213,-0.29732444882392883,0.5835801959037781,-1.0158488750457764,-9.939139366149902
1745733405.6941578,0.029190193861722946,-0.014125173911452293,-0.298837810754776,0.3552917540073395,-0.5020397901535034,-9.838274955749512
1745733405.6972513,0.02031255140900612,-0.014624019153416157,-0.2978927791118622,0.49898457527160645,-0.9965211749076843,-9.670357704162598
1745733405.7020729,0.0037385537289083004,-0.02411128580570221,-0.28628429770469666,0.4699387550354004,-0.7289040684700012,-9.709315299987793
1745733405.735292,0.026409897953271866,-0.01914413645863533,-0.2848178744316101,0.4138931632041931,-0.7367511987686157,-9.676631927490234
1745733405.7389112,0.006186396349221468,-0.02326292358338833,-0.2853824198246002,0.5393416881561279,-0.8622578382492065,-9.7313814163208
1745733405.7425475,0.02754550613462925,-0.019184384495019913,-0.28608429431915283,0.3308461308479309,-0.685649037361145,-9.730697631835938
1745733405.7443728,0.010976728983223438,-0.01799965091049671,-0.287595272064209,0.5010114908218384,-0.9154208898544312,-9.75485897064209
1745733405.7745256,0.014575690031051636,-0.0219231229275465,-0.2874031662940979,0.34326234459877014,-0.668386697769165,-9.69224739074707
1745733405.7789001,0.018468018621206284,-0.01664555072784424,-0.28533607721328735,0.49299612641334534,-1.0630385875701904,-9.806129455566406
1745733405.7821558,0.011981291696429253,-0.023668179288506508,-0.2855975031852722,0.44949787855148315,-0.688459038734436,-9.802652359008789
1745733405.7856991,0.022855428978800774,-0.020562145859003067,-0.2848171591758728,0.43506941199302673,-0.9700193405151367,-9.803016662597656
1745733405.7890255,0.011015716940164566,-0.019465845078229904,-0.2842382788658142,0.5095134973526001,-0.7255028486251831,-9.678723335266113
1745733405.8219626,0.023765934631228447,-0.023129228502511978,-0.28275731205940247,0.3928927481174469,-0.9084391593933105,-9.66632080078125
1745733405.8239198,0.008092569187283516,-0.019264038652181625,-0.2804202437400818,0.5350129008293152,-0.9077483415603638,-9.752031326293945
1745733405.8261356,0.02003927156329155,-0.02198365330696106,-0.2822239398956299,0.35553282499313354,-0.7151118516921997,-9.837491035461426
1745733405.8280776,0.013120164163410664,-0.01858297362923622,-0.2823216915130615,0.43953418731689453,-0.9822342991828918,-9.790889739990234
1745733405.861768,0.0070035820826888084,-0.02405114285647869,-0.28384464979171753,0.4105326533317566,-0.6101512908935547,-9.641134262084961
1745733405.8651772,0.016231119632720947,-0.022092118859291077,-0.282840371131897,0.4592413902282715,-1.1068439483642578,-9.831624984741211
1745733405.865541,0.007025405764579773,-0.01997588947415352,-0.28259533643722534,0.48052287101745605,-0.6938472986221313,-9.761007308959961
1745733405.8725338,0.017233742401003838,-0.019967319443821907,-0.28520163893699646,0.4329100549221039,-0.8218288421630859,-9.721108436584473
1745733405.8775322,0.007581636309623718,-0.016941199079155922,-0.27987658977508545,0.5462601780891418,-0.9122441411018372,-9.557218551635742
1745733405.9065382,0.018452197313308716,-0.020144745707511902,-0.2824553847312927,0.28973785042762756,-0.5942897796630859,-9.705207824707031
1745733405.9108481,0.013332538306713104,-0.01880749687552452,-0.2818327844142914,0.5579009652137756,-0.9622589945793152,-9.928818702697754
1745733405.9137723,0.020415619015693665,-0.01725723221898079,-0.2830735743045807,0.3284381330013275,-0.5539824962615967,-9.765202522277832
1745733405.9181557,0.017149105668067932,-0.017912056297063828,-0.28301405906677246,0.36891961097717285,-0.7722719311714172,-9.567485809326172
1745733405.9504502,-0.003879477735608816,-0.018401702865958214,-0.2838115096092224,0.6137967109680176,-1.070138931274414,-9.789576530456543
1745733405.952775,0.01537165604531765,-0.019264088943600655,-0.2831011414527893,0.36714133620262146,-0.5537785291671753,-9.871292114257812
1745733405.9540546,0.0013754222309216857,-0.017451034858822823,-0.2829055190086365,0.42795100808143616,-1.0072578191757202,-9.857538223266602
1745733405.955909,0.012574774213135242,-0.020845739170908928,-0.2849305272102356,0.4147220253944397,-0.6101745367050171,-9.579298973083496
1745733405.994696,0.011038688011467457,-0.020818563178181648,-0.2855406403541565,0.36917656660079956,-0.9914544820785522,-9.796910285949707
1745733405.9964604,1.3674982255906798e-05,-0.02353554032742977,-0.2845313549041748,0.5519970655441284,-0.7748230695724487,-9.734386444091797
1745733405.9997854,0.009175724349915981,-0.02079550363123417,-0.2838335335254669,0.41974201798439026,-0.918016254901886,-9.744990348815918
1745733406.002531,-0.008416210301220417,-0.0190950445830822,-0.2843021750450134,0.5718088746070862,-1.0039350986480713,-9.664912223815918
1745733406.0332289,0.004316356498748064,-0.021862393245100975,-0.2842960059642792,0.4452034831047058,-0.6034143567085266,-9.69522476196289
1745733406.0425818,-0.014877298846840858,-0.017995374277234077,-0.2844780385494232,0.47585171461105347,-1.0465444326400757,-9.877684593200684
1745733406.0426307,0.0028986502438783646,-0.0204243753105402,-0.28473562002182007,0.3904701769351959,-0.5351933240890503,-9.685161590576172
1745733406.044215,0.006207746919244528,-0.019907185807824135,-0.2868577241897583,0.4132368564605713,-0.8716796636581421,-9.756401062011719
1745733406.0442772,0.001071091741323471,-0.025144819170236588,-0.2866429388523102,0.4443817138671875,-0.6344672441482544,-9.702186584472656
1745733406.0801098,-0.002473731990903616,-0.01991911605000496,-0.28820130228996277,0.42106419801712036,-0.9350916743278503,-9.773140907287598
1745733406.0838652,-0.005949720740318298,-0.01872679591178894,-0.28782838582992554,0.4794248044490814,-0.6498945355415344,-9.663802146911621
1745733406.0872793,0.00902201421558857,-0.019242484122514725,-0.2868594527244568,0.2825961709022522,-0.753974437713623,-9.724698066711426
1745733406.0905147,-0.0002720822230912745,-0.017875278368592262,-0.28570622205734253,0.47159990668296814,-0.7778692245483398,-9.676206588745117
1745733406.1213133,0.009217147715389729,-0.02005579136312008,-0.2896365523338318,0.35735824704170227,-0.5960456132888794,-9.755815505981445
1745733406.12605,0.0087814936414361,-0.015700021758675575,-0.2894763648509979,0.4466889500617981,-0.9397403597831726,-9.792474746704102
1745733406.1352584,0.00020383000082802027,-0.022111987695097923,-0.2907762825489044,0.4022068977355957,-0.6154583692550659,-9.653335571289062
1745733406.136423,-4.4789911044063047e-05,-0.016665009781718254,-0.28810063004493713,0.49519258737564087,-1.1156136989593506,-9.868768692016602
1745733406.1364508,-0.006653274409472942,-0.019438982009887695,-0.2890884280204773,0.5044291615486145,-0.717686653137207,-9.759815216064453
1745733406.1642604,0.00012251939915586263,-0.018963290378451347,-0.2891112267971039,0.37839198112487793,-0.8383466601371765,-9.712878227233887
1745733406.1665685,-0.01033389288932085,-0.017835209146142006,-0.2869669497013092,0.5288323760032654,-0.8742691874504089,-9.630000114440918
1745733406.1681862,0.00805750209838152,-0.016454434022307396,-0.2890256345272064,0.30289918184280396,-0.5034859776496887,-9.715123176574707
1745733406.1728125,4.2882187699433416e-05,-0.016713010147213936,-0.2865578532218933,0.47432127594947815,-0.925667941570282,-9.844427108764648
1745733406.2087631,0.008640746586024761,-0.014755073003470898,-0.2872854471206665,0.2914215922355652,-0.5045479536056519,-9.701263427734375
1745733406.2110207,0.01086279097944498,-0.014728298410773277,-0.2900012135505676,0.38435402512550354,-0.9595431089401245,-9.742947578430176
1745733406.2163887,0.0031678713858127594,-0.019530825316905975,-0.28668108582496643,0.42354220151901245,-0.6048120260238647,-9.746566772460938
1745733406.222256,0.011359893716871738,-0.014135646633803844,-0.28834325075149536,0.3978528380393982,-0.8560382127761841,-9.849016189575195
1745733406.2272706,0.0007806085050106049,-0.016795799136161804,-0.28793010115623474,0.5614573955535889,-0.9070425033569336,-9.703947067260742
1745733406.2516217,0.012731125578284264,-0.015182564966380596,-0.28945258259773254,0.34251490235328674,-0.6668848395347595,-9.62699031829834
1745733406.2542582,-0.01336299441754818,-0.017132926732301712,-0.28915220499038696,0.619465708732605,-0.9861555099487305,-9.820511817932129
1745733406.256285,0.009004732593894005,-0.015752693638205528,-0.2882218360900879,0.3837471902370453,-0.578551709651947,-9.786675453186035
1745733406.2563229,-0.006138897500932217,-0.013040226884186268,-0.28720080852508545,0.3840388357639313,-0.9087120890617371,-9.768266677856445
1745733406.292572,0.01306821871548891,-0.019143981859087944,-0.28538328409194946,0.3981836438179016,-0.570114254951477,-9.621732711791992
1745733406.300166,-0.006697782780975103,-0.016081752255558968,-0.2885242700576782,0.47011327743530273,-0.9748979806900024,-9.959532737731934
1745733406.3002396,0.002673426177352667,-0.015354800038039684,-0.2873397469520569,0.4409359395503998,-0.6067242622375488,-9.717390060424805
1745733406.3018918,0.002892346354201436,-0.013058301992714405,-0.28935307264328003,0.3876684606075287,-0.8715423345565796,-9.684346199035645
1745733406.3379574,-0.007408498786389828,-0.023774996399879456,-0.2900347113609314,0.476858526468277,-0.6721147298812866,-9.765904426574707
1745733406.341184,0.014573653228580952,-0.014971325173974037,-0.2903897166252136,0.3846960663795471,-0.6916834115982056,-9.917448043823242
1745733406.3453646,-0.0035717240534722805,-0.018067309632897377,-0.28741586208343506,0.48295360803604126,-0.9230063557624817,-9.763853073120117
1745733406.3478322,0.01806550659239292,-0.018460091203451157,-0.2859513461589813,0.3640180230140686,-0.6225230693817139,-9.45427131652832
1745733406.3797998,-0.007156031671911478,-0.01846246048808098,-0.28560900688171387,0.5130436420440674,-1.0363231897354126,-9.798300743103027
1745733406.381871,0.01546458899974823,-0.018985414877533913,-0.2836025357246399,0.3490424156188965,-0.5635955929756165,-9.923256874084473
1745733406.3843863,0.007896809838712215,-0.01158837415277958,-0.2869125306606293,0.3992311954498291,-0.798932671546936,-9.774032592773438
1745733406.3869145,-0.0015412899665534496,-0.021227454766631126,-0.28677693009376526,0.5048239827156067,-0.6563003659248352,-9.55970287322998
1745733406.3886533,0.021532978862524033,-0.01862597092986107,-0.28729522228240967,0.4419131278991699,-0.795998752117157,-9.808767318725586
1745733406.423211,-0.0048196762800216675,-0.0219286922365427,-0.2893345355987549,0.48785480856895447,-0.8493318557739258,-9.977352142333984
1745733406.42439,0.015871042385697365,-0.017746945843100548,-0.2765550911426544,0.30061501264572144,-0.5232851505279541,-9.671834945678711
1745733406.4266798,0.0009223235538229346,-0.018437981605529785,-0.2759717106819153,0.4510182738304138,-0.9221321940422058,-9.69306755065918
1745733406.429447,0.0034400150179862976,-0.020242061465978622,-0.2739507257938385,0.3386852741241455,-0.5873433947563171,-9.697454452514648
1745733406.4681954,0.0043104528449475765,-0.015144497156143188,-0.27661657333374023,0.4406348764896393,-0.9559944868087769,-9.857519149780273
1745733406.4695027,-0.005580370780080557,-0.018916595727205276,-0.2758992314338684,0.4354347288608551,-0.6023145318031311,-9.763115882873535
1745733406.473796,0.002090275287628174,-0.016796380281448364,-0.2757956087589264,0.38064053654670715,-0.7790058851242065,-9.784912109375
1745733406.4761662,-0.011898413300514221,-0.021396882832050323,-0.2740268111228943,0.5343764424324036,-0.8558982014656067,-9.768511772155762
1745733406.5083776,0.01752767153084278,-0.016128744930028915,-0.27259594202041626,0.30486181378364563,-0.5550814867019653,-9.742281913757324
1745733406.511986,-0.00570076797157526,-0.016959529370069504,-0.27374377846717834,0.4186250567436218,-0.7992547750473022,-9.699967384338379
1745733406.5120971,0.01940734311938286,-0.015498168766498566,-0.27221453189849854,0.3065309524536133,-0.5074690580368042,-9.597136497497559
1745733406.5157223,0.009454012848436832,-0.012270611710846424,-0.27279382944107056,0.35555997490882874,-0.7315287590026855,-9.777000427246094
1745733406.5181775,0.016686290502548218,-0.021346956491470337,-0.272661030292511,0.43089762330055237,-0.5666555762290955,-9.793306350708008
1745733406.5524065,0.02266784943640232,-0.013315257616341114,-0.2728486657142639,0.3472120463848114,-0.826376736164093,-9.81501579284668
1745733406.553536,0.0018960714805871248,-0.01899424009025097,-0.2733150124549866,0.48198777437210083,-0.8602381944656372,-9.772926330566406
1745733406.5558639,0.014826851896941662,-0.015180456452071667,-0.2708374857902527,0.3348843455314636,-0.8115236163139343,-9.779817581176758
1745733406.5584798,-0.013695518486201763,-0.019318120554089546,-0.27178719639778137,0.47878265380859375,-0.933189868927002,-9.74414348602295
1745733406.594467,0.013597299344837666,-0.017444750294089317,-0.2690902650356293,0.38314199447631836,-0.574918270111084,-9.636791229248047
1745733406.5975878,-0.007135018706321716,-0.01229049265384674,-0.26744145154953003,0.4208044111728668,-0.8142462968826294,-9.712332725524902
1745733406.601422,0.0035983591806143522,-0.018230630084872246,-0.2723572552204132,0.441301167011261,-0.452922523021698,-9.736291885375977
1745733406.6029384,0.019132014364004135,-0.011199705302715302,-0.2699039578437805,0.3725128173828125,-0.7851378321647644,-9.857400894165039
1745733406.6389275,0.005121976137161255,-0.018644236028194427,-0.2713805139064789,0.3602384030818939,-0.5705839395523071,-9.76963996887207
1745733406.643243,0.034302324056625366,-0.012494695372879505,-0.2727993130683899,0.3282906413078308,-0.7195682525634766,-9.728960990905762
1745733406.6472244,0.018548956140875816,-0.01736920140683651,-0.2677648663520813,0.38614511489868164,-0.6188036203384399,-9.696098327636719
1745733406.647306,0.012541620060801506,-0.012238593772053719,-0.2690381407737732,0.47529906034469604,-0.8177162408828735,-9.72670841217041
1745733406.6791496,-0.005864870734512806,-0.01899690553545952,-0.26967310905456543,0.3975884020328522,-0.5885977745056152,-9.714213371276855
1745733406.6809206,0.021701619029045105,-0.01448778249323368,-0.2723090648651123,0.3702825605869293,-0.7378255724906921,-9.829147338867188
1745733406.68426,0.0010899690678343177,-0.015420576557517052,-0.27107322216033936,0.40729063749313354,-0.6102235317230225,-9.753433227539062
1745733406.6843266,0.03074190951883793,-0.017659613862633705,-0.2719671130180359,0.3644014298915863,-0.6318696737289429,-9.719456672668457
1745733406.6870172,0.014456924982368946,-0.014487691223621368,-0.26960745453834534,0.5449835062026978,-0.7589641213417053,-9.832239151000977
1745733406.7279387,0.029227007180452347,-0.019533518701791763,-0.26946577429771423,0.3443247079849243,-0.6775681972503662,-9.786381721496582
1745733406.730622,0.025212159380316734,-0.011112689971923828,-0.2692258358001709,0.49771490693092346,-0.864885687828064,-9.635643005371094
1745733406.7333558,0.017931990325450897,-0.021329820156097412,-0.2678847908973694,0.4689149260520935,-0.6441912651062012,-9.655031204223633
1745733406.7369924,0.030727654695510864,-0.014660443179309368,-0.26864054799079895,0.39545899629592896,-0.8631114959716797,-9.881199836730957
1745733406.76784,0.008932612836360931,-0.019702758640050888,-0.26773086190223694,0.4533716142177582,-0.5965880751609802,-9.755468368530273
1745733406.7713108,0.02210390567779541,-0.017473192885518074,-0.27084583044052124,0.3612072765827179,-0.8087142109870911,-9.760381698608398
1745733406.775533,0.007612792309373617,-0.01724150776863098,-0.27923473715782166,0.43550148606300354,-0.8774491548538208,-9.668411254882812
1745733406.778559,0.009001527912914753,-0.026844218373298645,-0.27909591794013977,0.44883888959884644,-0.7019640803337097,-9.871737480163574
1745733406.8105295,0.017231490463018417,-0.016235530376434326,-0.278683602809906,0.39715033769607544,-0.8317726254463196,-9.856779098510742
1745733406.8128903,-0.00013717291585635394,-0.022033996880054474,-0.2778471112251282,0.45847487449645996,-0.7538588643074036,-9.693913459777832
1745733406.8154454,0.025309091433882713,-0.023123692721128464,-0.2775318920612335,0.33240586519241333,-0.6470125913619995,-9.686002731323242
1745733406.8167505,-0.0056821987964212894,-0.022351982071995735,-0.2787960469722748,0.5378759503364563,-0.8013516664505005,-9.876129150390625
1745733406.852106,0.02588934265077114,-0.023691723123192787,-0.2800903916358948,0.40700140595436096,-0.6988636255264282,-9.845561981201172
1745733406.8539298,0.011371328495442867,-0.01872899942100048,-0.2775648534297943,0.4368676245212555,-0.8618057370185852,-9.702292442321777
1745733406.855609,0.011283797211945057,-0.02498277835547924,-0.27961644530296326,0.4212774634361267,-0.5719312429428101,-9.600229263305664
1745733406.8568156,0.01786133274435997,-0.01932760700583458,-0.2797498106956482,0.4436612129211426,-0.943000316619873,-9.753156661987305
1745733406.8595567,0.001525131636299193,-0.023905711248517036,-0.280216783285141,0.41745901107788086,-0.6494668126106262,-9.797555923461914
1745733406.8981624,0.02091938816010952,-0.021570609882473946,-0.2803812026977539,0.4707154631614685,-0.9089809656143188,-9.827434539794922
1745733406.898731,-0.007667480502277613,-0.02510601282119751,-0.27842557430267334,0.4908390939235687,-0.8440332412719727,-9.78526782989502
1745733406.9007409,0.01498260535299778,-0.025434857234358788,-0.280672162771225,0.323850154876709,-0.7757738828659058,-9.830894470214844
1745733406.904853,-0.010904992930591106,-0.025610778480768204,-0.27762895822525024,0.47706079483032227,-0.9605574607849121,-9.799480438232422
1745733406.9393225,0.000883142463862896,-0.02430068328976631,-0.27888110280036926,0.3422033488750458,-0.5617872476577759,-9.641899108886719
1745733406.9500167,0.0072913928888738155,-0.020918507128953934,-0.2799831032752991,0.48123160004615784,-0.8785589337348938,-9.652104377746582
1745733406.950187,-0.002780117094516754,-0.026102742180228233,-0.27913594245910645,0.4098222851753235,-0.5115900039672852,-9.702726364135742
1745733406.9502945,0.00978440884500742,-0.021863175556063652,-0.2811775803565979,0.41494879126548767,-0.8407512903213501,-9.904606819152832
1745733406.950345,0.004133566748350859,-0.01962127722799778,-0.280362069606781,0.4522067904472351,-0.6198199987411499,-9.758974075317383
1745733406.9812546,0.01643117144703865,-0.021997973322868347,-0.2807283401489258,0.2899286150932312,-0.6600252985954285,-9.663078308105469
1745733406.9846475,0.00630407128483057,-0.023211438208818436,-0.28298220038414,0.5835364460945129,-0.8880826234817505,-9.772407531738281
1745733406.985816,0.016162361949682236,-0.025266850367188454,-0.2792298495769501,0.38170531392097473,-0.6273335218429565,-9.927054405212402
1745733406.9887128,0.01046951673924923,-0.018415216356515884,-0.281488835811615,0.4094691872596741,-0.9141210317611694,-9.69843864440918
1745733407.0254056,0.004024299327284098,-0.024725910276174545,-0.28328999876976013,0.49123358726501465,-0.5331559181213379,-9.87765884399414
1745733407.029657,0.00847646128386259,-0.018199998885393143,-0.28357118368148804,0.30936333537101746,-0.7957931756973267,-9.927783966064453
1745733407.0379653,0.0017839043866842985,-0.019170021638274193,-0.28319835662841797,0.4720398783683777,-0.8567784428596497,-9.631876945495605
1745733407.0411334,0.011777336709201336,-0.022735392674803734,-0.28315648436546326,0.2799043655395508,-0.5883333683013916,-9.639883041381836
1745733407.069827,0.0008223444456234574,-0.023088127374649048,-0.2852815091609955,0.47797155380249023,-1.0034440755844116,-9.949335098266602
1745733407.0748622,0.015825387090444565,-0.019648220390081406,-0.28094249963760376,0.4057033658027649,-0.41973012685775757,-9.784208297729492
1745733407.0793478,0.009149011224508286,-0.02066485956311226,-0.2832777798175812,0.482125461101532,-1.0333893299102783,-9.692097663879395
1745733407.0816534,0.005438644904643297,-0.02362792193889618,-0.28362396359443665,0.4736011028289795,-0.5538474321365356,-9.580238342285156
1745733407.1166642,0.012327812612056732,-0.020062286406755447,-0.2836882472038269,0.3740385174751282,-0.8772489428520203,-9.966676712036133
1745733407.1210892,0.0025743318255990744,-0.020800843834877014,-0.283519983291626,0.4376083314418793,-0.7293161153793335,-9.847455024719238
1745733407.126066,0.009032870642840862,-0.01756002940237522,-0.28452128171920776,0.2797513008117676,-0.6025761365890503,-9.565805435180664
1745733407.1318784,0.020552178844809532,-0.01326974667608738,-0.2895568311214447,0.4363578259944916,-0.9518964886665344,-9.780942916870117
1745733407.155507,0.01886451244354248,-0.011908875778317451,-0.28921544551849365,0.40339118242263794,-0.4720805287361145,-9.789987564086914
1745733407.1593335,0.03302202746272087,-0.01318430621176958,-0.2884770333766937,0.44582661986351013,-0.9057000279426575,-9.684072494506836
1745733407.163112,0.014313556253910065,-0.014470572583377361,-0.2875564694404602,0.46893078088760376,-0.7196059226989746,-9.640779495239258
1745733407.1663086,0.03333460912108421,-0.015288913622498512,-0.28741008043289185,0.3561631739139557,-0.7952701449394226,-9.910562515258789
1745733407.1686246,0.014415624551475048,-0.013382436707615852,-0.285645991563797,0.4410785138607025,-0.9082667231559753,-9.921006202697754
1745733407.1979196,0.02146163210272789,-0.014788525179028511,-0.28704753518104553,0.29992544651031494,-0.5722886323928833,-9.652894973754883
1745733407.200725,0.017057988792657852,-0.012726846151053905,-0.2864142954349518,0.48304763436317444,-1.0065022706985474,-9.579846382141113
1745733407.2048504,0.020184427499771118,-0.01726372167468071,-0.2873714864253998,0.3334762752056122,-0.5009658336639404,-9.736374855041504
1745733407.2090058,0.019213655963540077,-0.01405736617743969,-0.2887992858886719,0.5125845670700073,-0.9383684992790222,-9.971990585327148
1745733407.2433517,0.015254226513206959,-0.011668967083096504,-0.28641051054000854,0.4738004803657532,-0.6936762928962708,-9.664865493774414
1745733407.2434251,0.023827137425541878,-0.012236550450325012,-0.28720352053642273,0.27525871992111206,-0.7871628403663635,-9.632975578308105
1745733407.2434652,0.013220526278018951,-0.016715284436941147,-0.2833719253540039,0.5490886569023132,-0.8299991488456726,-9.805691719055176
1745733407.2458596,0.027194207534193993,-0.014472519047558308,-0.2863512635231018,0.3077651858329773,-0.6297756433486938,-9.949677467346191
1745733407.282962,0.020252633839845657,-0.01397799700498581,-0.2841910719871521,0.46014466881752014,-0.9398646354675293,-9.766921043395996
1745733407.2931826,0.014653530903160572,-0.019978489726781845,-0.28615865111351013,0.36693811416625977,-0.5955764055252075,-9.569185256958008
1745733407.293234,0.01878822222352028,-0.01471688598394394,-0.2884686589241028,0.42376455664634705,-0.9828284978866577,-9.749876022338867
1745733407.2932713,0.015498156659305096,-0.01758740469813347,-0.2883511185646057,0.4652455747127533,-0.5612263083457947,-9.691987991333008
1745733407.296608,0.018002670258283615,-0.012982589192688465,-0.28696346282958984,0.3547461926937103,-0.8854140043258667,-9.808605194091797
1745733407.328206,0.006047497503459454,-0.014398278668522835,-0.287109911441803,0.5598121881484985,-0.8072046041488647,-9.674223899841309
1745733407.3400266,0.02707657217979431,-0.01562725380063057,-0.2862675189971924,0.29546281695365906,-0.6216750741004944,-9.746503829956055
1745733407.3432388,0.012379687279462814,-0.012774097733199596,-0.2827453017234802,0.44293612241744995,-0.8829998970031738,-9.869921684265137
1745733407.3469296,0.03356907144188881,-0.014334735460579395,-0.28481799364089966,0.3361143171787262,-0.4626804292201996,-9.686216354370117
1745733407.3692906,0.025416050106287003,-0.017557065933942795,-0.28540486097335815,0.4207366108894348,-0.5192785859107971,-9.590256690979004
1745733407.372942,0.024388547986745834,-0.013057795353233814,-0.2874264717102051,0.3984939157962799,-0.9724661707878113,-9.858884811401367
1745733407.375766,0.012904509902000427,-0.015225228853523731,-0.28611329197883606,0.4870021939277649,-0.7814697623252869,-9.75812816619873
1745733407.381404,0.022702373564243317,-0.013298043981194496,-0.2871984541416168,0.3990577459335327,-0.7411293983459473,-9.68335247039795
1745733407.413401,-0.001448858412913978,-0.01711193285882473,-0.284334659576416,0.5291337966918945,-0.9835232496261597,-9.827959060668945
1745733407.4168167,0.027490511536598206,-0.013090087100863457,-0.28292497992515564,0.3767220973968506,-0.5991173982620239,-9.806600570678711
1745733407.4189696,0.011702125892043114,-0.0150618776679039,-0.2836799621582031,0.4179537296295166,-0.9011350870132446,-9.823873519897461
1745733407.421278,0.023331433534622192,-0.017319243401288986,-0.2847658395767212,0.2938587963581085,-0.5183528661727905,-9.62732219696045
1745733407.425707,0.02945367433130741,-0.009790140204131603,-0.2862323224544525,0.3468477725982666,-0.6737338900566101,-9.618175506591797
1745733407.4565673,0.020904062315821648,-0.021115608513355255,-0.28679028153419495,0.5127161741256714,-0.7023464441299438,-9.710641860961914
1745733407.4574184,0.03702276945114136,-0.016343075782060623,-0.2869102954864502,0.3758140504360199,-0.7850843667984009,-9.960684776306152
1745733407.4589155,0.014352994039654732,-0.015432914718985558,-0.2861734926700592,0.4759390950202942,-0.9443011283874512,-9.864082336425781
1745733407.4601514,0.029124576598405838,-0.0156606025993824,-0.2855764925479889,0.30435454845428467,-0.7605057954788208,-9.581780433654785
1745733407.500572,0.009730568155646324,-0.01999470591545105,-0.2855674922466278,0.44888654351234436,-0.6919189095497131,-9.687455177307129
1745733407.5041173,0.02334587648510933,-0.012896403670310974,-0.2847999036312103,0.31232136487960815,-0.6861351728439331,-9.71234130859375
1745733407.5057213,0.012798776850104332,-0.018733883276581764,-0.28352102637290955,0.5324701070785522,-0.7459142208099365,-9.701138496398926
1745733407.506732,0.03250190615653992,-0.015623507089912891,-0.2849709987640381,0.27234527468681335,-0.55495685338974,-9.805997848510742
1745733407.5407357,0.018867947161197662,-0.017447926104068756,-0.2881500720977783,0.487342894077301,-0.9747048616409302,-9.903955459594727
1745733407.5419517,0.028109192848205566,-0.019462671130895615,-0.28636497259140015,0.3190911114215851,-0.5896620154380798,-9.747461318969727
1745733407.543772,0.014226390048861504,-0.013643358834087849,-0.286068856716156,0.437404066324234,-1.0533721446990967,-9.70472526550293
1745733407.5466025,0.01887291483581066,-0.020887110382318497,-0.286506712436676,0.45799535512924194,-0.6579382419586182,-9.604995727539062
1745733407.548065,0.02308882214128971,-0.01026932243257761,-0.28607892990112305,0.3859831988811493,-0.845992386341095,-9.767671585083008
1745733407.5865488,0.006479400210082531,-0.017836567014455795,-0.2873002886772156,0.5785205960273743,-0.7512732744216919,-9.784113883972168
1745733407.588828,0.03163113072514534,-0.012431376613676548,-0.28532665967941284,0.338434636592865,-0.6765909790992737,-9.72591495513916
1745733407.5925872,0.009096479043364525,-0.019001657143235207,-0.2869240641593933,0.41063180565834045,-0.8731666803359985,-9.809386253356934
1745733407.5959523,0.035562656819820404,-0.01664397306740284,-0.285006046295166,0.3119671940803528,-0.5879150032997131,-9.819765090942383
1745733407.6297925,0.014983825385570526,-0.013438994064927101,-0.2835755944252014,0.3766353130340576,-1.0171985626220703,-9.8497953414917
1745733407.633407,0.029307406395673752,-0.021193010732531548,-0.2860616147518158,0.39403271675109863,-0.58868807554245,-9.576092720031738
1745733407.6372323,0.0191497802734375,-0.018494607880711555,-0.2838795483112335,0.46679019927978516,-1.018352746963501,-9.77810287475586
1745733407.6441312,0.0147179514169693,-0.021333841606974602,-0.28408151865005493,0.5017973780632019,-0.7736214399337769,-9.827005386352539
1745733407.6701517,0.02651047147810459,-0.01373897772282362,-0.28461915254592896,0.38762277364730835,-0.8145855069160461,-9.725446701049805
1745733407.6734807,-0.0037331588100641966,-0.018133673816919327,-0.2850770354270935,0.47617706656455994,-0.9169481992721558,-9.65118408203125
1745733407.6756618,0.021096860989928246,-0.0172453410923481,-0.2841499447822571,0.3462933301925659,-0.6652532815933228,-9.697334289550781
1745733407.6779625,0.005100805778056383,-0.015328449197113514,-0.2838755249977112,0.43022361397743225,-0.8356502652168274,-9.918191909790039
1745733407.679019,0.020749565213918686,-0.021213781088590622,-0.28561848402023315,0.34019047021865845,-0.477614164352417,-9.758363723754883
1745733407.715322,0.023300372064113617,-0.011783062480390072,-0.2875458300113678,0.4528428018093109,-0.8377735018730164,-9.688997268676758
1745733407.7203794,0.017013434320688248,-0.02427172288298607,-0.28536853194236755,0.4236834943294525,-0.7251238226890564,-9.713068962097168
1745733407.7240252,0.03989293426275253,-0.013643969781696796,-0.28221988677978516,0.3579205572605133,-0.8018075227737427,-9.812597274780273
1745733407.7287755,0.010472926311194897,-0.016073191538453102,-0.2832890450954437,0.4693250060081482,-0.8595831990242004,-9.738879203796387
1745733407.7557557,0.03899318724870682,-0.014744427986443043,-0.281838983297348,0.34573057293891907,-0.7344632148742676,-9.611573219299316
1745733407.7601225,0.010212440975010395,-0.01946997456252575,-0.28408512473106384,0.5037633180618286,-0.8123451471328735,-9.744935989379883
1745733407.7648633,0.026229124516248703,-0.019534248858690262,-0.28559747338294983,0.38924670219421387,-0.6272611618041992,-9.936237335205078
1745733407.7688231,0.027139812707901,-0.011058308184146881,-0.28671374917030334,0.4603273868560791,-0.8891847729682922,-9.818940162658691
1745733407.7724538,0.019395258277654648,-0.022897033020853996,-0.28720390796661377,0.38169172406196594,-0.6536260843276978,-9.576906204223633
1745733407.7990272,0.026381898671388626,-0.01940915919840336,-0.2871488928794861,0.433829128742218,-1.0453646183013916,-9.758915901184082
1745733407.8015392,0.013722735457122326,-0.017357442528009415,-0.2850690484046936,0.42939844727516174,-0.6815999746322632,-9.853727340698242
1745733407.805174,0.03649788349866867,-0.016032584011554718,-0.2839617133140564,0.3738570809364319,-0.8455270528793335,-9.718923568725586
1745733407.8083994,0.010441805236041546,-0.01789495348930359,-0.2831272482872009,0.5284581780433655,-0.7899655699729919,-9.506500244140625
1745733407.8411264,0.033431313931941986,-0.021273571997880936,-0.2840828597545624,0.3771060109138489,-0.6771360635757446,-9.845751762390137
1745733407.8448977,0.03425983339548111,-0.012693734839558601,-0.28404492139816284,0.41393160820007324,-0.8703851699829102,-9.674301147460938
1745733407.84634,0.014629361219704151,-0.023495737463235855,-0.2868545651435852,0.48908501863479614,-0.7026756405830383,-9.693242073059082
1745733407.8473496,0.03572078049182892,-0.016883429139852524,-0.28468459844589233,0.40927714109420776,-0.9408429861068726,-9.844304084777832
1745733407.8876798,0.010996895842254162,-0.015409338288009167,-0.2836860120296478,0.43910732865333557,-0.8367518186569214,-9.753485679626465
1745733407.890513,0.03128567337989807,-0.01949416846036911,-0.28437596559524536,0.3947693705558777,-0.7186049222946167,-9.63610553741455
1745733407.8940988,0.010036779567599297,-0.019907871261239052,-0.28387436270713806,0.49057406187057495,-0.9404230117797852,-9.803071975708008
1745733407.8963072,0.023793209344148636,-0.025600984692573547,-0.2863565981388092,0.3669742941856384,-0.6590277552604675,-9.947392463684082
1745733407.9267647,0.01729278638958931,-0.01929437555372715,-0.2836650013923645,0.356687068939209,-0.9423052668571472,-9.830824851989746
1745733407.929024,0.010298703797161579,-0.02392255701124668,-0.28482145071029663,0.35787081718444824,-0.6696184873580933,-9.476912498474121
1745733407.9313374,0.028935465961694717,-0.017137665301561356,-0.28825539350509644,0.40650129318237305,-0.8323339223861694,-9.628110885620117
1745733407.9336722,0.006326054688543081,-0.022891594097018242,-0.28579846024513245,0.47535866498947144,-0.7836753726005554,-9.878655433654785
1745733407.936464,0.026856284588575363,-0.018108796328306198,-0.2860485911369324,0.43766331672668457,-0.7669476270675659,-9.915708541870117
1745733407.9707584,0.015064604580402374,-0.01533152349293232,-0.28568339347839355,0.4803279936313629,-0.9271240234375,-9.625883102416992
1745733407.9738367,0.018191061913967133,-0.02341284416615963,-0.2856852114200592,0.2822980582714081,-0.6596198081970215,-9.58985424041748
1745733407.9751735,0.01959064044058323,-0.01765276864171028,-0.28514689207077026,0.4602483808994293,-0.9486032724380493,-9.873491287231445
1745733407.9775965,0.015472161583602428,-0.019764214754104614,-0.2853899598121643,0.39133861660957336,-0.5916056632995605,-9.926358222961426
1745733408.0169506,0.031165719032287598,-0.018676353618502617,-0.28608426451683044,0.39703336358070374,-0.8643563985824585,-9.699678421020508
1745733408.0209575,0.003883634926751256,-0.024028148502111435,-0.2871463894844055,0.4641536772251129,-0.7579110860824585,-9.57600212097168
1745733408.024259,0.026804819703102112,-0.020716341212391853,-0.2863295078277588,0.340096116065979,-0.8455055356025696,-9.787617683410645
1745733408.0276058,0.008814513683319092,-0.016480648890137672,-0.28799813985824585,0.5007919073104858,-0.8708664774894714,-9.816551208496094
1745733408.0320163,0.02013581059873104,-0.02159881964325905,-0.2856833338737488,0.33870628476142883,-0.7198376655578613,-9.71422004699707
1745733408.0593085,0.01239367388188839,-0.01578158140182495,-0.2842276096343994,0.5221647024154663,-1.0237019062042236,-9.67430591583252
1745733408.0636902,0.02033432386815548,-0.021889058873057365,-0.28376835584640503,0.326082319021225,-0.47134271264076233,-9.754008293151855
1745733408.0684168,0.031217020004987717,-0.020725132897496223,-0.2862392067909241,0.346992552280426,-0.9679688215255737,-9.738165855407715
1745733408.07338,0.018281051889061928,-0.02262203022837639,-0.284198522567749,0.48722410202026367,-0.793181300163269,-9.64405345916748
1745733408.101303,0.023513566702604294,-0.0180431567132473,-0.28637033700942993,0.3300477862358093,-0.8229485750198364,-9.803034782409668
1745733408.1034913,0.017692942172288895,-0.016864066943526268,-0.28498271107673645,0.5081514120101929,-0.9973276853561401,-9.771027565002441
1745733408.1045547,0.019745588302612305,-0.021204935386776924,-0.2856464982032776,0.3850117623806,-0.5797049403190613,-9.617776870727539
1745733408.1065722,0.008340639062225819,-0.02035755291581154,-0.28496503829956055,0.4729829430580139,-1.0392861366271973,-9.925028800964355
1745733408.149332,0.022346332669258118,-0.02112472429871559,-0.28551799058914185,0.3855310082435608,-0.5488957762718201,-9.815786361694336
1745733408.1509929,0.024656862020492554,-0.018385769799351692,-0.2869172692298889,0.3093385696411133,-0.8928914070129395,-9.757047653198242
1745733408.1512022,0.016855482012033463,-0.02496645413339138,-0.28422874212265015,0.4495777487754822,-0.7788406610488892,-9.56064510345459
1745733408.15129,0.03711799532175064,-0.015245571732521057,-0.28614798188209534,0.3318067491054535,-0.651422381401062,-9.706266403198242
1745733408.1865287,0.017959970980882645,-0.02271111309528351,-0.2833978235721588,0.5429852604866028,-0.967568576335907,-9.840702056884766
1745733408.1891038,0.03586522117257118,-0.0206596739590168,-0.28432831168174744,0.34665659070014954,-0.6590545177459717,-9.746272087097168
1745733408.1917112,0.0327509269118309,-0.019834229722619057,-0.28686243295669556,0.4129393696784973,-0.9116350412368774,-9.716633796691895
1745733408.1929364,0.014467398636043072,-0.02075248770415783,-0.2856072783470154,0.4874808192253113,-0.676274299621582,-9.891925811767578
1745733408.228023,0.028755035251379013,-0.020636577159166336,-0.2869648039340973,0.42826375365257263,-0.8291234970092773,-9.809760093688965
1745733408.2307951,0.01279284805059433,-0.017972121015191078,-0.28435763716697693,0.504036545753479,-0.9985321760177612,-9.52592658996582
1745733408.234166,0.017720306292176247,-0.021563058719038963,-0.2838283181190491,0.2639373540878296,-0.7168277502059937,-9.66650676727295
1745733408.2350771,0.012384124100208282,-0.019230451434850693,-0.28342726826667786,0.49590110778808594,-1.035546064376831,-9.966896057128906
1745733408.2412882,0.013227136805653572,-0.015971612185239792,-0.28143709897994995,0.2667357921600342,-0.5356222987174988,-9.804079055786133
1745733408.2741535,0.024800702929496765,-0.020420216023921967,-0.28468090295791626,0.3790728747844696,-0.8913847208023071,-9.599889755249023
1745733408.277735,0.005939912516623735,-0.025923144072294235,-0.2846120297908783,0.4293663501739502,-0.6961826682090759,-9.6431245803833
1745733408.280763,0.02454245463013649,-0.019302915781736374,-0.28494590520858765,0.3307746946811676,-0.844633936882019,-9.965230941772461
1745733408.28427,0.010531237348914146,-0.016902785748243332,-0.28495901823043823,0.4681931138038635,-0.8838159441947937,-9.744915008544922
1745733408.3205924,0.016250059008598328,-0.018256451934576035,-0.2847141921520233,0.3124389946460724,-0.736716628074646,-9.517560958862305
1745733408.325342,0.0010554824257269502,-0.021807614713907242,-0.28342127799987793,0.6190627813339233,-1.0749789476394653,-9.739557266235352
1745733408.3279583,0.009184134192764759,-0.02194010466337204,-0.28464311361312866,0.3869611620903015,-0.5509822368621826,-9.982718467712402
1745733408.3306296,0.005114100873470306,-0.017775632441043854,-0.2832651734352112,0.3806803822517395,-1.0040100812911987,-9.934640884399414
1745733408.3320072,0.010735954158008099,-0.019685890525579453,-0.28518345952033997,0.40965795516967773,-0.5734415054321289,-9.470458030700684
1745733408.3602495,0.011432534083724022,-0.02314259111881256,-0.2829747498035431,0.32411783933639526,-0.89476478099823,-9.714910507202148
1745733408.3659394,0.007161626126617193,-0.0244415532797575,-0.28485360741615295,0.47934237122535706,-0.6936621069908142,-9.856897354125977
1745733408.3682997,0.018703270703554153,-0.017880506813526154,-0.2849022448062897,0.3042752742767334,-0.7494043707847595,-9.846375465393066
1745733408.3699794,0.009318063966929913,-0.018863167613744736,-0.2845570147037506,0.4637293219566345,-0.9880067110061646,-9.565564155578613
1745733408.4075463,0.02046307548880577,-0.02166173793375492,-0.28481096029281616,0.35992830991744995,-0.5199680924415588,-9.54405403137207
1745733408.4086714,0.0030648470856249332,-0.02017580345273018,-0.28301501274108887,0.4745553135871887,-1.1058512926101685,-10.044744491577148
1745733408.4128125,0.019065719097852707,-0.017505107447504997,-0.2861578166484833,0.3983399569988251,-0.5887380242347717,-9.838761329650879
1745733408.4169648,0.004604286514222622,-0.02384178154170513,-0.28446078300476074,0.43809080123901367,-0.769715428352356,-9.562141418457031
1745733408.4469557,0.020541813224554062,-0.012234360910952091,-0.28811830282211304,0.30617570877075195,-0.6575514078140259,-9.879629135131836
1745733408.4491496,0.00261640059761703,-0.017593208700418472,-0.286216139793396,0.5092198252677917,-0.9620858430862427,-9.849247932434082
1745733408.4510562,0.019594987854361534,-0.016545023769140244,-0.28692951798439026,0.35461315512657166,-0.5944239497184753,-9.526323318481445
1745733408.4527729,0.0029730398673564196,-0.019109543412923813,-0.2846764624118805,0.49407514929771423,-1.119037389755249,-9.79573917388916
1745733408.4893117,0.014592863619327545,-0.021904222667217255,-0.28429919481277466,0.32156890630722046,-0.5376144647598267,-9.945455551147461
1745733408.4910145,0.007082904689013958,-0.012781918048858643,-0.28500738739967346,0.40699273347854614,-0.9614652395248413,-9.891069412231445
1745733408.4926703,0.0073253861628472805,-0.02146795019507408,-0.2853665351867676,0.4422701895236969,-0.7449078559875488,-9.466334342956543
1745733408.4953496,0.022143620997667313,-0.019999254494905472,-0.28583571314811707,0.3293321132659912,-0.6817072033882141,-9.65088939666748
1745733408.4969084,0.0007984064286574721,-0.022623863071203232,-0.2884811758995056,0.5489597916603088,-0.761600911617279,-9.98811149597168
1745733408.5320246,0.03027317300438881,-0.013938489370048046,-0.28770166635513306,0.2957514822483063,-0.7117506265640259,-9.79893684387207
1745733408.5361378,0.0062732757069170475,-0.015602996572852135,-0.2884458601474762,0.3934169113636017,-0.9430146217346191,-9.508354187011719
1745733408.5402038,0.02063428983092308,-0.024278540164232254,-0.28544512391090393,0.44631823897361755,-0.7048548460006714,-9.627263069152832
1745733408.543207,0.013328219763934612,-0.01975245587527752,-0.28791841864585876,0.5195949673652649,-0.8660068511962891,-9.595547676086426
1745733408.5751593,0.025688713416457176,-0.02142750285565853,-0.2867997884750366,0.29464632272720337,-0.6372054219245911,-9.640623092651367
1745733408.5770838,0.010792871937155724,-0.021896976977586746,-0.290282666683197,0.572252631187439,-0.9528371691703796,-9.879937171936035
1745733408.5776632,0.029746348038315773,-0.01678427681326866,-0.28817182779312134,0.34068822860717773,-0.5405826568603516,-9.793817520141602
1745733408.5801277,0.021985523402690887,-0.01855435036122799,-0.2889639139175415,0.4063364863395691,-0.9802348017692566,-9.694684982299805
1745733408.6166682,0.023009032011032104,-0.022505950182676315,-0.28837186098098755,0.4572980999946594,-0.6713598370552063,-9.665165901184082
1745733408.6194386,0.02912285551428795,-0.01780945435166359,-0.28589630126953125,0.3391381800174713,-0.998425304889679,-9.952493667602539
1745733408.6231544,0.016559313982725143,-0.02131219580769539,-0.28456470370292664,0.45940709114074707,-0.7680066227912903,-9.739240646362305
1745733408.6268506,0.023592475801706314,-0.017601890489459038,-0.28656309843063354,0.34020015597343445,-0.8591564893722534,-9.6515531539917
1745733408.6301563,0.009018549695611,-0.01935596950352192,-0.28602543473243713,0.5408541560173035,-0.9430890083312988,-9.656170845031738
1745733408.66312,0.02264435775578022,-0.023001551628112793,-0.28951144218444824,0.3581051528453827,-0.5428831577301025,-9.77055835723877
1745733408.666452,0.00902443565428257,-0.01582908444106579,-0.2878408432006836,0.4250968098640442,-1.0070140361785889,-9.859713554382324
1745733408.6678479,0.01860712096095085,-0.01904490403831005,-0.28981950879096985,0.4351291060447693,-0.6324719190597534,-9.592484474182129
1745733408.6704302,0.02072581835091114,-0.018736176192760468,-0.2879577577114105,0.36228400468826294,-0.9388028383255005,-9.753885269165039
1745733408.7037704,0.01261896826326847,-0.023344364017248154,-0.28559964895248413,0.42235416173934937,-0.7210096716880798,-9.894911766052246
1745733408.7079601,0.03366606682538986,-0.01245862990617752,-0.2881074845790863,0.31075796484947205,-0.7161380648612976,-9.786612510681152
1745733408.7109852,0.013384444639086723,-0.020372610539197922,-0.2868998944759369,0.46250277757644653,-0.9410519599914551,-9.54316520690918
1745733408.7130156,0.028281306847929955,-0.021983090788125992,-0.2882230281829834,0.3982178270816803,-0.6119758486747742,-9.592756271362305
1745733408.746069,0.010544808581471443,-0.020326802507042885,-0.2886502146720886,0.5036662220954895,-1.1241557598114014,-10.025938034057617
1745733408.7483985,0.020542364567518234,-0.016581345349550247,-0.2867162823677063,0.3539571464061737,-0.6977230310440063,-9.827690124511719
1745733408.7497005,0.0040496280416846275,-0.014790031127631664,-0.2900092303752899,0.3911969065666199,-1.0795907974243164,-9.585652351379395
1745733408.7520106,-0.002880644518882036,-0.02212453819811344,-0.28645434975624084,0.49023523926734924,-0.7904096841812134,-9.594198226928711
1745733408.75654,0.017024654895067215,-0.017725981771945953,-0.2870480418205261,0.3650028109550476,-0.7640608549118042,-9.924646377563477
1745733408.7941349,-0.0013739082496613264,-0.0187375508248806,-0.2885509133338928,0.44451045989990234,-0.7245303988456726,-9.880034446716309
1745733408.7954714,0.02335469052195549,-0.01648825779557228,-0.2901441156864166,0.3081892132759094,-0.6813760995864868,-9.482942581176758
1745733408.797844,0.004443588200956583,-0.015493270941078663,-0.28976374864578247,0.4433289170265198,-0.8666484951972961,-9.583581924438477
1745733408.7979894,0.023840587586164474,-0.022754481062293053,-0.2890714406967163,0.4001288414001465,-0.6650517582893372,-9.931692123413086
1745733408.8325086,0.012755468487739563,-0.010673304088413715,-0.28735142946243286,0.41306638717651367,-0.9879522323608398,-9.967355728149414
1745733408.838314,0.0159127376973629,-0.017799030989408493,-0.28881824016571045,0.40627822279930115,-0.7053691744804382,-9.564261436462402
1745733408.8384356,0.02083132602274418,-0.01802602782845497,-0.2842753231525421,0.3802761137485504,-0.8637255430221558,-9.555766105651855
1745733408.84017,0.0019829131197184324,-0.022149378433823586,-0.2873033583164215,0.4868856370449066,-0.7218536138534546,-9.880789756774902
1745733408.8418722,0.03415810316801071,-0.01457622367888689,-0.2878645062446594,0.37519949674606323,-0.8047969937324524,-9.942590713500977
1745733408.8771782,0.010612537153065205,-0.016753114759922028,-0.2881230413913727,0.40605610609054565,-0.8164445161819458,-9.59122085571289
1745733408.8794768,0.019501255825161934,-0.021686647087335587,-0.28970208764076233,0.400138795375824,-0.6807642579078674,-9.512055397033691
1745733408.8805244,0.017973240464925766,-0.013360509648919106,-0.2886040210723877,0.4349943697452545,-0.9887256622314453,-9.81522274017334
1745733408.8833823,0.015544012188911438,-0.017179293558001518,-0.28793537616729736,0.32849812507629395,-0.6400694251060486,-9.884705543518066
1745733408.9210303,-0.002544818678870797,-0.019116610288619995,-0.2825641632080078,0.5209048986434937,-0.9102045893669128,-9.818300247192383
1745733408.9246187,0.022786974906921387,-0.018961209803819656,-0.28450894355773926,0.3957201838493347,-0.6709637641906738,-9.838579177856445
1745733408.9308383,0.0013357446296140552,-0.01617991365492344,-0.282121479511261,0.4413093030452728,-1.0509904623031616,-9.708613395690918
1745733408.9309053,0.005149408243596554,-0.0194107536226511,-0.2845485806465149,0.4175472855567932,-0.67969810962677,-9.57115364074707
1745733408.9610996,0.010533341206610203,-0.014015075750648975,-0.2819824814796448,0.435279905796051,-0.9774730801582336,-9.78300666809082
1745733408.9628878,-0.003438058076426387,-0.020090963691473007,-0.2816410958766937,0.3943970799446106,-0.6619060039520264,-9.888992309570312
1745733408.9637742,0.022589582949876785,-0.014645477756857872,-0.28260868787765503,0.3923749327659607,-0.7819584012031555,-9.802545547485352
1745733408.9642122,0.0005026919534429908,-0.018630892038345337,-0.2817663550376892,0.48725318908691406,-0.8334066271781921,-9.686431884765625
1745733409.0036705,0.027098486199975014,-0.02028314583003521,-0.2814517021179199,0.33621451258659363,-0.6772454380989075,-9.706674575805664
1745733409.0067494,0.0014010804006829858,-0.019816970452666283,-0.2829722762107849,0.4829854369163513,-1.0457178354263306,-9.855807304382324
1745733409.0106163,0.015402151271700859,-0.01890910603106022,-0.28263425827026367,0.30734747648239136,-0.6662249565124512,-9.677911758422852
1745733409.01635,0.010489808395504951,-0.013196798972785473,-0.28177744150161743,0.444054514169693,-0.9662235379219055,-9.562886238098145
1745733409.0206566,-0.003326139645650983,-0.024351784959435463,-0.2819487154483795,0.42511868476867676,-0.6682033538818359,-9.664288520812988
1745733409.0469391,0.009648293256759644,-0.017097191885113716,-0.28436532616615295,0.45669063925743103,-0.9869549870491028,-10.034219741821289
1745733409.0489912,-0.004673491232097149,-0.017602290958166122,-0.28428059816360474,0.4239424765110016,-0.691179096698761,-9.87401294708252
1745733409.0511708,0.010347982868552208,-0.019426096230745316,-0.283485472202301,0.324904203414917,-0.8268850445747375,-9.604065895080566
1745733409.0528445,-0.00016537494957447052,-0.017756644636392593,-0.283498078584671,0.5164653658866882,-0.896074652671814,-9.571877479553223
1745733409.0899734,0.0031947996467351913,-0.024158962070941925,-0.28139081597328186,0.35732898116111755,-0.7866213321685791,-9.918388366699219
1745733409.0938687,0.0005682138726115227,-0.017060954123735428,-0.2796483039855957,0.4555227756500244,-1.0074228048324585,-9.872068405151367
1745733409.0972493,-0.005573289003223181,-0.021761659532785416,-0.27924662828445435,0.356131374835968,-0.6152795553207397,-9.556283950805664
1745733409.0984805,0.004539438523352146,-0.019826870411634445,-0.2817440629005432,0.3903074860572815,-0.9448193311691284,-9.6533842086792
1745733409.1014006,-0.012377118691802025,-0.024891847744584084,-0.28280916810035706,0.4733649790287018,-0.60817950963974,-9.8666410446167
1745733409.1335394,0.0016758751589804888,-0.020165659487247467,-0.283089816570282,0.4099448323249817,-0.8793139457702637,-10.001877784729004
1745733409.140087,0.0011028973385691643,-0.026286879554390907,-0.28132110834121704,0.3341275751590729,-0.6932536959648132,-9.52607536315918
1745733409.1422977,-0.0014796869363635778,-0.021699149161577225,-0.281235933303833,0.5122643709182739,-0.9794608950614929,-9.81878662109375
1745733409.1450777,0.006149323657155037,-0.019798284396529198,-0.2823859751224518,0.35681042075157166,-0.4625527262687683,-9.856033325195312
1745733409.1799066,0.016082417219877243,-0.021589618176221848,-0.28082218766212463,0.47948676347732544,-0.9758695363998413,-9.704652786254883
1745733409.1802776,0.0032770305406302214,-0.024994732812047005,-0.28083229064941406,0.4076251983642578,-0.5522937774658203,-9.569440841674805
1745733409.182701,0.021117031574249268,-0.02223719097673893,-0.2832276225090027,0.3376375138759613,-0.9645742177963257,-9.941610336303711
1745733409.1856298,-0.00024149342789314687,-0.022622238844633102,-0.28336167335510254,0.4130166471004486,-0.8049772381782532,-9.880924224853516
1745733409.2229667,0.009449371136724949,-0.019152607768774033,-0.2812754213809967,0.2916002571582794,-0.8074718713760376,-9.628371238708496
1745733409.2252014,-0.0011908222222700715,-0.023549558594822884,-0.28126803040504456,0.5311303734779358,-1.0217869281768799,-9.56898307800293
1745733409.2277355,0.0013049300760030746,-0.02348141185939312,-0.2824745774269104,0.30427974462509155,-0.5776023864746094,-9.771562576293945
1745733409.234408,-0.009412246756255627,-0.018187265843153,-0.28384512662887573,0.5350910425186157,-1.015617847442627,-9.967874526977539
1745733409.2637792,0.005378330126404762,-0.017469093203544617,-0.2820942997932434,0.4045926034450531,-0.5194082856178284,-9.598483085632324
1745733409.2663329,0.01781388372182846,-0.02067657932639122,-0.28660622239112854,0.26788872480392456,-0.6587017774581909,-9.78115177154541
1745733409.2694297,-0.006413751747459173,-0.020668309181928635,-0.28399938344955444,0.4291144013404846,-0.8151319622993469,-9.644712448120117
1745733409.2736108,0.012521704658865929,-0.02086307480931282,-0.2869251072406769,0.31304019689559937,-0.5266097784042358,-9.650602340698242
1745733409.3059998,0.013310630805790424,-0.0185479037463665,-0.28756648302078247,0.48759907484054565,-0.870685875415802,-9.781129837036133
1745733409.3082275,0.006746852304786444,-0.020604487508535385,-0.28848952054977417,0.36649391055107117,-0.5587477087974548,-9.743446350097656
1745733409.3108053,0.013574406504631042,-0.016149384900927544,-0.2883748710155487,0.43951335549354553,-0.9550479650497437,-9.776390075683594
1745733409.3132086,0.006189404986798763,-0.018404483795166016,-0.2874884009361267,0.43893980979919434,-0.6685241460800171,-9.690897941589355
1745733409.316667,0.01483761053532362,-0.01842031255364418,-0.28871193528175354,0.3332492411136627,-0.7947031259536743,-9.831132888793945
1745733409.3520937,0.008348251692950726,-0.017145082354545593,-0.28740108013153076,0.5147129893302917,-0.8077203631401062,-9.800775527954102
1745733409.3546882,0.0196542926132679,-0.018245549872517586,-0.28631165623664856,0.29461249709129333,-0.6586383581161499,-9.763998031616211
1745733409.3576894,0.009557140059769154,-0.016794240102171898,-0.28644901514053345,0.4562501013278961,-0.8924959897994995,-9.635804176330566
1745733409.3611774,0.013333181850612164,-0.021751368418335915,-0.28501981496810913,0.32663020491600037,-0.6093535423278809,-9.704416275024414
1745733409.3937464,0.019843004643917084,-0.01126695517450571,-0.2875273823738098,0.4077741205692291,-0.9572834968566895,-9.83906364440918
1745733409.3938599,0.014098957180976868,-0.01769052818417549,-0.2877029478549957,0.44232481718063354,-0.4988180994987488,-9.658421516418457
1745733409.3953314,0.0232533011585474,-0.014196622185409069,-0.2865748107433319,0.37716540694236755,-0.8639407157897949,-9.730826377868652
1745733409.3979182,0.019578728824853897,-0.01658027619123459,-0.2861095368862152,0.4830622673034668,-0.7087239027023315,-9.786111831665039
1745733409.399428,0.03584076464176178,-0.013647601008415222,-0.28828680515289307,0.2556955814361572,-0.6068584322929382,-9.862641334533691
1745733409.4396718,0.023111414164304733,-0.015046961605548859,-0.28657814860343933,0.4829825460910797,-0.8762022256851196,-9.68725872039795
1745733409.4439588,0.03866741806268692,-0.011702602729201317,-0.2889391779899597,0.37812331318855286,-0.4214754104614258,-9.628475189208984
1745733409.44533,0.0318048894405365,-0.01622028462588787,-0.2885643243789673,0.47732654213905334,-1.0806715488433838,-9.877878189086914
1745733409.4495947,0.03237595409154892,-0.01673974096775055,-0.28894320130348206,0.424785852432251,-0.574419379234314,-9.765548706054688
1745733409.479357,0.031013518571853638,-0.010205714032053947,-0.2870132625102997,0.37740764021873474,-1.0688583850860596,-9.798117637634277
1745733409.4814675,0.023081820458173752,-0.017373910173773766,-0.2858274281024933,0.41695985198020935,-0.7085276246070862,-9.626016616821289
1745733409.4859416,0.04325978085398674,-0.013066637329757214,-0.2882567048072815,0.3217669129371643,-0.5060808062553406,-9.769689559936523
1745733409.4891407,0.026912624016404152,-0.01529192365705967,-0.2917197346687317,0.4285373091697693,-0.9245277643203735,-9.687986373901367
1745733409.52145,0.03570493310689926,-0.01675383374094963,-0.2888178825378418,0.37800535559654236,-0.6436763405799866,-9.573649406433105
1745733409.525344,0.03242332488298416,-0.011772994883358479,-0.28990012407302856,0.41874152421951294,-0.9665422439575195,-9.84266185760498
1745733409.5265403,0.024882808327674866,-0.019836006686091423,-0.2890544533729553,0.5393801927566528,-0.7492853403091431,-9.814102172851562
1745733409.5287087,0.033222101628780365,-0.010673964396119118,-0.2868852913379669,0.338559091091156,-0.8489145040512085,-9.802934646606445
1745733409.563649,0.01591826230287552,-0.01753081940114498,-0.28729861974716187,0.5137439966201782,-0.8592237234115601,-9.715890884399414
1745733409.565667,0.038140952587127686,-0.01664990559220314,-0.2872145473957062,0.31392592191696167,-0.5835968255996704,-9.709757804870605
1745733409.5694287,0.01592371053993702,-0.0183100625872612,-0.2888193726539612,0.49523091316223145,-0.8519675135612488,-9.843053817749023
1745733409.5706568,0.044658731669187546,-0.016617126762866974,-0.289118230342865,0.3644178509712219,-0.5767671465873718,-9.701131820678711
1745733409.6093113,0.037058454006910324,-0.014303961768746376,-0.28750455379486084,0.3456050455570221,-0.854464054107666,-9.68616008758545
1745733409.6125622,0.03471769019961357,-0.01885685697197914,-0.2903270423412323,0.4535713195800781,-0.639918863773346,-9.64626407623291
1745733409.6184857,0.022563662379980087,-0.024080675095319748,-0.28153806924819946,0.5035701990127563,-0.8485268354415894,-9.748495101928711
1745733409.6205635,0.040888212621212006,-0.01859433762729168,-0.2785050570964813,0.26667851209640503,-0.7018720507621765,-9.884199142456055
1745733409.651127,0.027471402660012245,-0.019829055294394493,-0.2804102599620819,0.4635500907897949,-0.9736804962158203,-9.79944133758545
1745733409.6542425,0.036143649369478226,-0.02294284664094448,-0.2821405827999115,0.31868746876716614,-0.6467832326889038,-9.607276916503906
1745733409.6543128,0.023025285452604294,-0.01899966038763523,-0.28080910444259644,0.4358084201812744,-1.0693804025650024,-9.72154426574707
1745733409.658582,0.030801739543676376,-0.02305125631392002,-0.2807016372680664,0.4476059377193451,-0.6829020977020264,-9.721044540405273
1745733409.6924143,0.02593108080327511,-0.01789880357682705,-0.2821265161037445,0.4050254225730896,-1.01833176612854,-9.795400619506836
1745733409.6948407,0.011702286079525948,-0.021646279841661453,-0.2796436548233032,0.530003011226654,-0.7823642492294312,-9.647238731384277
1745733409.697477,0.03277536854147911,-0.016794342547655106,-0.2799631357192993,0.339469850063324,-0.7879515886306763,-9.729036331176758
1745733409.6992118,0.010267633013427258,-0.023878488689661026,-0.27831655740737915,0.4514550268650055,-0.8941930532455444,-9.823348045349121
1745733409.7017667,0.03818157687783241,-0.018222585320472717,-0.27843374013900757,0.3137040436267853,-0.6565234661102295,-9.824321746826172
1745733409.737195,0.021258721128106117,-0.018728559836745262,-0.276899516582489,0.35990720987319946,-1.016181230545044,-9.776143074035645
1745733409.7397656,0.03329888731241226,-0.020447226241230965,-0.2776743769645691,0.30305910110473633,-0.5337506532669067,-9.519843101501465
1745733409.7424817,0.027806896716356277,-0.01711966097354889,-0.2778528332710266,0.40592947602272034,-1.0248626470565796,-9.735146522521973
1745733409.7458832,0.022547194734215736,-0.020972419530153275,-0.27902108430862427,0.4673326015472412,-0.7450973987579346,-9.795106887817383
1745733409.7787533,0.03807642310857773,-0.015083109959959984,-0.2807246148586273,0.44426479935646057,-0.8646547198295593,-9.795222282409668
1745733409.7816026,0.003955886233597994,-0.020504111424088478,-0.2772940993309021,0.4855373799800873,-0.989826500415802,-9.761038780212402
1745733409.7847931,0.029042482376098633,-0.017953014001250267,-0.27644747495651245,0.3335457146167755,-0.8614588975906372,-9.746175765991211
1745733409.7869742,0.0068076117895543575,-0.018070394173264503,-0.2788688540458679,0.4364870488643646,-0.9728237390518188,-9.810185432434082
1745733409.7885084,0.019593283534049988,-0.022532930597662926,-0.276946485042572,0.31633085012435913,-0.6657547354698181,-9.70838451385498
1745733409.8251045,0.019472207874059677,-0.012726031243801117,-0.2796224057674408,0.4431447982788086,-0.8366475105285645,-9.672916412353516
1745733409.8286784,0.0143838319927454,-0.02633507549762726,-0.27969232201576233,0.4053872525691986,-0.708835244178772,-9.711158752441406
1745733409.8318074,0.027332136407494545,-0.015545308589935303,-0.2801803946495056,0.3893997073173523,-0.9083917737007141,-9.806302070617676
1745733409.8362956,0.021003950387239456,-0.019581766799092293,-0.27672678232192993,0.34497031569480896,-0.702263355255127,-9.745965957641602
1745733409.865389,0.02247520722448826,-0.015146685764193535,-0.2776094377040863,0.44968074560165405,-0.837544322013855,-9.802001953125
1745733409.8684785,0.017250526696443558,-0.022512266412377357,-0.27970659732818604,0.40277567505836487,-0.5670889019966125,-9.726635932922363
1745733409.8712547,0.028623800724744797,-0.014543967321515083,-0.2798613905906677,0.4355010986328125,-1.0296634435653687,-9.724844932556152
1745733409.8734937,0.011227558366954327,-0.018439292907714844,-0.2805807888507843,0.37611594796180725,-0.7241107821464539,-9.70182991027832
1745733409.9091487,0.03014513850212097,-0.014927484095096588,-0.27693673968315125,0.36816978454589844,-0.9383115768432617,-9.798469543457031
1745733409.9130049,0.009028242900967598,-0.012224550358951092,-0.27723628282546997,0.45669111609458923,-0.8545352220535278,-9.71662712097168
1745733409.9153786,0.03449278324842453,-0.01898997649550438,-0.2783001959323883,0.3900718688964844,-0.7547909617424011,-9.734301567077637
1745733409.9187927,0.014329438097774982,-0.019891470670700073,-0.27679893374443054,0.515270471572876,-0.9452565908432007,-9.863089561462402
1745733409.9217026,0.023562133312225342,-0.01935267075896263,-0.2765039801597595,0.33645862340927124,-0.6611878275871277,-9.823451042175293
1745733409.9520202,0.02963825687766075,-0.011769975535571575,-0.27704426646232605,0.38984426856040955,-1.0481561422348022,-9.67650032043457
1745733409.9539146,0.012822483666241169,-0.018648844212293625,-0.2783789038658142,0.3748871684074402,-0.7150918245315552,-9.526301383972168
1745733409.9570107,0.02109522931277752,-0.016854096204042435,-0.27733129262924194,0.45331716537475586,-1.0552886724472046,-9.833612442016602
1745733409.9640455,-0.001060041249729693,-0.0199725478887558,-0.27939754724502563,0.4036213755607605,-0.8813396692276001,-9.957563400268555
1745733409.9958487,0.022893548011779785,-0.019186794757843018,-0.2796759009361267,0.31010520458221436,-0.791944682598114,-9.713189125061035
1745733409.9987788,-0.004080179147422314,-0.01924937404692173,-0.2791990339756012,0.4510658383369446,-1.1133241653442383,-9.627331733703613
1745733410.0010836,0.01135936751961708,-0.024857331067323685,-0.27867284417152405,0.3829730451107025,-0.6368660926818848,-9.683298110961914
1745733410.0069,-0.005193461664021015,-0.019082482904195786,-0.2787420153617859,0.46956777572631836,-1.0899569988250732,-9.973920822143555
1745733410.0379796,-0.004090601112693548,-0.022876959294080734,-0.2804704010486603,0.45386606454849243,-0.7149817943572998,-9.65109920501709
1745733410.039995,0.0012182516511529684,-0.0180258397012949,-0.27990782260894775,0.4112686216831207,-0.8876854181289673,-9.586853981018066
1745733410.0434737,-0.021500956267118454,-0.02452888712286949,-0.2794613242149353,0.44135966897010803,-0.8848437070846558,-9.81619644165039
1745733410.0476737,0.006354034878313541,-0.020247584208846092,-0.27913346886634827,0.33002424240112305,-0.7842646837234497,-9.934309959411621
1745733410.0562432,-0.015380571596324444,-0.018941393122076988,-0.2778027653694153,0.3976302146911621,-0.8530624508857727,-9.718050956726074
1745733410.081993,0.00793481059372425,-0.026084084063768387,-0.279153972864151,0.33439740538597107,-0.57261723279953,-9.556984901428223
1745733410.0852811,0.002285799477249384,-0.01891496777534485,-0.28127583861351013,0.5010545253753662,-0.8176323175430298,-9.79284954071045
1745733410.0866215,0.005419563502073288,-0.028064453974366188,-0.2778390944004059,0.42179736495018005,-0.6955639123916626,-9.877507209777832
1745733410.0888536,0.012714016251266003,-0.018201148137450218,-0.28030121326446533,0.41452184319496155,-0.9294436573982239,-9.740274429321289
1745733410.1327202,-0.008196697570383549,-0.02459382452070713,-0.27754560112953186,0.4375024735927582,-0.8706781268119812,-9.595355033874512
1745733410.1328185,0.00946794729679823,-0.020629853010177612,-0.27866315841674805,0.32945799827575684,-0.8692063093185425,-9.718953132629395
1745733410.1344788,-0.018781403079628944,-0.02295457012951374,-0.27772393822669983,0.5164477825164795,-0.8349543809890747,-9.80231761932373
1745733410.1385114,0.004034515470266342,-0.023743722587823868,-0.2804010212421417,0.37479549646377563,-0.7311391830444336,-9.840269088745117
1745733410.1674294,-0.004388169851154089,-0.01858609914779663,-0.28033989667892456,0.5133606791496277,-0.8884671330451965,-9.74665641784668
1745733410.1688123,-0.003856989787891507,-0.028724616393446922,-0.28027400374412537,0.31739234924316406,-0.640405535697937,-9.68659782409668
1745733410.1710465,0.0017487413715571165,-0.017072288319468498,-0.2787875533103943,0.39211171865463257,-1.0771185159683228,-9.721487998962402
1745733410.1734755,-0.0054849074222147465,-0.018834490329027176,-0.2797606289386749,0.34665971994400024,-0.6263093948364258,-9.627911567687988
1745733410.2085524,-0.005009515676647425,-0.02439013496041298,-0.27945441007614136,0.35377317667007446,-0.6546483635902405,-9.637751579284668
1745733410.21139,-0.0022001671604812145,-0.019102560356259346,-0.27927732467651367,0.5262239575386047,-1.03727126121521,-9.657890319824219
1745733410.2151601,-0.01055540144443512,-0.026724647730588913,-0.27965864539146423,0.3498912453651428,-0.5569735169410706,-9.702186584472656
1745733410.2158852,-0.0010208210442215204,-0.018164169043302536,-0.2773447632789612,0.4564131200313568,-0.9167026281356812,-9.84620189666748
1745733410.218795,-0.004168482031673193,-0.019593510776758194,-0.2809206545352936,0.447498083114624,-0.6164336204528809,-9.653227806091309
1745733410.260328,0.010456409305334091,-0.02183591015636921,-0.2795185446739197,0.26978328824043274,-0.7021298408508301,-9.724510192871094
1745733410.2646818,0.00084375572623685,-0.022368784993886948,-0.2814459502696991,0.5207000374794006,-0.8484490513801575,-9.812467575073242
1745733410.264821,0.011498618870973587,-0.02369268238544464,-0.27956703305244446,0.2769373655319214,-0.7248256802558899,-9.885645866394043
1745733410.264859,0.00510975020006299,-0.019232138991355896,-0.27930957078933716,0.4364573359489441,-1.0380761623382568,-9.651240348815918
1745733410.2964246,-0.0054197655990719795,-0.024633614346385002,-0.2793828248977661,0.38786354660987854,-0.720840573310852,-9.539690017700195
1745733410.2991452,0.00023174956731963903,-0.01975223980844021,-0.2790038287639618,0.4458301067352295,-1.0750538110733032,-9.7949800491333
1745733410.3028405,-0.011666553094983101,-0.020969152450561523,-0.2801138460636139,0.4959161877632141,-0.6057515740394592,-9.788792610168457
1745733410.3055341,-0.005038506351411343,-0.019398581236600876,-0.28045225143432617,0.3531493544578552,-0.8566755056381226,-9.810126304626465
1745733410.306275,-0.013745645992457867,-0.02073248103260994,-0.28179481625556946,0.5231993794441223,-0.8077942132949829,-9.651338577270508
1745733410.3399723,0.013393580913543701,-0.014988330192863941,-0.28027284145355225,0.39980247616767883,-0.8077850341796875,-9.8233642578125
1745733410.342829,-0.001902405871078372,-0.013564703986048698,-0.2813860774040222,0.49423956871032715,-0.7841957211494446,-9.817373275756836
1745733410.3441858,0.016224348917603493,-0.018751483410596848,-0.28206974267959595,0.31600072979927063,-0.5658068060874939,-9.711496353149414
1745733410.3524358,0.014677664265036583,-0.01572183147072792,-0.28073689341545105,0.4794544279575348,-0.8255118131637573,-9.763888359069824
1745733410.3811495,0.021595492959022522,-0.02135341241955757,-0.28090786933898926,0.32453757524490356,-0.6068393588066101,-9.834199905395508
1745733410.3838415,0.02937014400959015,-0.014544742181897163,-0.2801365852355957,0.37949562072753906,-0.858744740486145,-9.730656623840332
1745733410.3860283,0.014185527339577675,-0.02118777297437191,-0.2796395719051361,0.4128941595554352,-0.7638732194900513,-9.62330150604248
1745733410.3887372,0.03411494195461273,-0.015279730781912804,-0.2787880599498749,0.34662729501724243,-0.8249419927597046,-9.735822677612305
1745733410.4240794,0.011688604950904846,-0.016949331387877464,-0.2808580696582794,0.5118387937545776,-0.7679479718208313,-9.791633605957031
1745733410.4266715,0.025692209601402283,-0.016210874542593956,-0.2811850607395172,0.40203362703323364,-0.6839359998703003,-9.83111572265625
1745733410.4294262,0.016269369050860405,-0.015860799700021744,-0.2839992046356201,0.5453610420227051,-0.9679625630378723,-9.79062557220459
1745733410.4316597,0.022049563005566597,-0.020613085478544235,-0.2818627953529358,0.31819280982017517,-0.619371771812439,-9.725664138793945
1745733410.433447,0.016468046233057976,-0.017259377986192703,-0.28215163946151733,0.4232786297798157,-1.0871589183807373,-9.761670112609863
1745733410.4683428,0.013667384162545204,-0.016147678717970848,-0.2800235152244568,0.3892787992954254,-0.585426390171051,-9.692770004272461
1745733410.4725425,0.023553673177957535,-0.018596192821860313,-0.27988097071647644,0.35795480012893677,-0.8984030485153198,-9.762112617492676
1745733410.4764342,0.013093089684844017,-0.019433313980698586,-0.28140613436698914,0.48690685629844666,-0.6512008905410767,-9.673333168029785
1745733410.4788575,0.03287176787853241,-0.01749981939792633,-0.2804703414440155,0.34569185972213745,-0.7115705013275146,-9.850096702575684
1745733410.5096533,0.018648535013198853,-0.019467944279313087,-0.28021082282066345,0.48727792501449585,-0.8846539258956909,-9.862394332885742
1745733410.514585,0.027837377041578293,-0.01921777054667473,-0.28134384751319885,0.3532008230686188,-0.6012709140777588,-9.711050987243652
1745733410.5147252,0.020276397466659546,-0.017126398161053658,-0.28024592995643616,0.48063573241233826,-1.108782410621643,-9.734489440917969
1745733410.516051,0.028098085895180702,-0.020590409636497498,-0.281552255153656,0.37335580587387085,-0.5407871007919312,-9.720830917358398
1745733410.517853,0.025227015838027,-0.01634281501173973,-0.28296664357185364,0.43644338846206665,-0.9067853093147278,-9.857547760009766
1745733410.5575871,0.02771742083132267,-0.02320973202586174,-0.2787579596042633,0.3165047764778137,-0.6108426451683044,-9.623529434204102
1745733410.5610337,0.020710870623588562,-0.019161304458975792,-0.27863121032714844,0.41809114813804626,-1.0354092121124268,-9.829056739807129
1745733410.5642445,0.02696278691291809,-0.02032480761408806,-0.27991050481796265,0.4583166539669037,-0.5848528146743774,-9.707854270935059
1745733410.5680256,0.02845974639058113,-0.015987727791070938,-0.2798408567905426,0.29420575499534607,-0.7899961471557617,-9.711069107055664
1745733410.5991263,0.014628464356064796,-0.02169789746403694,-0.281005322933197,0.5419430732727051,-0.778894305229187,-9.668929100036621
1745733410.6020567,0.037273626774549484,-0.01813739538192749,-0.2841396927833557,0.368269145488739,-0.7246285676956177,-9.807769775390625
1745733410.6052713,0.012994559481739998,-0.02003168687224388,-0.27875691652297974,0.42780405282974243,-1.0016071796417236,-9.936341285705566
1745733410.6088927,0.03310949727892876,-0.018603559583425522,-0.28012317419052124,0.3332296311855316,-0.6279135942459106,-9.72180461883545
1745733410.6400487,0.017608145251870155,-0.018514079973101616,-0.2769455313682556,0.4137614369392395,-1.0649631023406982,-9.692891120910645
1745733410.643094,0.026595253497362137,-0.02402980998158455,-0.27629056572914124,0.42969006299972534,-0.48521924018859863,-9.605452537536621
1745733410.6471462,0.023442532867193222,-0.01839999482035637,-0.2784707844257355,0.4248860478401184,-0.9341219067573547,-9.923667907714844
1745733410.6508827,0.024852214381098747,-0.021970205008983612,-0.2793138921260834,0.3740150034427643,-0.7388421893119812,-9.762292861938477
1745733410.6547647,0.04182206094264984,-0.015961304306983948,-0.2766726016998291,0.19949857890605927,-0.719501256942749,-9.551340103149414
1745733410.685053,0.00795879028737545,-0.021610906347632408,-0.27353987097740173,0.30896589159965515,-1.0890673398971558,-9.654487609863281
1745733410.6864932,-0.009187418036162853,-0.037235062569379807,-0.22493508458137512,0.1497063934803009,-0.7384949922561646,-10.007606506347656
1745733410.6892688,-0.006675027310848236,-0.021741559728980064,-0.2228638231754303,0.26485633850097656,-1.0772020816802979,-10.00971508026123
1745733410.695832,-0.027687042951583862,-0.0289679616689682,-0.22270026803016663,0.14222154021263123,-0.6153548359870911,-9.423357963562012
1745733410.7302856,-0.010333928279578686,-0.029718076810240746,-0.2193867713212967,0.24310609698295593,-0.9989047050476074,-9.52112865447998
1745733410.73291,-0.03281467780470848,-0.03235180303454399,-0.21908509731292725,0.35200491547584534,-0.4445722699165344,-9.956464767456055
1745733410.7365294,-0.010906397365033627,-0.024153143167495728,-0.21927733719348907,0.13590355217456818,-0.9124201536178589,-10.20402717590332
1745733410.739128,-0.008715389296412468,-0.027199674397706985,-0.21731479465961456,0.11817572265863419,-0.5967071652412415,-9.481815338134766
1745733410.7447567,-0.024236023426055908,-0.03016015514731407,-0.21301133930683136,0.07302188873291016,-0.8502837419509888,-9.415594100952148
1745733410.7704604,-0.016483565792441368,-0.03221122547984123,-0.20812587440013885,0.1412498503923416,-0.984649658203125,-10.019471168518066
1745733410.7743413,-0.02647804282605648,-0.02851518616080284,-0.20660190284252167,-0.019618872553110123,-0.5564892888069153,-10.021210670471191
1745733410.780256,-0.023801151663064957,-0.023930273950099945,-0.20573925971984863,0.030766749754548073,-0.9947474598884583,-9.607792854309082
1745733410.7803283,-0.03873378038406372,-0.03761106729507446,-0.20405688881874084,0.17592275142669678,-0.5393182635307312,-9.387527465820312
1745733410.8137376,-0.03049568459391594,-0.03596167638897896,-0.20301374793052673,0.14921149611473083,-0.8542049527168274,-10.123908996582031
1745733410.8165495,-0.04638681560754776,-0.034980565309524536,-0.20159372687339783,0.19453522562980652,-0.7399951219558716,-10.17749309539795
1745733410.818998,-0.02651812694966793,-0.029573390260338783,-0.19708485901355743,0.034230757504701614,-0.8651279211044312,-9.541032791137695
1745733410.8233447,-0.05759625509381294,-0.03697908669710159,-0.19069954752922058,0.15144097805023193,-0.9450527429580688,-9.318072319030762
1745733410.8559692,-0.042932696640491486,-0.042167723178863525,-0.18870492279529572,0.0925261378288269,-0.6569836735725403,-9.941202163696289
1745733410.8584106,-0.04112791270017624,-0.03087168000638485,-0.1856326311826706,0.10616827011108398,-0.7022185325622559,-10.207582473754883
1745733410.8588798,-0.04568912461400032,-0.03416262939572334,-0.18562132120132446,0.0549481026828289,-0.4756830632686615,-9.580066680908203
1745733410.863534,-0.025213856250047684,-0.03817535191774368,-0.18692170083522797,0.12001854181289673,-0.6777577996253967,-9.405497550964355
1745733410.8636756,-0.050732195377349854,-0.047740720212459564,-0.18639685213565826,0.1728321611881256,-0.6467479467391968,-9.961799621582031
1745733410.900377,-0.01949935033917427,-0.032151419669389725,-0.18648019433021545,0.008523600175976753,-0.7660136222839355,-10.136226654052734
1745733410.9023328,-0.05949167162179947,-0.03772206977009773,-0.1834421157836914,0.1740378886461258,-0.8835543394088745,-9.533024787902832
1745733410.9040942,-0.05890542268753052,-0.03465970233082771,-0.1852148026227951,-0.010237215086817741,-0.6673330664634705,-10.075178146362305
1745733410.9199216,-0.057544149458408356,-0.020482001826167107,-0.17650271952152252,0.06986641138792038,-1.072364091873169,-9.58278751373291
1745733410.9432445,-0.08935971558094025,-0.0456920862197876,-0.1679094135761261,0.4286448359489441,-0.8267949223518372,-9.311324119567871
1745733410.944366,-0.05640502646565437,-0.030830437317490578,-0.16126728057861328,0.06524023413658142,-0.9467606544494629,-10.232267379760742
1745733410.946871,-0.08990102261304855,-0.015261995606124401,-0.15729832649230957,0.2760002613067627,-0.6206499338150024,-9.96329402923584
1745733410.9493797,-0.06133617088198662,-0.039775192737579346,-0.15613871812820435,0.3215287923812866,-0.29633456468582153,-9.391984939575195
1745733410.9849453,-0.07505367696285248,-0.04402923956513405,-0.16096660494804382,0.37153539061546326,-0.3501254916191101,-9.827042579650879
1745733410.9879255,-0.06391578912734985,-0.03278810530900955,-0.1610269993543625,-0.010726802051067352,-0.3516426086425781,-10.374496459960938
1745733410.9927933,-0.04972103610634804,-0.03215509653091431,-0.16159629821777344,0.1288650780916214,-0.5320709347724915,-9.72888469696045
1745733410.9967463,-0.05158311128616333,-0.03850501403212547,-0.15481355786323547,0.19621172547340393,-0.48275214433670044,-9.168933868408203
1745733410.9986753,-0.03404839336872101,-0.03691338747739792,-0.15197834372520447,0.11278192698955536,-0.6107989549636841,-9.880688667297363
1745733411.0306268,-0.04758462309837341,-0.03464428707957268,-0.145596444606781,0.29892653226852417,-0.6851305365562439,-10.344971656799316
1745733411.0357077,-0.013084448873996735,-0.026207178831100464,-0.14047829806804657,0.17757545411586761,-0.5594199895858765,-9.634163856506348
1745733411.0391243,-0.021803636103868484,0.021060314029455185,-0.18138061463832855,0.2288086861371994,-0.6411410570144653,-9.630024909973145
1745733411.0443664,-0.029174525290727615,0.013356122188270092,-0.1802576780319214,0.3291088938713074,-0.5948205590248108,-9.046598434448242
1745733411.0723646,-0.008105847984552383,0.013119066134095192,-0.1786731779575348,0.31397733092308044,-0.5073859095573425,-9.801764488220215
1745733411.082127,-0.024352796375751495,0.016198474913835526,-0.17969748377799988,0.49183350801467896,-0.4848473072052002,-10.387563705444336
1745733411.0822508,0.01136532612144947,0.025619130581617355,-0.18273605406284332,0.2813454270362854,-0.27053385972976685,-9.763769149780273
1745733411.082336,-0.016826855018734932,0.01757379062473774,-0.18396151065826416,0.4391864836215973,-0.5435897707939148,-9.237082481384277
1745733411.1174698,0.005093217361718416,0.007035143673419952,-0.18675652146339417,0.36630529165267944,-0.2669709324836731,-9.738203048706055
1745733411.1224644,-0.003290982451289892,0.018515335395932198,-0.18952596187591553,0.3969535231590271,-0.5541062355041504,-10.313653945922852
1745733411.1257932,0.012016288004815578,0.021828804165124893,-0.1915968954563141,0.33284857869148254,-0.3113924562931061,-9.686339378356934
1745733411.1286252,0.008248703554272652,0.020058806985616684,-0.19249586760997772,0.3046061396598816,-0.5367067456245422,-9.198221206665039
1745733411.1297092,-0.0008476680377498269,0.009188845753669739,-0.1909509003162384,0.4793696403503418,-0.5262546539306641,-9.733070373535156
1745733411.1580887,0.03677442669868469,0.018318649381399155,-0.19085732102394104,0.3098345398902893,-0.4801628589630127,-10.30302619934082
1745733411.1600475,0.00012065786722814664,0.023273197934031487,-0.19125968217849731,0.4004073739051819,-0.6854223012924194,-9.8641996383667
1745733411.1644235,0.03953082486987114,0.019045934081077576,-0.18879210948944092,0.2436121255159378,-0.46976107358932495,-9.221623420715332
1745733411.176001,0.0048540993593633175,0.013175452128052711,-0.19164179265499115,0.3625149130821228,-0.7769330739974976,-9.65428638458252
1745733411.2021377,0.02374190092086792,0.015666935592889786,-0.19323506951332092,0.36808204650878906,-0.47994598746299744,-10.151615142822266
1745733411.2021923,0.013487130403518677,0.02612609602510929,-0.19339033961296082,0.33298465609550476,-0.7006787061691284,-9.826044082641602
1745733411.2048101,-0.009032052010297775,0.012129170820116997,-0.19453246891498566,0.4003152847290039,-0.6154332160949707,-9.374597549438477
1745733411.2058496,0.0011870780726894736,0.008580144494771957,-0.19414882361888885,0.4430003762245178,-0.7711189985275269,-9.69653606414795
1745733411.2874517,-0.023892758414149284,0.017945511266589165,-0.1926618069410324,0.4707772135734558,-0.7498993277549744,-10.167485237121582
1745733411.2875872,0.0023330077528953552,0.01648997887969017,-0.19485071301460266,0.24740517139434814,-0.35611918568611145,-9.74017333984375
1745733411.2877538,-0.03435898944735527,0.01043738890439272,-0.1895691454410553,0.3669620752334595,-0.6995525360107422,-9.387835502624512
1745733411.2878036,0.014553258195519447,0.013145776465535164,-0.19361767172813416,0.29721012711524963,-0.12038905918598175,-9.546564102172852
1745733411.28785,0.00022451840050052851,0.01774241030216217,-0.19325129687786102,0.3090098798274994,-0.376411110162735,-10.05074691772461
1745733411.2878914,0.0198690053075552,0.010305363684892654,-0.19396932423114777,0.35947534441947937,-0.25936633348464966,-9.840062141418457
1745733411.2881753,0.04218892753124237,0.015538918785750866,-0.19622354209423065,0.2797676920890808,-0.40379220247268677,-9.553976058959961
1745733411.2933753,0.01702629216015339,0.005057247821241617,-0.19380143284797668,0.3648826479911804,-0.6369026899337769,-9.666946411132812
1745733411.2934685,0.04721726104617119,0.013756518252193928,-0.1920052021741867,0.3631660044193268,-0.5690781474113464,-9.815963745117188
1745733411.3283165,0.012394129298627377,0.014418278820812702,-0.19402042031288147,0.4917234778404236,-0.8149367570877075,-9.826462745666504
1745733411.3308156,0.027019012719392776,0.006205216981470585,-0.1913810670375824,0.33163291215896606,-0.49409493803977966,-9.586812973022461
