timestamp,angular_vel_x,angular_vel_y,angular_vel_z,linear_acc_x,linear_acc_y,linear_acc_z
1745661085.1657875,0.015478606335818768,-0.002156235743314028,-0.0070120603777468204,-0.4630109667778015,0.16584771871566772,-9.722665786743164
1745661085.181711,0.016980823129415512,-0.0005437116487883031,-0.005203289445489645,-0.26840299367904663,0.001472681062296033,-9.845178604125977
1745661085.186553,0.005471902899444103,0.003878646995872259,-0.001942685223184526,-0.4804258346557617,0.1495758593082428,-9.745820999145508
1745661085.2120807,0.007610989268869162,-0.011149562895298004,0.003785916371271014,-0.11484189331531525,-0.2393685281276703,-9.856062889099121
1745661085.2296312,0.004315550439059734,-0.011993653140962124,0.005363174714148045,-0.19723589718341827,-0.0038690592627972364,-9.740402221679688
1745661085.2408972,0.008693539537489414,-0.017983589321374893,0.008684832602739334,-0.11253112554550171,-0.14946743845939636,-9.919763565063477
1745661085.258001,-0.011096306145191193,-0.016377637162804604,0.011197017505764961,-0.3238999843597412,0.13614897429943085,-10.04311752319336
1745661085.264897,0.0034011085517704487,-0.01525655947625637,0.009961766190826893,-0.24103331565856934,-0.11288684606552124,-9.809106826782227
1745661085.2665627,-0.005248569883406162,-0.018931368365883827,0.011829420924186707,-0.34594762325286865,0.07149983942508698,-9.601556777954102
1745661085.271682,-0.007453206926584244,-0.016985472291707993,0.01179584302008152,-0.4251992106437683,0.11575915664434433,-9.781933784484863
1745661085.2737856,-0.00833014864474535,-0.015274757519364357,0.008970620110630989,-0.39772921800613403,0.022885940968990326,-9.838628768920898
1745661085.2757761,-0.011393507942557335,-0.007197819650173187,0.009689048863947392,-0.5333250761032104,0.33008331060409546,-9.543553352355957
1745661085.2774584,-0.009983683936297894,-0.007624690420925617,0.0058486261405050755,-0.4665589928627014,0.1059967502951622,-9.560704231262207
1745661085.2871509,-0.0073586804792284966,-0.006406592670828104,0.0018966561183333397,-0.628298282623291,0.2760181427001953,-9.760934829711914
1745661085.2903702,-0.00203743320889771,0.002326990244910121,-0.0010583249386399984,-0.46661654114723206,0.19394972920417786,-9.770650863647461
1745661085.293072,-0.015140598639845848,-0.0016198154771700501,-0.0006152348360046744,-0.5676737427711487,0.17505435645580292,-9.716466903686523
1745661085.2987645,0.002887972164899111,-0.0028944225050508976,-0.005407384596765041,-0.481283038854599,0.221287339925766,-9.690693855285645
1745661085.3321228,-0.0156058669090271,-0.005801140330731869,-0.002543383976444602,-0.4131189286708832,0.02461225539445877,-9.929540634155273
1745661085.3331382,-0.001601052819751203,-0.00441890861839056,-0.00431542843580246,-0.5630428194999695,0.21937496960163116,-9.971035957336426
1745661085.3358953,-0.006295229308307171,-0.007758093066513538,-0.0020657512359321117,-0.38220033049583435,-0.024082960560917854,-9.700916290283203
1745661085.3365653,-0.013938568532466888,-0.008884157054126263,-0.0037041096948087215,-0.5700031518936157,0.18042691051959991,-9.659907341003418
1745661085.3787162,-0.009144080802798271,-0.0031792116351425648,-0.002776717534288764,-0.37955814599990845,0.07052664458751678,-9.76452350616455
1745661085.378813,-0.01713348552584648,-0.00564523134380579,-0.0023748851381242275,-0.5269092321395874,0.1590406596660614,-9.791200637817383
1745661085.378878,0.060552794486284256,-0.030838072299957275,-0.0176530834287405,-0.1939072608947754,0.338882714509964,-9.960700988769531
1745661085.380088,0.05822334438562393,-0.028118882328271866,-0.01866215653717518,-0.378963828086853,0.38223618268966675,-9.756277084350586
1745661085.4160898,0.06063692644238472,-0.03081696294248104,-0.01738494075834751,-0.22255632281303406,0.13931022584438324,-9.664589881896973
1745661085.4189105,0.05102895572781563,-0.03198248893022537,-0.014586752280592918,-0.4753784239292145,0.0322321280837059,-9.826343536376953
1745661085.4214919,0.053688276559114456,-0.020605850964784622,-0.014067085459828377,-0.4835403859615326,0.13567349314689636,-9.739313125610352
1745661085.4232461,0.0409635566174984,-0.0188352782279253,-0.011978888884186745,-0.8194160461425781,-0.21576952934265137,-9.496689796447754
1745661085.4277823,0.024683669209480286,0.017466044053435326,-0.0009275785414502025,-1.0822670459747314,-0.4960419237613678,-8.948823928833008
1745661085.4611807,-0.01303176861256361,0.035636015236377716,0.0077630081214010715,-0.8621512651443481,-1.0299837589263916,-8.605488777160645
1745661085.463039,-0.06532631814479828,0.05445307493209839,0.014046220108866692,-0.8340396881103516,-0.5531473159790039,-8.910781860351562
1745661085.4660594,-0.06356384605169296,0.06884082406759262,0.017204418778419495,-0.2222261130809784,-0.20152468979358673,-9.804610252380371
1745661085.468818,-0.05398709326982498,0.05991781875491142,0.014516065828502178,-0.3176588714122772,1.2595136165618896,-10.312642097473145
1745661085.5024762,0.0032807067036628723,0.06239394098520279,0.007444677408784628,-0.6802729368209839,0.867835521697998,-10.394354820251465
1745661085.504377,0.022279413416981697,0.06304322183132172,-0.0008439698140136898,-0.6724794507026672,0.7129997611045837,-9.294336318969727
1745661085.5131273,-0.02442130260169506,0.03261483460664749,-0.004356522113084793,-0.14388951659202576,-0.18428370356559753,-9.63314151763916
1745661085.5131996,0.0062261722050607204,-0.006181994453072548,-0.005323412362486124,0.4600091874599457,0.27377834916114807,-11.002823829650879
1745661085.5136437,0.017418939620256424,-0.020984428003430367,-0.00875924527645111,-0.16438303887844086,1.2002933025360107,-11.723790168762207
1745661085.546135,-0.04682078957557678,-0.017449799925088882,-0.003760938299819827,-0.37868446111679077,-0.5913779735565186,-9.50588607788086
1745661085.5483289,-0.02677772380411625,-0.00514249037951231,0.0008192053064703941,-0.5617015361785889,-0.23411543667316437,-10.123777389526367
1745661085.5503788,-0.048128336668014526,-0.00164117815438658,0.0067526414059102535,-0.6912384033203125,-0.2652701437473297,-9.874578475952148
1745661085.5517204,-0.053377579897642136,0.007057386450469494,0.008277405053377151,-0.9764719009399414,0.2205679714679718,-9.26073932647705
1745661085.5888875,-0.04738347977399826,-0.0027903742156922817,0.0038136772345751524,-0.6334981918334961,0.08722798526287079,-9.202862739562988
1745661085.5913622,-0.05464246869087219,0.0004747159837279469,0.0033392258919775486,-0.8156057596206665,0.5877705812454224,-10.006189346313477
1745661085.5928788,-0.03401731699705124,0.009901153855025768,-0.0019786341581493616,-0.620984673500061,0.4537750780582428,-10.07617473602295
1745661085.5952919,-0.012112289667129517,0.004284821916371584,-0.007354702800512314,-0.7370930910110474,0.6423197984695435,-9.360218048095703
1745661085.632039,-0.028383802622556686,0.002818531356751919,-0.010452957823872566,-0.5959975719451904,0.645237922668457,-9.468940734863281
1745661085.6356332,0.0033198236487805843,-0.006327336188405752,-0.015346968546509743,-0.5461110472679138,0.5806882977485657,-10.1627779006958
1745661085.639043,0.019797706976532936,0.008355237543582916,-0.022147543728351593,-0.715017557144165,0.9292575716972351,-9.908721923828125
1745661085.6413198,0.03018566593527794,0.0019479964394122362,-0.02643514797091484,-0.4248993396759033,0.3439306318759918,-9.37651538848877
1745661085.6424062,0.029738623648881912,-0.009527528658509254,-0.023797472938895226,-0.5675565600395203,0.40765857696533203,-9.525638580322266
1745661085.6759322,0.04468024522066116,-0.0007065570098347962,-0.024803761392831802,-0.44432416558265686,0.2685929536819458,-10.138261795043945
1745661085.6781657,0.036079149693250656,0.005661950446665287,-0.024057993665337563,-0.500895619392395,0.23160508275032043,-9.950969696044922
1745661085.6795928,0.05185853689908981,0.0018742891261354089,-0.02140771970152855,-0.27401381731033325,0.20181779563426971,-9.276808738708496
1745661085.6832855,0.03266293555498123,-0.011356545612215996,-0.017299644649028778,-0.19258899986743927,-0.12229063361883163,-9.722689628601074
1745661085.7173245,0.028505628928542137,-0.0005969414487481117,-0.012940406799316406,-0.3621746003627777,-0.14843139052391052,-10.333611488342285
1745661085.7196033,0.017070528119802475,0.0013451934792101383,-0.00801658071577549,-0.11757950484752655,-0.357400506734848,-9.896113395690918
1745661085.7215626,0.0032696095295250416,-0.00377471256069839,-0.001343877287581563,-0.25355300307273865,0.09971415996551514,-9.30057144165039
1745661085.7236912,0.04429550841450691,-0.011687757447361946,-0.003180537838488817,-0.24573950469493866,0.8996774554252625,-10.688753128051758
1745661085.761574,0.06861183047294617,-0.021045777946710587,-0.008846147917211056,-0.4183576703071594,0.7031707763671875,-10.10707950592041
1745661085.7640865,0.0717831701040268,-0.01659901812672615,-0.01686187833547592,-0.4803583025932312,0.46610933542251587,-9.264579772949219
1745661085.7721152,0.0655725747346878,-0.019073139876127243,-0.018109459429979324,-0.26155585050582886,-0.0968920961022377,-9.093816757202148
1745661085.7722485,0.019381020218133926,-0.032324373722076416,-0.012882202863693237,0.11073873937129974,-1.0180609226226807,-9.918915748596191
1745661085.7723255,0.02119634486734867,-0.015671009197831154,-0.005324040073901415,-0.14664921164512634,-0.16748955845832825,-10.381099700927734
1745661085.8035758,-0.027966806665062904,-0.015626143664121628,0.003151591867208481,-0.18757997453212738,-0.6424274444580078,-10.13041877746582
1745661085.8067276,-0.02432817965745926,-0.0016026031225919724,0.006845441646873951,-0.22226431965827942,-0.03809191286563873,-9.316679000854492
1745661085.8078847,-0.033874787390232086,0.0024390951730310917,0.0114706140011549,-0.14015920460224152,-0.20465369522571564,-9.285392761230469
1745661085.812061,-0.07900658994913101,-0.0030565985944122076,0.007888095453381538,-0.10798531770706177,-0.18643319606781006,-9.716829299926758
1745661085.8491726,-0.03408439829945564,0.010538892820477486,0.00969677697867155,-0.056312642991542816,0.1270621120929718,-9.934449195861816
1745661085.851425,-0.06645752489566803,0.007952159270644188,0.011300281621515751,-0.19877131283283234,0.32507219910621643,-9.824319839477539
1745661085.8540096,-0.04131244868040085,0.006478352006524801,0.0180868748575449,-0.18064363300800323,0.09914413839578629,-9.894715309143066
1745661085.854549,-0.019612889736890793,0.0020084723364561796,0.0213781651109457,-0.10685525089502335,0.46322935819625854,-10.006002426147461
1745661085.8915868,-0.02704286016523838,-0.004918157123029232,0.02092926576733589,-0.12452377378940582,0.42073458433151245,-10.25273609161377
1745661085.8972003,0.011129898950457573,0.006371813826262951,-0.011547364294528961,-0.365712434053421,0.0643761157989502,-9.965150833129883
1745661085.9000866,-0.008165048435330391,0.0031711228657513857,-0.009029353968799114,-0.254962682723999,-0.049956221133470535,-9.84197998046875
1745661085.902335,-0.007568785455077887,0.0012476479168981314,-0.008405347354710102,-0.4706958830356598,0.14825192093849182,-9.741839408874512
1745661085.938302,0.005122801288962364,0.0006892990204505622,-0.008650379255414009,-0.25000089406967163,0.21983149647712708,-9.683237075805664
1745661085.9383636,-0.015251992270350456,-0.001724505447782576,-0.007671079598367214,-0.39989617466926575,0.18678033351898193,-9.90119743347168
1745661085.9438028,0.006434057839214802,0.0003850613138638437,-0.009767608717083931,-0.3254792094230652,0.2528466284275055,-9.871467590332031
1745661085.9438584,0.003226018277928233,-0.00828293152153492,-0.006185502279549837,-0.2908460795879364,0.25219398736953735,-9.821588516235352
1745661085.9773004,0.014615694060921669,-0.0034310068003833294,-0.005454912781715393,-0.4596685469150543,0.5169928669929504,-9.880777359008789
1745661085.981541,0.022628920152783394,-0.011637617833912373,-0.008430070243775845,-0.3058299422264099,0.2825162410736084,-9.857992172241211
1745661085.9854348,0.025868374854326248,-0.008224057033658028,-0.011597925797104836,-0.36454081535339355,0.5586535334587097,-9.699902534484863
1745661085.9888878,0.03553029149770737,-0.009617574512958527,-0.009810775518417358,-0.2528286576271057,0.23878726363182068,-9.809530258178711
1745661085.9920664,0.03794249892234802,-0.011843942105770111,-0.011872577480971813,-0.4610702097415924,0.3777368366718292,-9.863722801208496
1745661086.0195994,0.04523105546832085,-0.002965827938169241,-0.011923256330192089,-0.3054317533969879,0.12212672084569931,-9.697699546813965
1745661086.0222423,0.031470634043216705,-0.013334481045603752,-0.009290892630815506,-0.3605722486972809,-0.08941350877285004,-9.658620834350586
1745661086.022717,0.02496599406003952,-0.0035690770018845797,-0.006667747162282467,-0.43065738677978516,-0.04686206579208374,-9.809365272521973
1745661086.0250902,0.0173746757209301,-0.006339510437101126,-0.0018263973761349916,-0.2987856864929199,-0.29404088854789734,-9.81263256072998
1745661086.061923,-0.001081682974472642,-0.00033568436629138887,0.0023913648910820484,-0.4301416873931885,-0.13750848174095154,-9.752973556518555
1745661086.064285,-0.014754362404346466,-0.00787397101521492,0.009799261577427387,-0.2576959729194641,-0.25556623935699463,-9.852441787719727
1745661086.066146,-0.02321232296526432,-0.0072204009629786015,0.010387924499809742,-0.5399423837661743,-0.06039184331893921,-9.934672355651855
1745661086.0662196,-0.023960765451192856,-0.003579056356102228,0.014545321464538574,-0.3429103493690491,0.0052755894139409065,-9.69830322265625
1745661086.0726714,-0.04424804821610451,-0.013549345545470715,0.014405181631445885,-0.36297982931137085,0.1055997759103775,-9.799171447753906
1745661086.1074133,0.01718984916806221,-0.0013523449888452888,-0.0013661643024533987,-0.4804668426513672,0.14570839703083038,-10.157002449035645
1745661086.1165092,0.015018438920378685,-0.008439543657004833,0.004150740336626768,-0.2157411128282547,-0.17668215930461884,-9.606173515319824
1745661086.1166198,0.006781147327274084,-0.012786485254764557,0.006490266416221857,-0.4905754029750824,0.06452508270740509,-9.553659439086914
1745661086.1189647,0.0037664570845663548,-0.0032566655427217484,0.010384988971054554,-0.4626648426055908,-0.05983275920152664,-9.891297340393066
1745661086.149993,-0.010250305756926537,-0.003748856019228697,0.008257817476987839,-0.44333940744400024,-0.13117368519306183,-9.846691131591797
1745661086.152569,0.0014078919775784016,0.002034407341852784,0.010015856474637985,-0.4559113383293152,0.19007977843284607,-9.539636611938477
1745661086.153908,-0.016628451645374298,-0.005763272289186716,0.010083849541842937,-0.3772110641002655,0.08454816788434982,-9.676859855651855
1745661086.157281,-0.009863568469882011,0.006554181221872568,0.007234777323901653,-0.6490048170089722,0.2532595098018646,-9.867525100708008
1745661086.1908,-0.0011893995106220245,0.012622068636119366,0.005128203425556421,-0.4335640072822571,0.2043512761592865,-9.503786087036133
1745661086.1961033,-0.022416401654481888,0.009300327859818935,0.005278359167277813,-0.5212894082069397,0.22212210297584534,-9.56551456451416
1745661086.1990156,0.004886207170784473,0.008650928735733032,0.0017656187992542982,-0.4169763922691345,0.2402314394712448,-9.929460525512695
1745661086.2005525,-0.005357720423489809,0.012777701020240784,0.003005789127200842,-0.5977362394332886,0.33192411065101624,-9.921725273132324
1745661086.2017934,0.008940188214182854,0.02155281975865364,-0.0009550818940624595,-0.6197751760482788,0.3491252362728119,-9.526037216186523
1745661086.2358565,0.01355290412902832,0.00726926838979125,0.0005303394864313304,-0.4019036293029785,0.12667109072208405,-9.54090404510498
1745661086.2383173,0.014935856685042381,0.012856042012572289,0.0011725579388439655,-0.6326678395271301,0.2971443235874176,-10.053411483764648
1745661086.2403936,-0.00046480679884552956,0.015609577298164368,0.002175473840907216,-0.39412492513656616,0.30421921610832214,-9.618668556213379
1745661086.2416112,-0.011690642684698105,0.009589220397174358,0.0023748159874230623,-0.32035356760025024,0.02067340351641178,-9.995157241821289
1745661086.2792027,0.011143109761178493,0.01905849203467369,0.0030019942205399275,-0.5686472058296204,0.3229413628578186,-10.007791519165039
1745661086.2811828,0.001484179520048201,0.013337750919163227,0.0015527800424024463,-0.4926456809043884,0.2672101855278015,-9.673245429992676
1745661086.2824342,-0.0052084773778915405,0.0046914671547710896,0.0014348156983032823,-0.5865277051925659,0.06302682310342789,-9.722979545593262
1745661086.2849321,-0.0014536002418026328,0.009206825867295265,0.0007766542257741094,-0.45895034074783325,0.08999668061733246,-9.851672172546387
1745661086.3209968,-0.03143621236085892,0.007261694874614477,0.0002301986824022606,-0.6691826581954956,-0.1291680485010147,-9.862751007080078
1745661086.3223388,-0.013245699927210808,0.014295103959739208,0.002990949433296919,-0.6574357151985168,0.22097690403461456,-9.530960083007812
1745661086.3253167,-0.030393879860639572,0.0010471356799826026,0.005123325157910585,-0.4472625255584717,0.11609412729740143,-9.588571548461914
1745661086.3272786,-0.005517148412764072,0.007695665117353201,0.010066093876957893,-0.6008135080337524,0.2269681692123413,-10.017501831054688
1745661086.3294857,-0.025129567831754684,0.01126994751393795,0.01324515976011753,-0.6031302213668823,-0.15097862482070923,-9.843236923217773
1745661086.3651147,-0.022048525512218475,0.014244532212615013,0.01481088250875473,-0.6594289541244507,0.16055595874786377,-9.255885124206543
1745661086.3672438,-0.010814820416271687,0.005712027661502361,0.017131108790636063,-0.25340089201927185,0.4018765985965729,-9.451977729797363
1745661086.3698924,-0.007358910981565714,0.005403861403465271,0.016135066747665405,-0.43549975752830505,0.3852185904979706,-10.386959075927734
1745661086.3717163,0.01938062347471714,0.018817052245140076,0.01514151506125927,-0.4378191828727722,0.42332297563552856,-9.946596145629883
1745661086.406661,0.002152135595679283,0.012277128174901009,0.010991447605192661,-0.37570658326148987,0.20435991883277893,-9.118139266967773
1745661086.410066,0.01745954155921936,0.006655216217041016,0.009074756875634193,-0.3383524715900421,0.4271319508552551,-9.468955993652344
1745661086.4142194,0.018421214073896408,0.010061031207442284,0.003541521029546857,-0.23748692870140076,0.34479278326034546,-10.402711868286133
1745661086.4184687,0.02529452182352543,0.020423991605639458,-0.0010054184822365642,-0.40768489241600037,0.32429954409599304,-9.961919784545898
1745661086.422129,0.02492504194378853,0.012580594047904015,-0.004093124996870756,-0.18140235543251038,0.029997464269399643,-9.134939193725586
1745661086.4511263,0.003275270340964198,0.0064112963154911995,-0.0048789381980896,-0.3341580033302307,0.024437550455331802,-9.611013412475586
1745661086.4539137,-0.0050422619096934795,0.01356266625225544,0.00807815883308649,-0.3347818851470947,0.35702571272850037,-9.497206687927246
1745661086.4604197,-0.013910934329032898,0.0020073738414794207,0.005291701294481754,-0.20628008246421814,0.3866899013519287,-9.57940673828125
1745661086.4615102,0.008503610268235207,0.0033909324556589127,0.00395034346729517,-0.35189932584762573,0.49430975317955017,-10.081720352172852
1745661086.4920132,0.02194369025528431,0.006353986449539661,-0.00018916520639322698,-0.2845473885536194,0.3799583911895752,-9.890046119689941
1745661086.494061,0.01044867467135191,0.0023320254404097795,-0.002420454751700163,-0.45628413558006287,0.2738727927207947,-9.406071662902832
1745661086.494471,0.03157529607415199,-0.0010468291584402323,-0.002633010968565941,-0.285620778799057,0.33581244945526123,-9.604474067687988
1745661086.4979503,0.020550651475787163,-0.00390994269400835,-0.006434622220695019,-0.26265719532966614,0.309489905834198,-10.12253475189209
1745661086.5364246,0.035008132457733154,0.0038707987405359745,-0.005906982813030481,-0.4014868140220642,0.22704985737800598,-9.944218635559082
1745661086.5391731,0.022568821907043457,-0.0071648359298706055,-0.006648377515375614,-0.35910576581954956,0.02152244560420513,-9.335023880004883
1745661086.5398011,0.01771898940205574,-0.009348513558506966,-0.006319071166217327,-0.39307647943496704,0.11676094681024551,-9.578487396240234
1745661086.5423512,0.016980264335870743,-0.008744409307837486,-0.005232703872025013,-0.24144335091114044,-0.1054558977484703,-10.156906127929688
1745661086.5457633,0.001762673258781433,-0.0037784366868436337,-0.0024844310246407986,-0.4360389709472656,-0.06702054291963577,-9.937576293945312
1745661086.5783753,0.0003263983817305416,-0.008638453669846058,0.002291122917085886,-0.29404282569885254,-0.13587500154972076,-9.271135330200195
1745661086.582394,-0.019388386979699135,-0.02002602256834507,0.0019566435366868973,-0.3486565947532654,0.011426416225731373,-9.615763664245605
1745661086.588075,-0.010104088112711906,-0.008325559087097645,0.002746380167081952,-0.289158433675766,0.12178150564432144,-10.255650520324707
1745661086.5900946,0.020736509934067726,-0.005978633649647236,-0.0012148492969572544,-0.4658474028110504,0.03837721422314644,-9.372950553894043
1745661086.6223345,0.0228276364505291,-0.00977659784257412,0.0006005618488416076,-0.4797186851501465,0.0595209002494812,-9.51872444152832
1745661086.6247265,0.010304016061127186,-0.009418154135346413,0.004304735921323299,-0.42174530029296875,-0.09611587226390839,-10.201059341430664
1745661086.6282969,0.01176241785287857,0.0007083711097948253,0.005883743986487389,-0.5862976908683777,0.03140836954116821,-10.032808303833008
1745661086.6299837,0.002400387544184923,-0.004598716273903847,0.008445747196674347,-0.37578824162483215,-0.04400695860385895,-9.391558647155762
1745661086.663677,-0.011909193359315395,-0.010328199714422226,0.00607945304363966,-0.49051517248153687,0.08124830573797226,-9.61376667022705
1745661086.6682987,-0.012172364629805088,-0.0037428748328238726,0.005257696844637394,-0.4382339417934418,0.10714215040206909,-10.174455642700195
1745661086.6683984,-0.029537450522184372,0.0016508225817233324,-0.00021965845371596515,-0.45853060483932495,0.20344848930835724,-9.892572402954102
1745661086.670646,-0.016335008665919304,0.003389160381630063,-0.006659165024757385,-0.3171432912349701,0.4578952193260193,-9.339998245239258
1745661086.673322,-0.030628498643636703,-0.013293294236063957,-0.0036188780795782804,-0.37550899386405945,0.046490199863910675,-9.837408065795898
1745661086.7100232,-0.01681658998131752,0.004578379448503256,-0.005032841116189957,-0.5977802276611328,0.4068427085876465,-10.253606796264648
1745661086.7108274,-0.009366674348711967,0.007501771207898855,-0.00877311173826456,-0.2550404667854309,0.2213631123304367,-9.541647911071777
1745661086.714076,-0.02513531781733036,-0.005566614214330912,-0.005647319369018078,-0.4249100089073181,0.168675497174263,-9.522160530090332
1745661086.7178345,0.00693125557154417,-0.0019828788936138153,-0.0008021609974093735,-0.3858253061771393,0.26586323976516724,-10.053959846496582
1745661086.7507505,0.005094366613775492,0.00638605747371912,-0.004675437696278095,-0.4524698257446289,0.5438106656074524,-10.004776000976562
1745661086.752661,0.009986236691474915,0.002719291253015399,-0.00021786487195640802,-0.2884007394313812,-0.16721391677856445,-9.6134033203125
1745661086.7531269,0.006941854953765869,-0.004243548959493637,0.0034043840132653713,-0.346953809261322,0.3531399667263031,-9.655560493469238
1745661086.7562468,0.015015115961432457,0.004559085704386234,0.0017674978589639068,-0.4376664161682129,0.22607605159282684,-9.998567581176758
1745661086.795388,0.022682862356305122,-0.001259742071852088,0.0046365344896912575,-0.2163289487361908,-0.0005604744073934853,-9.953092575073242
1745661086.7985451,0.009397695772349834,0.005421230103820562,0.004325649701058865,-0.4386364817619324,0.22304069995880127,-9.703146934509277
1745661086.8013058,0.01786094903945923,-0.00018568853556644171,0.008442474529147148,-0.20399609208106995,0.07671342045068741,-9.576772689819336
1745661086.8050578,-0.015421368181705475,-0.004074553027749062,0.0015265743713825941,-0.5729802846908569,0.2503635883331299,-9.88065242767334
1745661086.838567,-0.0018571395194157958,0.005960206501185894,0.003185182111337781,-0.45712122321128845,0.15246769785881042,-9.954567909240723
1745661086.838717,-0.008799773640930653,0.0005772651056759059,0.005150036420673132,-0.405818372964859,0.1396789848804474,-9.635847091674805
1745661086.8393714,0.000964042148552835,0.000688705884385854,0.0022189628798514605,-0.4905336797237396,0.3984779417514801,-9.618889808654785
1745661086.8416915,0.0016851788386702538,-0.0035878673661500216,0.0037917818408459425,-0.3992551863193512,0.06825335323810577,-9.966194152832031
1745661086.8820143,0.005309527274221182,0.004628871567547321,0.004714170936495066,-0.5793296694755554,0.2633518576622009,-9.868654251098633
1745661086.8837478,0.006831958889961243,0.0006038954597897828,0.00440873671323061,-0.31558355689048767,0.08960811793804169,-9.547319412231445
1745661086.88545,0.0029010053258389235,-0.0027179978787899017,0.00724692502990365,-0.47640150785446167,0.20740389823913574,-9.741666793823242
1745661086.8897154,0.013974557630717754,0.004905668552964926,0.005821444559842348,-0.41818466782569885,0.0801829844713211,-9.992897987365723
1745661086.8897934,-0.0010029227705672383,-0.0006245939875952899,0.007476716302335262,-0.359081894159317,0.14450061321258545,-9.819158554077148
1745661086.9248188,0.013549977913498878,0.003260226920247078,0.006817375775426626,-0.3482612371444702,0.19437852501869202,-9.657636642456055
1745661086.9271214,-0.0007364474004134536,-0.0029217968694865704,0.00472228555008769,-0.2954227328300476,0.015637807548046112,-9.78752613067627
1745661086.931245,-0.0002273462014272809,0.005491526331752539,0.004318458028137684,-0.44267281889915466,0.19334399700164795,-9.925844192504883
1745661086.9356818,0.0023812695872038603,0.002463793382048607,0.0021376661024987698,-0.18544161319732666,0.09929678589105606,-9.667380332946777
1745661086.9670017,0.0023766723461449146,-0.002032298594713211,-0.00882580317556858,-0.2673095166683197,0.3516615331172943,-10.000003814697266
1745661086.9685843,0.002758802380412817,-0.004271751269698143,-0.007863767445087433,-0.21462741494178772,-0.01251580286771059,-10.038189888000488
1745661086.9729748,0.007162424270063639,0.00207042065449059,-0.004897868260741234,-0.44752249121665955,0.1311616599559784,-9.731690406799316
1745661086.9766865,-0.0057792989537119865,-0.0030677588656544685,-0.006034684367477894,-0.30560368299484253,-0.05076976865530014,-9.448013305664062
1745661087.010209,-0.006138628348708153,-0.011177463456988335,-0.005311509128659964,-0.31898730993270874,0.18621298670768738,-9.819199562072754
1745661087.0120564,0.006138527765870094,-0.003524503903463483,-0.0012977784499526024,-0.31727415323257446,0.21170048415660858,-10.133611679077148
1745661087.0128314,0.005924146622419357,-0.0012999072205275297,-0.00011459838424343616,-0.5428019762039185,0.2825290560722351,-9.78007698059082
1745661087.015475,0.013957267627120018,-0.0014672566903755069,-0.0006873265374451876,-0.42419034242630005,0.09685584157705307,-9.34791374206543
1745661087.017201,-0.005130061414092779,-0.010879259556531906,-0.00028040152392350137,-0.3529420495033264,0.11942466348409653,-9.860979080200195
1745661087.0547533,0.014196586795151234,-0.001171173877082765,-0.0031336185056716204,-0.5134522318840027,0.40195316076278687,-10.121625900268555
1745661087.0570683,0.015865569934248924,-0.003328997641801834,-0.004991852678358555,-0.38537269830703735,0.34860166907310486,-9.629606246948242
1745661087.0598311,0.003963140770792961,-0.007104066666215658,-0.005726546980440617,-0.5562268495559692,0.25366759300231934,-9.501602172851562
1745661087.0622408,0.026611611247062683,-0.008669530041515827,-0.006581933703273535,-0.28313690423965454,0.21752841770648956,-9.811788558959961
1745661087.0963979,-0.0012106318026781082,-0.008980773389339447,-0.008779735304415226,-0.47494950890541077,0.14153626561164856,-10.129305839538574
1745661087.1007001,0.011030629277229309,-0.0032016015611588955,-0.007918531075119972,-0.4185163378715515,0.17998547852039337,-9.770255088806152
1745661087.1032293,0.0042844004929065704,-0.01411835290491581,-0.00830460898578167,-0.37917453050613403,0.12003622204065323,-9.533299446105957
1745661087.106289,0.007267775479704142,-0.01165587455034256,-0.008321264758706093,-0.4142732620239258,0.18496723473072052,-9.77849006652832
1745661087.139674,-0.005819849669933319,-0.013069476000964642,-0.005733197089284658,-0.35192224383354187,-0.06468577682971954,-10.019916534423828
1745661087.1405087,-0.014706107787787914,-0.008295713923871517,-0.003723660483956337,-0.4774031639099121,0.1425447016954422,-9.816215515136719
1745661087.1466389,0.0028116838075220585,-0.014477300457656384,0.0002915293152909726,-0.2817625403404236,0.11346513032913208,-9.564555168151855
1745661087.1466935,-0.008203619159758091,-0.017548244446516037,0.00014267652295529842,-0.3618648946285248,0.25274360179901123,-9.759191513061523
1745661087.1483762,-0.00497239176183939,-0.009474344551563263,0.0013897005701437593,-0.37871986627578735,0.2490311563014984,-9.959859848022461
1745661087.1866744,0.019901055842638016,-0.00981271080672741,0.001842293655499816,-0.22551636397838593,0.18826976418495178,-9.675086975097656
1745661087.1908364,0.01318665873259306,-0.013377676717936993,-0.00025750885833986104,-0.2891028821468353,0.29896071553230286,-9.679485321044922
1745661087.1949182,0.03311062604188919,-0.01509813778102398,0.0011883884435519576,-0.2945592403411865,0.2881964147090912,-9.841830253601074
1745661087.1973581,0.02078903466463089,-0.013481490314006805,0.011592753231525421,-0.6249811053276062,-0.30157074332237244,-10.054810523986816
1745661087.224634,0.018109899014234543,-0.005999273620545864,0.00832233764231205,-0.5625926852226257,0.3222373127937317,-9.723871231079102
1745661087.2275512,0.011763225309550762,-0.021499624475836754,0.007131023798137903,-0.1951334923505783,-0.22575315833091736,-9.549983024597168
1745661087.2281964,-0.003402474569156766,-0.020692050457000732,0.011355891823768616,-0.6221708059310913,0.5020048022270203,-9.957183837890625
1745661087.229934,0.0018030062783509493,-0.011022433638572693,0.010634955950081348,-0.5343160629272461,-0.004414850380271673,-10.078313827514648
1745661087.2677975,0.013307170942425728,-0.013627585954964161,0.005790663883090019,-0.5190972089767456,0.34589770436286926,-9.495743751525879
1745661087.2699742,-0.02956755831837654,-0.018348097801208496,0.004532639868557453,-0.366882860660553,0.024265725165605545,-9.849000930786133
1745661087.2725775,0.00602978328242898,-0.026425251737236977,0.0026584479492157698,-0.44904452562332153,0.3398543894290924,-9.989136695861816
1745661087.274963,0.007000552956014872,-0.006712381727993488,0.00025773089146241546,-0.584982693195343,0.5782016515731812,-9.493578910827637
1745661087.30979,-0.020623071119189262,-0.019581597298383713,-0.002206241013482213,-0.3545071482658386,0.06607687473297119,-9.685422897338867
1745661087.3131847,0.013978080824017525,-0.021069850772619247,-0.001612254767678678,-0.4045129716396332,0.3272381126880646,-10.074575424194336
1745661087.3166006,0.011737576685845852,-0.003584123682230711,-0.0073975189588963985,-0.6155921220779419,0.11625482141971588,-10.551946640014648
1745661087.3189209,-0.003291376633569598,-0.017233530059456825,-0.00679480517283082,-0.30446141958236694,-0.23410215973854065,-8.707024574279785
1745661087.321631,-0.021272096782922745,-0.03547162190079689,-0.002127752173691988,-0.47149133682250977,-0.11210870742797852,-9.148859024047852
1745661087.3542223,-0.019274868071079254,-0.019835758954286575,0.0006113926647230983,-0.5478799939155579,-0.19622614979743958,-10.744107246398926
1745661087.354416,-0.023859651759266853,0.0024237961042672396,-0.0018423019209876657,-0.5818808674812317,0.10579659789800644,-10.057448387145996
1745661087.3575792,-0.015560519881546497,-0.013175979256629944,0.0020834621973335743,-0.2909635603427887,0.10791222006082535,-8.720379829406738
1745661087.3595963,-0.03161269426345825,-0.030148014426231384,0.004164292477071285,-0.36162686347961426,-0.03252005577087402,-9.591058731079102
1745661087.3972476,-0.026414716616272926,-0.007521486841142178,0.007589188404381275,-0.48972827196121216,0.043807126581668854,-10.583622932434082
1745661087.3993099,-0.02254832349717617,0.0016785201150923967,0.006721167359501123,-0.42477312684059143,0.1632450968027115,-9.600650787353516
1745661087.4006345,-0.024197950959205627,-0.00646355003118515,0.004122885875403881,-0.3880775570869446,0.50490403175354,-8.84170913696289
1745661087.402959,-0.0013325409963726997,-0.021161284297704697,0.005759415216743946,-0.14939209818840027,0.38798946142196655,-9.949371337890625
1745661087.4046757,0.003179179970175028,-0.0011540602426975965,0.002175302477553487,-0.610200047492981,0.4410077631473541,-10.607032775878906
1745661087.4402742,0.008742013946175575,0.009346554055809975,-0.0014274024870246649,-0.5079962015151978,0.15115129947662354,-9.222090721130371
1745661087.4415903,0.00047045471728779376,-0.008395177312195301,-0.0028753364458680153,-0.4008442461490631,0.3607330620288849,-8.817039489746094
1745661087.4432216,0.015861226245760918,-0.010037493892014027,-0.0033100489526987076,-0.3997761905193329,0.45138898491859436,-10.238390922546387
1745661087.445679,0.016444580629467964,0.005103037692606449,-0.0036357673816382885,-0.5155771970748901,0.12047455459833145,-10.677081108093262
1745661087.4815524,0.016741100698709488,0.013031559064984322,-0.0042354511097073555,-0.6551632285118103,0.04958701133728027,-9.032690048217773
1745661087.484589,-0.005239316262304783,-0.00632592523470521,0.0011505509028211236,-0.369621604681015,-0.1316022127866745,-8.766412734985352
1745661087.4862213,-0.015547720715403557,-0.00564951729029417,0.0019141953671351075,-0.5555576086044312,-0.07024870812892914,-10.486907958984375
1745661087.4878094,-0.002695860806852579,0.019455835223197937,0.011402897536754608,-0.46929964423179626,-0.09082148969173431,-10.509904861450195
1745661087.4916394,-0.03747379034757614,0.015534067526459694,0.017707083374261856,-0.5663408637046814,-0.31880006194114685,-8.991174697875977
1745661087.5259585,-0.04390757530927658,0.006321788765490055,0.02579334005713463,-0.4361429214477539,-0.3397020101547241,-8.828436851501465
1745661087.5283852,-0.06432243436574936,0.01469261385500431,0.0381692573428154,-0.24914059042930603,-0.4033724367618561,-10.351445198059082
1745661087.5303736,-0.10209937393665314,0.035249434411525726,0.06311900913715363,-0.33375871181488037,0.06465600430965424,-10.54529094696045
1745661087.532295,-0.0874255895614624,0.043698471039533615,0.06355749070644379,-0.26033881306648254,0.8070752024650574,-10.009644508361816
1745661087.5704937,-0.09775197505950928,0.031222546473145485,0.06018158048391342,-0.2847171425819397,0.7485111355781555,-9.209063529968262
1745661087.5726228,-0.06411556899547577,0.011497138999402523,0.054097939282655716,-0.2809677720069885,1.1326725482940674,-9.693202018737793
1745661087.5769937,-0.05023406818509102,0.02551627717912197,0.04816224426031113,-0.5556110739707947,1.1920850276947021,-10.700468063354492
1745661087.5799212,-0.015015969052910805,0.02820533514022827,0.04069240391254425,-0.3589487671852112,0.8112049102783203,-9.94509220123291
1745661087.6114936,-0.02157803438603878,0.025729045271873474,0.0472603403031826,-0.563940167427063,0.57264643907547,-8.910118103027344
1745661087.616424,-0.006538202054798603,0.02501598931849003,0.05186128616333008,-0.2739071846008301,0.07416627556085587,-9.275181770324707
1745661087.62027,-0.018670540302991867,0.0280371755361557,0.05833212286233902,-0.3678050935268402,0.415169894695282,-10.22435188293457
1745661087.622167,-0.02365305833518505,0.038572728633880615,0.06375426054000854,-0.33068057894706726,0.30704864859580994,-10.076449394226074
1745661087.6245382,-0.01147923432290554,0.02380993589758873,0.061895109713077545,-0.11648184061050415,0.613940417766571,-9.337953567504883
1745661087.6564193,-0.011575466021895409,0.023045796900987625,0.06155899912118912,-0.46226900815963745,0.6418805718421936,-9.9038667678833
1745661087.659657,-0.00923072174191475,0.025537598878145218,0.06371255964040756,-0.41250401735305786,0.19042012095451355,-10.381573677062988
1745661087.6630538,-0.1294114589691162,0.039556585252285004,0.19966502487659454,-0.06484631448984146,-0.212734654545784,-9.517240524291992
1745661087.6663554,-0.16333606839179993,0.04418633505702019,0.20095773041248322,-0.03597463294863701,-0.2269860953092575,-9.703847885131836
1745661087.6990435,-0.1870146542787552,0.04292143136262894,0.21162322163581848,-0.02449944242835045,0.1988244354724884,-9.807120323181152
1745661087.7024312,-0.19266894459724426,0.047926872968673706,0.21365678310394287,-0.27469658851623535,0.7015995979309082,-9.81109619140625
1745661087.7069578,-0.1955876350402832,0.04373719543218613,0.21312503516674042,-0.24638056755065918,0.5162538290023804,-9.727540969848633
1745661087.7092578,-0.1699579358100891,0.054575033485889435,0.21775774657726288,-0.18991634249687195,1.1042383909225464,-9.499638557434082
1745661087.74164,-0.1526118516921997,0.053756844252347946,0.2247174233198166,0.13056905567646027,0.783800482749939,-9.660299301147461
1745661087.7442842,-0.09256889671087265,0.02809271775186062,0.22602581977844238,0.28871673345565796,1.877039909362793,-9.938982963562012
1745661087.7457628,-0.05155566334724426,0.031339339911937714,0.20951911807060242,-0.45043307542800903,1.9784914255142212,-10.674348831176758
1745661087.7473006,0.013257725164294243,0.016990559175610542,0.19651374220848083,-0.5172383189201355,2.3734889030456543,-9.626494407653809
1745661087.78469,0.11822517216205597,-0.006283229682594538,0.18143700063228607,-0.8061612248420715,2.5960097312927246,-9.584901809692383
1745661087.7880025,0.15560100972652435,-0.015330279245972633,0.15404999256134033,-1.3227020502090454,2.034620523452759,-10.714947700500488
1745661087.790396,0.21798554062843323,-0.00183896126691252,0.14425161480903625,-1.4156098365783691,0.8126972913742065,-9.974054336547852
1745661087.7934587,0.1994941532611847,0.011709836311638355,0.14446723461151123,-1.4298250675201416,0.6857007741928101,-8.164934158325195
1745661087.7976253,0.17067429423332214,0.0018276978516951203,0.1510552018880844,-0.5167088508605957,-2.0120511054992676,-8.69664192199707
1745661087.8268056,0.12218932807445526,0.023087481036782265,0.15787231922149658,-0.6103379130363464,-0.3705316185951233,-10.224982261657715
1745661087.8282368,0.004648430738598108,0.026194874197244644,0.16870728135108948,0.03866829723119736,-2.686950206756592,-10.875670433044434
1745661087.8307235,-0.039533618837594986,0.03609052672982216,0.1793929934501648,-0.025541309267282486,-1.4101518392562866,-8.771079063415527
1745661087.8333519,-0.19274070858955383,-0.005666679237037897,0.18129703402519226,-0.4873213768005371,-1.8325328826904297,-9.153220176696777
1745661087.8773541,-0.31364864110946655,0.0008062534034252167,0.17339296638965607,-0.35124102234840393,-0.8722175359725952,-10.345755577087402
1745661087.879805,-0.23860418796539307,-0.005177933722734451,0.1623525172472,-0.859794020652771,0.7041627168655396,-10.930485725402832
1745661087.8822265,-0.3257588744163513,-0.013677257113158703,0.15301211178302765,-0.7432848215103149,1.3443851470947266,-9.637636184692383
1745661087.8865736,-0.02306993678212166,0.01138180773705244,0.18322503566741943,-0.34581345319747925,0.7750245928764343,-9.455947875976562
1745661087.9156344,-0.07462523877620697,0.009293150156736374,0.1847393810749054,-0.26440948247909546,1.0705026388168335,-9.154990196228027
1745661087.9178333,-0.007552766241133213,-0.008962190710008144,0.1814705729484558,0.11399523913860321,0.7960845828056335,-9.773639678955078
1745661087.9188192,-0.008390853181481361,-0.001940711634233594,0.17472906410694122,-0.00124215183313936,1.2620769739151,-10.480570793151855
1745661087.9211178,-0.008016449399292469,0.003771662013605237,0.1570843607187271,-0.11150077730417252,0.8465656042098999,-10.420340538024902
1745661087.9555326,0.014386084862053394,-0.020724693313241005,0.14518505334854126,0.13300196826457977,1.1297909021377563,-9.358762741088867
1745661087.9585621,0.048635002225637436,-0.029968570917844772,0.14219798147678375,-0.29805460572242737,1.248382568359375,-9.727300643920898
1745661087.9597657,0.08901715278625488,-0.022394642233848572,0.14262573421001434,-0.47174015641212463,0.6352968811988831,-10.509281158447266
1745661087.9609644,0.0999990701675415,-0.0157474372535944,0.1402740180492401,-0.5745140314102173,0.4136834740638733,-9.897712707519531
1745661087.963754,0.08507263660430908,-0.0204165019094944,0.13280454277992249,-0.3761586546897888,-0.21412019431591034,-9.208014488220215
1745661088.0016687,0.06404609978199005,-0.020483627915382385,0.13112269341945648,-0.5719282627105713,0.181683748960495,-9.561184883117676
1745661088.0035634,0.05122513324022293,-0.006780729629099369,0.13049331307411194,-0.3142837882041931,-0.4787232279777527,-10.183496475219727
1745661088.0069103,0.029298856854438782,0.0020743662025779486,0.13433906435966492,0.09976782649755478,-1.0001180171966553,-9.831205368041992
1745661088.009533,-0.1468309909105301,0.06678622215986252,0.11388488113880157,-1.248596429824829,0.03176853805780411,-9.043413162231445
1745661088.0421562,-0.15685705840587616,0.09697364270687103,0.11861057579517365,-1.3231064081192017,0.09550677239894867,-8.722992897033691
1745661088.0442703,-0.17814508080482483,0.10861550271511078,0.12433190643787384,-1.0054494142532349,0.14949001371860504,-8.966714859008789
1745661088.0465717,-0.14256012439727783,0.14034076035022736,0.12382705509662628,-0.9447283744812012,0.9332703351974487,-9.52988338470459
1745661088.0489645,-0.14751043915748596,0.13398301601409912,0.12717340886592865,-0.1812087744474411,0.6632343530654907,-9.790811538696289
1745661088.0859041,-0.09155746549367905,0.13181456923484802,0.1422610580921173,-0.2807175815105438,0.46235528588294983,-10.060197830200195
1745661088.0880003,-0.1363469362258911,0.15100634098052979,0.14938561618328094,-0.09208130091428757,0.1636117696762085,-10.028532981872559
1745661088.089082,-0.14449439942836761,0.12928219139575958,0.15599021315574646,-0.599026083946228,-0.06945569068193436,-9.602779388427734
1745661088.094824,-0.14310453832149506,0.18447449803352356,0.15603730082511902,-0.4438270032405853,0.342776894569397,-8.510272979736328
1745661088.127322,-0.17849352955818176,0.15149621665477753,0.15514357388019562,-0.6248694658279419,0.745475172996521,-8.745089530944824
1745661088.1301367,-0.19177338480949402,0.16927114129066467,0.1665017455816269,-0.5712651014328003,-0.3169401288032532,-10.261723518371582
1745661088.132641,-0.18688742816448212,0.19026750326156616,0.17863713204860687,0.5577559471130371,0.15804584324359894,-10.406744003295898
1745661088.1347983,-0.21828296780586243,0.10671462118625641,0.17525240778923035,0.33734020590782166,1.8150192499160767,-10.96297836303711
1745661088.1380727,-0.09522683918476105,0.06537438929080963,0.16732147336006165,0.27042776346206665,1.7335789203643799,-11.336414337158203
1745661088.1711442,-0.05408988147974014,0.09133622795343399,0.1733780801296234,-0.6165539026260376,2.2803165912628174,-10.54144287109375
1745661088.173109,-0.0029474273324012756,0.07793481647968292,0.1830436736345291,-0.7181839346885681,0.1384756863117218,-8.907621383666992
1745661088.1749823,-0.0006266332929953933,0.07719939202070236,0.19853082299232483,-0.11522915214300156,0.3779044449329376,-7.614372253417969
1745661088.1769516,-0.03983542323112488,0.08997050672769547,0.216849684715271,-0.13917365670204163,-0.3442552387714386,-9.963772773742676
1745661088.2147057,-0.009129121899604797,0.11772622913122177,0.2173197716474533,0.2058240920305252,0.8291757702827454,-10.629472732543945
1745661088.2180662,-0.05188371613621712,0.13326402008533478,0.21286389231681824,0.09678546339273453,0.6550109386444092,-9.411752700805664
1745661088.2208142,-0.059880584478378296,0.11528421938419342,0.20803475379943848,0.5839560031890869,0.20039010047912598,-8.916208267211914
1745661088.2237494,-0.11816833168268204,0.10153695195913315,0.20092639327049255,0.3846566677093506,0.15170499682426453,-10.13054370880127
1745661088.227617,-0.15065690875053406,0.12019195407629013,0.19867338240146637,-0.49274659156799316,-0.6826575398445129,-10.779796600341797
1745661088.2590976,-0.12504367530345917,0.02307303063571453,0.1356734335422516,-0.24369898438453674,3.1307690143585205,-12.294952392578125
1745661088.2659864,-0.058187998831272125,0.07271245867013931,0.11658670008182526,-1.0503108501434326,2.2278106212615967,-11.663777351379395
1745661088.2660484,0.025742169469594955,0.059826333075761795,0.11881021410226822,-0.9719901084899902,1.0063120126724243,-7.672829627990723
1745661088.2661192,-0.01194519829005003,0.047883495688438416,0.1383107304573059,-0.6068199276924133,-0.19813010096549988,-6.90201473236084
1745661088.3018334,0.012897893786430359,0.08469156175851822,0.16204866766929626,-0.08323994278907776,-0.40656059980392456,-9.957690238952637
1745661088.3053634,-0.009138700552284718,0.10692498832941055,0.16758278012275696,0.6020600199699402,0.3819897174835205,-11.028098106384277
1745661088.3074965,-0.034420616924762726,0.09123365581035614,0.1715773344039917,1.0609395503997803,-0.011988958343863487,-9.66494083404541
1745661088.3122683,-0.07083757221698761,0.04412289708852768,0.1745612621307373,1.1980369091033936,0.21574442088603973,-9.942140579223633
1745661088.3436816,-0.09611424058675766,0.0443108007311821,0.1629207581281662,0.5934062600135803,0.41679924726486206,-11.532501220703125
1745661088.3466516,-0.1494888961315155,0.06535622477531433,0.15607850253582,-0.031928397715091705,-0.3748592734336853,-9.978241920471191
1745661088.3467445,-0.17941392958164215,0.06512534618377686,0.1656036525964737,-0.3973901867866516,-0.3509083390235901,-7.237138271331787
1745661088.3550582,-0.21507617831230164,0.055851202458143234,0.17554700374603271,0.02902638353407383,0.3682454228401184,-8.362950325012207
1745661088.3890352,-0.1595081090927124,0.016865966841578484,0.17195554077625275,0.2510274648666382,1.7057729959487915,-12.09892749786377
1745661088.3904748,-0.1432194709777832,0.03955693915486336,0.1676051914691925,-0.13571561872959137,0.29499000310897827,-10.72314453125
1745661088.3915176,-0.1729610115289688,0.03940216079354286,0.17175975441932678,-0.6660386323928833,0.2157047688961029,-7.8890790939331055
1745661088.393113,-0.21560493111610413,0.029868775978684425,0.17564991116523743,-0.39219334721565247,0.5750625729560852,-8.043943405151367
1745661088.4005456,-0.20212256908416748,0.013937416486442089,0.1677570790052414,0.19434502720832825,1.366857647895813,-11.11440372467041
1745661088.4316447,-0.14509683847427368,0.039444372057914734,0.14942412078380585,0.19381754100322723,2.4310379028320312,-12.269674301147461
1745661088.4338813,-0.057467855513095856,0.021205635741353035,0.14032277464866638,-0.024666938930749893,2.2437286376953125,-9.449328422546387
1745661088.4339392,-0.03735365718603134,0.007338522467762232,0.15073151886463165,-0.6291068196296692,0.7699331045150757,-7.872628688812256
1745661088.435709,-0.05844311788678169,0.029210690408945084,0.1632627695798874,0.1195540577173233,-0.4762621819972992,-9.409689903259277
1745661088.4734778,-0.13444027304649353,0.026633623987436295,0.17918506264686584,0.463753879070282,-0.35424479842185974,-10.8751802444458
1745661088.4844613,-0.13280515372753143,0.0334051176905632,0.1868707239627838,0.5039636492729187,0.27730971574783325,-9.886487007141113
1745661088.4883099,-0.1472312957048416,0.013478259555995464,0.1957245171070099,0.4203873574733734,0.8569135665893555,-8.918091773986816
1745661088.4916961,-0.20875036716461182,0.0051414621993899345,0.19135485589504242,0.014569362625479698,1.1045873165130615,-10.46320915222168
1745661088.4951668,-0.18264000117778778,-0.013902026228606701,0.16773121058940887,0.7868243455886841,1.9710174798965454,-11.035627365112305
1745661088.5171797,-0.12144660949707031,-0.051029007881879807,0.1407293975353241,0.17546792328357697,3.6324973106384277,-10.461694717407227
1745661088.5190306,-0.0248026754707098,-0.06461839377880096,0.11707915365695953,-0.8769813776016235,3.1978518962860107,-10.166364669799805
1745661088.519368,0.04606476426124573,-0.03397824615240097,0.10952240228652954,-1.1938947439193726,1.7123534679412842,-8.937956809997559
1745661088.5212595,0.04697877913713455,0.00927475094795227,0.11110023409128189,-0.7203884124755859,1.0000226497650146,-7.710461616516113
1745661088.5581849,0.0335603691637516,-0.014940870925784111,0.12714500725269318,0.5105454325675964,-0.43607068061828613,-8.867924690246582
1745661088.5599916,0.041923947632312775,0.0005318747716955841,0.1437390148639679,1.0203596353530884,0.6556385159492493,-11.284236907958984
1745661088.5606248,0.054249804466962814,-0.006280592642724514,0.14821720123291016,0.8007062673568726,0.7359150648117065,-11.455284118652344
1745661088.5638525,0.03452303633093834,-0.006730129010975361,0.14405056834220886,0.32407233119010925,0.8808524012565613,-9.070633888244629
1745661088.5661087,-0.03148100525140762,-0.023850569501519203,0.1340106725692749,0.2323298454284668,-0.5912107229232788,-8.931023597717285
1745661088.6024373,-0.1424359232187271,-0.017021093517541885,0.12170438468456268,-0.0021919712889939547,-0.005444467067718506,-10.328737258911133
1745661088.6050267,-0.07383129745721817,-0.030802151188254356,0.1053130254149437,-1.2687885761260986,1.469299077987671,-10.404111862182617
1745661088.6069415,-0.02965964376926422,0.015298018231987953,0.11300025880336761,-0.7987667322158813,0.5847550630569458,-9.931096076965332
1745661088.6091778,-0.06443314999341965,0.021597497165203094,0.12279351055622101,0.0766206607222557,0.24214501678943634,-8.130888938903809
1745661088.6460588,-0.04479740187525749,-0.019518619403243065,0.12410716712474823,0.7521836757659912,1.0044841766357422,-8.760080337524414
1745661088.649079,-0.02952602133154869,-0.00864777248352766,0.12183722108602524,0.1152423620223999,1.634473443031311,-11.380228996276855
1745661088.650782,0.011900138109922409,0.026906508952379227,0.12011586129665375,0.20215439796447754,1.0505049228668213,-10.83955192565918
1745661088.6534593,-0.04131940007209778,0.003958347253501415,0.11418364197015762,0.47655850648880005,0.6428713798522949,-8.643617630004883
1745661088.6890507,-0.08634690195322037,-0.03090319037437439,0.10970935970544815,0.5931738018989563,-0.15885059535503387,-9.278109550476074
1745661088.6953354,-0.12453633546829224,-0.011304592713713646,0.10730912536382675,-0.011136913672089577,0.36454397439956665,-10.863302230834961
1745661088.7003505,-0.14938762784004211,0.040871359407901764,0.10865674167871475,-0.5149834156036377,0.5674461126327515,-9.355793952941895
1745661088.7034836,-0.15373733639717102,0.035281501710414886,0.1018228679895401,0.5631124377250671,0.8015841245651245,-7.414162635803223
1745661088.7297282,-0.155814066529274,0.0033236786257475615,0.08530555665493011,0.9801830053329468,1.8387823104858398,-10.032829284667969
1745661088.7317758,-0.06864209473133087,-0.0026277631986886263,0.06992457807064056,0.5128069519996643,2.2588353157043457,-12.738643646240234
1745661088.7344456,-0.1142520159482956,0.11877922713756561,0.08141829818487167,0.0039136470295488834,2.3197226524353027,-8.221357345581055
1745661088.7364063,-0.07898925989866257,0.0746583640575409,0.07979007810354233,0.1485537588596344,2.128048896789551,-8.041112899780273
1745661088.7369332,-0.026384547352790833,0.09270131587982178,0.07416131347417831,0.20833805203437805,1.8938812017440796,-11.057809829711914
1745661088.78058,-0.0021479581482708454,0.108931764960289,0.07072551548480988,0.06994710862636566,1.800655722618103,-11.1292724609375
1745661088.7807217,0.04170266166329384,0.12082596123218536,0.07404473423957825,-0.2540662884712219,1.0494968891143799,-8.397679328918457
1745661088.780813,-0.024612169712781906,0.09769006818532944,0.07954800128936768,0.17552906274795532,0.4865523874759674,-8.163637161254883
1745661088.7808602,-0.028550973162055016,0.0914086252450943,0.07675529271364212,0.5821256637573242,0.9141758680343628,-10.65254020690918
1745661088.8179476,-0.05946870893239975,0.11774151027202606,0.07270313054323196,0.13775798678398132,0.7987632751464844,-11.330358505249023
1745661088.8202453,-0.05609705299139023,0.12426389753818512,0.06892398744821548,0.03515162318944931,1.1942882537841797,-8.492066383361816
1745661088.8225121,-0.07602769136428833,0.09214946627616882,0.06907474994659424,0.36331725120544434,0.956678032875061,-7.984424591064453
1745661088.8267467,-0.10664035379886627,0.08009268343448639,0.07020299136638641,0.31812575459480286,0.6112818717956543,-11.038421630859375
1745661088.8599038,-0.07228386402130127,0.10138899087905884,0.07689602673053741,0.4074024260044098,0.9960764050483704,-11.738100051879883
1745661088.8617353,-0.08632468432188034,0.097236767411232,0.08603647351264954,-0.0798134058713913,0.7515290975570679,-9.075803756713867
1745661088.8634808,-0.08556242287158966,0.08851446956396103,0.09179353713989258,-0.07440651953220367,1.2521083354949951,-7.721921443939209
1745661088.8657176,-0.0904802456498146,0.08136029541492462,0.08625845611095428,0.29961442947387695,1.445073127746582,-9.707612991333008
1745661088.866831,-0.06507422029972076,0.09566360712051392,0.0757470577955246,0.36421555280685425,1.7832987308502197,-11.143821716308594
1745661088.905129,-0.037021704018116,0.09649338573217392,0.07120224088430405,0.4275873601436615,1.5058391094207764,-9.90388298034668
1745661088.909081,-0.03918968141078949,0.07165882736444473,0.08015405386686325,0.5061002969741821,1.2457715272903442,-8.977876663208008
1745661088.9116628,-0.029614632949233055,0.058374859392642975,0.08490012586116791,0.6724553108215332,1.1661456823349,-10.186807632446289
1745661088.9139547,-0.05073215439915657,0.06659099459648132,0.08868591487407684,0.47608548402786255,0.7480497360229492,-10.92748737335205
1745661088.946959,-0.02883024513721466,0.08979417383670807,0.09003057330846786,0.5212300419807434,1.454343557357788,-8.906926155090332
1745661088.9492798,-0.048559706658124924,0.04930346459150314,0.08970849215984344,0.44501423835754395,1.4037511348724365,-8.40713119506836
1745661088.9536202,-0.04717666655778885,0.04694017022848129,0.09202972054481506,0.49210864305496216,1.1847620010375977,-10.484420776367188
1745661088.9572012,-0.029545729979872704,0.05550586059689522,0.09820117056369781,0.23844890296459198,1.3028217554092407,-9.600556373596191
1745661088.9582455,-0.030210252851247787,0.0717923492193222,0.0961751863360405,0.4639360010623932,1.6793075799942017,-10.610628128051758
1745661088.9907064,0.004083370324224234,0.05289516597986221,0.09811601787805557,0.6264262199401855,1.2610632181167603,-9.643147468566895
1745661088.9932501,0.02316526137292385,0.06326771527528763,0.10420620441436768,0.14686930179595947,1.8244876861572266,-9.275276184082031
1745661088.9958506,0.030298516154289246,0.051049839705228806,0.10183709859848022,0.5067151784896851,1.5204410552978516,-9.932001113891602
1745661088.9973247,0.061880599707365036,0.056993287056684494,0.10107485204935074,0.22673170268535614,1.4938957691192627,-10.076525688171387
1745661089.0325623,0.07679420709609985,0.07657023519277573,0.10240601003170013,0.41260504722595215,1.6836824417114258,-9.275227546691895
1745661089.0336156,0.05889265984296799,0.03815503418445587,0.10033439099788666,0.5432747602462769,1.3817859888076782,-9.152779579162598
1745661089.036317,0.09265271574258804,0.05092110484838486,0.10315455496311188,0.30497151613235474,0.9762492179870605,-10.292067527770996
1745661089.0381567,0.061880696564912796,0.06325213611125946,0.10304433107376099,0.6531165838241577,1.4754040241241455,-10.389371871948242
1745661089.0386667,0.08344651758670807,0.04312550276517868,0.09901624917984009,0.3367553949356079,1.240601897239685,-9.508244514465332
1745661089.080351,0.10238363593816757,0.05031704902648926,0.09999321401119232,0.35066503286361694,1.3578670024871826,-8.993941307067871
1745661089.0852108,0.0683491975069046,0.04764808714389801,0.10842311382293701,0.4103110432624817,0.7734124064445496,-9.879594802856445
1745661089.0914397,0.2072066366672516,0.03456234931945801,0.25846433639526367,0.5645017623901367,0.9262529611587524,-9.964925765991211
1745661089.1191506,0.23968751728534698,0.04543720558285713,0.26196128129959106,0.7531605958938599,1.2255061864852905,-9.875563621520996
1745661089.1227036,0.24254436790943146,0.048457540571689606,0.26558631658554077,0.4041869044303894,1.3737714290618896,-9.362910270690918
1745661089.1237056,0.250540167093277,0.034263528883457184,0.26866358518600464,0.7393156290054321,0.7495828866958618,-9.361501693725586
1745661089.1261067,0.27740517258644104,0.04419613629579544,0.27378812432289124,0.6278611421585083,1.3105838298797607,-9.753934860229492
1745661089.1303272,0.26615768671035767,0.05426651984453201,0.2764865756034851,0.7204959988594055,0.924211323261261,-9.98437213897705
1745661089.1623056,0.269098699092865,0.03684179484844208,0.27725523710250854,0.9293888211250305,1.0030771493911743,-9.56527042388916
1745661089.164676,0.2768799960613251,0.04544020816683769,0.27971720695495605,0.9599758982658386,0.9207102060317993,-9.479951858520508
1745661089.1684086,0.243220254778862,0.03594332933425903,0.2806337773799896,0.9575197100639343,0.7454566359519958,-9.98425006866455
1745661089.1686656,0.24911603331565857,0.03532318398356438,0.2804669439792633,0.7407164573669434,0.8664035797119141,-10.009178161621094
1745661089.206679,0.2525855302810669,0.031733930110931396,0.28355100750923157,1.291627049446106,0.7836326360702515,-9.368700981140137
1745661089.2102907,0.2764492928981781,0.009294706396758556,0.29120129346847534,0.816889762878418,1.7294349670410156,-9.71198558807373
1745661089.2104099,0.30905258655548096,0.020483821630477905,0.27932125329971313,-0.7304670810699463,1.8082042932510376,-10.718441009521484
1745661089.2138395,0.36279529333114624,0.008117013610899448,0.2616816759109497,0.29163917899131775,1.7921695709228516,-8.654520988464355
1745661089.2211537,0.4266059994697571,-0.013571618124842644,0.254065603017807,-0.4100061058998108,0.9080430269241333,-9.617961883544922
1745661089.2504663,0.2950529158115387,-0.02897026017308235,0.24131229519844055,-1.2397830486297607,1.1347742080688477,-10.719427108764648
1745661089.2525237,0.39182206988334656,0.006085623521357775,0.2463250607252121,-0.6715131402015686,-1.133202314376831,-9.434774398803711
1745661089.2562778,0.33455926179885864,0.044252704828977585,0.25823527574539185,0.027032947167754173,0.06731469929218292,-7.8283796310424805
1745661089.257717,0.18640205264091492,-0.041279759258031845,0.2601602077484131,1.1537543535232544,-0.611556351184845,-9.748802185058594
1745661089.2902913,0.2784668803215027,-0.03172563016414642,0.25649452209472656,1.557452917098999,-0.3668057322502136,-11.72990608215332
1745661089.292476,0.18924349546432495,-0.007575786206871271,0.2559922933578491,0.09983501583337784,0.0826764851808548,-10.762001991271973
1745661089.2961855,0.1362563818693161,-0.048242103308439255,0.2614346742630005,0.19890061020851135,-0.03212680667638779,-7.989924430847168
1745661089.2983894,0.29317110776901245,-0.0783381462097168,0.2177855670452118,0.4942248463630676,2.423738718032837,-9.423364639282227
1745661089.3356113,0.3164559602737427,-0.08268330991268158,0.22426533699035645,0.14332368969917297,0.49215632677078247,-12.409337997436523
1745661089.3370512,0.42213010787963867,-0.042894501239061356,0.24328561127185822,0.26327046751976013,0.6978084444999695,-9.927453994750977
1745661089.34067,0.36468106508255005,-0.06917759031057358,0.25817376375198364,-0.030296724289655685,0.17107975482940674,-7.443041801452637
1745661089.342544,0.397984117269516,-0.09439679980278015,0.25900399684906006,0.3523959517478943,0.6353819370269775,-8.902976036071777
1745661089.3784425,0.34051936864852905,-0.10035540908575058,0.2463620901107788,0.22062893211841583,0.7332717776298523,-12.026702880859375
1745661089.3803804,0.3667510449886322,-0.07725294679403305,0.23581509292125702,-0.31160426139831543,0.06393393129110336,-10.787276268005371
1745661089.388318,0.2605092227458954,-0.1005532518029213,0.23209866881370544,-0.4172047972679138,-0.4007244110107422,-7.8630475997924805
1745661089.3885982,0.2004769742488861,-0.13428397476673126,0.23800480365753174,-0.42023879289627075,-0.9164726138114929,-8.88591194152832
1745661089.3886902,0.17738360166549683,-0.1005752831697464,0.24981626868247986,0.01541252713650465,-0.49201148748397827,-11.116092681884766
1745661089.420885,0.11405479907989502,-0.09999760240316391,0.25634264945983887,-0.05817265436053276,-0.1490316390991211,-10.478693008422852
1745661089.424452,0.17251834273338318,-0.11275478452444077,0.2696393132209778,0.1784936487674713,0.5187121033668518,-8.291958808898926
1745661089.427739,0.13646593689918518,-0.1317930817604065,0.2730694115161896,0.12739375233650208,0.6765722632408142,-9.388433456420898
1745661089.4302158,0.18181255459785461,-0.04853137582540512,0.18995773792266846,-0.054976243525743484,-0.14409972727298737,-9.815057754516602
1745661089.4632607,0.20940887928009033,-0.04345960542559624,0.19098086655139923,0.051173459738492966,0.2682359218597412,-10.010334014892578
1745661089.465898,0.21546010673046112,-0.03299691900610924,0.1924821436405182,0.4365881085395813,0.07204770296812057,-9.872550964355469
1745661089.4682388,0.22432804107666016,-0.045245952904224396,0.19580483436584473,0.4274560809135437,-0.04165474325418472,-9.958475112915039
1745661089.4694126,0.2523808479309082,-0.02981829084455967,0.1989196538925171,0.2574630379676819,0.3025825619697571,-9.954732894897461
1745661089.5059147,0.23527348041534424,-0.030243869870901108,0.19922946393489838,0.1435977816581726,-0.20988492667675018,-9.83276081085205
1745661089.5072517,0.2648765444755554,-0.02305966429412365,0.19796566665172577,-0.034179605543613434,0.37046337127685547,-9.4570951461792
1745661089.5094616,0.2284121960401535,-0.02589426003396511,0.19319339096546173,0.07881610840559006,-0.03536980226635933,-9.830256462097168
1745661089.5107603,0.2554790675640106,-0.019754460081458092,0.18169614672660828,-0.07180027663707733,0.34599193930625916,-10.108088493347168
1745661089.5125265,0.23603053390979767,-0.008881052024662495,0.17525431513786316,0.14867514371871948,-0.04071829468011856,-9.80134391784668
1745661089.5491202,0.23177731037139893,-0.021974865347146988,0.1741209328174591,0.2209901511669159,-0.3050403296947479,-9.629992485046387
1745661089.551418,0.22471947968006134,-0.009450254030525684,0.176944762468338,0.22905614972114563,-0.5323265194892883,-9.973788261413574
1745661089.5514865,0.20775870978832245,-0.008866196498274803,0.1852269321680069,0.25526413321495056,-0.8074744343757629,-10.097683906555176
1745661089.5515256,0.20940685272216797,0.004093934316188097,0.19093766808509827,0.11881210654973984,-0.47573408484458923,-9.623922348022461
1745661089.5939174,0.18792223930358887,-0.0036502250004559755,0.19443555176258087,0.1358870267868042,-0.45330554246902466,-9.540316581726074
1745661089.6009386,0.1881641298532486,0.00035065022530034184,0.19079871475696564,-0.11401717364788055,0.019835319370031357,-9.980332374572754
1745661089.6042166,0.1914820373058319,0.016458500176668167,0.17955699563026428,0.00415927916765213,-0.01036177109926939,-10.060525894165039
1745661089.6043231,0.17673106491565704,0.010092104785144329,0.17518250644207,-0.11408225446939468,-0.05137239769101143,-9.552297592163086
1745661089.6342201,0.1693134903907776,0.01737075299024582,0.1691523939371109,0.0791601687669754,-0.41886967420578003,-9.413043022155762
1745661089.6368592,0.1468658745288849,0.017198102548718452,0.17272797226905823,0.28334659337997437,-0.5461496114730835,-9.788142204284668
1745661089.6390047,0.14449098706245422,0.031403832137584686,0.1749502420425415,0.2553401589393616,-0.413175106048584,-10.06849479675293
1745661089.641129,0.14024871587753296,0.029269730672240257,0.18293939530849457,0.5446656942367554,-0.4647299647331238,-9.706308364868164
1745661089.6782277,0.2011808454990387,0.04324854537844658,0.1712246835231781,0.04374434053897858,-0.40208253264427185,-9.900424003601074
1745661089.68004,0.17410053312778473,0.04837051033973694,0.17102673649787903,0.3736690878868103,-0.4654143750667572,-9.948633193969727
1745661089.6831448,0.17609688639640808,0.04895021393895149,0.17095546424388885,0.30426937341690063,-0.8210207223892212,-9.794624328613281
1745661089.6857312,0.14042901992797852,0.04385215789079666,0.1746968775987625,0.5470851063728333,-0.8484315872192383,-9.504358291625977
1745661089.690163,0.11707217991352081,0.047439344227313995,0.17996665835380554,0.29847368597984314,-0.8407980799674988,-9.960176467895508
1745661089.7227132,0.11111893504858017,0.056878138333559036,0.17960110306739807,0.2406764030456543,-0.6910449266433716,-9.943166732788086
1745661089.7249503,0.08197765052318573,0.04914229363203049,0.18148210644721985,0.031967006623744965,-0.4297426640987396,-9.476862907409668
1745661089.7265127,0.10007252544164658,0.05719050019979477,0.1828261911869049,-0.00898082833737135,-0.2905614674091339,-9.451509475708008
1745661089.72819,0.0757032036781311,0.054228078573942184,0.1737804412841797,-0.1057109385728836,0.01929345726966858,-9.81999683380127
1745661089.7636101,0.10141666233539581,0.06866084039211273,0.16495048999786377,0.24923861026763916,-0.23220176994800568,-9.714468955993652
1745661089.7654321,0.08008963614702225,0.04740738123655319,0.16534043848514557,0.4442066252231598,-0.2528223991394043,-9.635259628295898
1745661089.7672546,0.10235116630792618,0.07223688066005707,0.1668722927570343,0.1237524002790451,-0.3653160631656647,-9.923276901245117
1745661089.768536,0.11077827215194702,0.07035142183303833,0.17342130839824677,0.5314330458641052,-0.3759540915489197,-9.480145454406738
1745661089.807774,0.10779991000890732,0.05999531224370003,0.18090158700942993,0.5511836409568787,-0.6326836943626404,-9.666086196899414
1745661089.8104708,-0.08007451146841049,0.08498488366603851,0.2256280928850174,0.8515586853027344,0.20251452922821045,-9.586044311523438
1745661089.812378,-0.07240477204322815,0.08192555606365204,0.22810769081115723,0.5060393810272217,-0.1247681975364685,-9.029211044311523
1745661089.8160462,-0.048486366868019104,0.07774963974952698,0.23926755785942078,0.8995130658149719,-0.25907447934150696,-9.605011940002441
1745661089.8188071,-0.04725749045610428,0.08581627905368805,0.24775466322898865,0.7661669254302979,-0.2739998996257782,-10.356962203979492
1745661089.8513744,-0.01951448619365692,0.09456468373537064,0.26060134172439575,0.8970288038253784,-0.4708491265773773,-9.694730758666992
1745661089.8581095,-0.04199494794011116,0.08273778110742569,0.2671438753604889,0.8396299481391907,-0.3076218068599701,-9.11244010925293
1745661089.8619218,-0.030537104234099388,0.08443047106266022,0.2686257064342499,0.9062806963920593,-0.6964832544326782,-9.729110717773438
1745661089.8650103,-0.06399647891521454,0.08430245518684387,0.2734355628490448,0.9568291902542114,-0.6222771406173706,-10.30451488494873
1745661089.893651,-0.08415772020816803,0.08645722270011902,0.27366501092910767,0.6611236929893494,-0.9044559597969055,-9.937047958374023
1745661089.8986635,-0.12067250162363052,0.08031567186117172,0.27983853220939636,0.8496645092964172,-0.9588834643363953,-9.103766441345215
1745661089.9022992,-0.1606302261352539,0.08080975711345673,0.2835109233856201,0.6239174008369446,-0.9048517942428589,-9.537620544433594
1745661089.9048908,-0.18594767153263092,0.08351442962884903,0.2884353995323181,0.8729092478752136,-0.8686528205871582,-10.115028381347656
1745661089.9365423,-0.19790983200073242,0.07893041521310806,0.2944104075431824,1.011231541633606,-0.433577299118042,-9.845499038696289
1745661089.9381914,-0.19591893255710602,0.08211167901754379,0.29942309856414795,0.8596206903457642,-0.426011860370636,-9.614399909973145
1745661089.9413896,-0.20064857602119446,0.06955976039171219,0.30520838499069214,0.858665943145752,-0.2833884358406067,-9.650108337402344
1745661089.944039,-0.17196732759475708,0.0784299299120903,0.31331369280815125,0.7891441583633423,-0.12932471930980682,-9.841010093688965
1745661089.9468067,-0.17013496160507202,0.08163772523403168,0.32058194279670715,0.8517822027206421,-0.1791612207889557,-9.793130874633789
1745661089.9810169,-0.14885050058364868,0.06826882064342499,0.32486996054649353,0.6267749071121216,0.09465614706277847,-9.59326457977295
1745661089.984155,-0.15081098675727844,0.07279151678085327,0.325211763381958,0.9334756135940552,-0.0570642463862896,-9.561708450317383
1745661089.9891086,-0.14307458698749542,0.068894162774086,0.324623167514801,0.8105098009109497,0.054679930210113525,-9.918046951293945
1745661089.991466,-0.13753706216812134,0.06582331657409668,0.32008153200149536,1.1600252389907837,-0.15491774678230286,-9.94599437713623
1745661090.0226064,-0.14652438461780548,0.04232030361890793,0.31631121039390564,1.4241511821746826,0.15798190236091614,-9.780191421508789
1745661090.0254354,-0.12277601659297943,0.04428054392337799,0.29236361384391785,-0.11907446384429932,-1.5377023220062256,-8.807714462280273
1745661090.0269306,-0.132902592420578,0.03168574720621109,0.2880331575870514,0.5777249336242676,-1.427690029144287,-9.35476016998291
1745661090.0278451,-0.17562150955200195,0.02743229828774929,0.2827916443347931,0.9437910318374634,-0.6988428235054016,-10.778249740600586
1745661090.066041,-0.2821599543094635,0.025308668613433838,0.27199608087539673,1.461414098739624,-1.6795661449432373,-10.631994247436523
1745661090.0691705,-0.23635096848011017,0.011373376473784447,0.27110379934310913,1.0411020517349243,-0.6685861945152283,-9.056184768676758
1745661090.0736966,-0.35320109128952026,-0.005057202186435461,0.2662796080112457,0.9050040245056152,-0.6910807490348816,-9.394561767578125
1745661090.0748994,-0.31428542733192444,-0.012829405255615711,0.2689744830131531,0.6844645738601685,-0.2486952245235443,-10.463197708129883
1745661090.0795915,-0.2999076247215271,0.008421954698860645,0.26120439171791077,0.38228362798690796,0.5925711393356323,-9.917482376098633
1745661090.1084096,-0.266107976436615,-0.010393568314611912,0.24895170331001282,0.5745784044265747,1.2840867042541504,-8.923465728759766
1745661090.1108959,-0.17738093435764313,-0.02970573864877224,0.23155899345874786,0.3874298632144928,1.6352771520614624,-9.885391235351562
1745661090.1143632,-0.0995023176074028,-0.008021838963031769,0.22401198744773865,0.5926095247268677,1.2896003723144531,-10.745695114135742
1745661090.1156528,-0.037717338651418686,-0.017506808042526245,0.21681281924247742,0.5938804149627686,0.7782753109931946,-9.717599868774414
1745661090.1522605,-0.013905687257647514,-0.025291824713349342,0.22226162254810333,0.6028566956520081,-0.24795503914356232,-9.003811836242676
1745661090.1547098,-0.021949369460344315,-0.028555387631058693,0.22597560286521912,0.7373939156532288,-0.4520772099494934,-9.745694160461426
1745661090.1548464,-0.09710754454135895,-0.1044434905052185,0.15377548336982727,0.35596567392349243,0.9821397066116333,-9.46844482421875
1745661090.1569357,-0.028637424111366272,-0.08282681554555893,0.15189799666404724,0.16738353669643402,0.7925199866294861,-11.142648696899414
1745661090.1939158,-0.005807084031403065,-0.0699794739484787,0.14458158612251282,0.03251808136701584,0.7513263821601868,-10.104496002197266
1745661090.1980317,0.023524310439825058,-0.08101654052734375,0.14297986030578613,-0.0942424014210701,0.19615384936332703,-8.458528518676758
1745661090.2015657,-0.005333978682756424,-0.09405776113271713,0.1437932550907135,0.4545658528804779,-0.38519325852394104,-9.432266235351562
1745661090.2028842,-0.03258557617664337,-0.08953253924846649,0.14566871523857117,0.3364473879337311,-0.6539843678474426,-11.288951873779297
1745661090.206164,-0.050739120692014694,-0.062156688421964645,0.1473674327135086,0.3999578058719635,-0.7056726217269897,-10.266751289367676
1745661090.237518,-0.10928110033273697,-0.08730103820562363,0.1476432830095291,0.5013720989227295,-0.594316840171814,-8.553963661193848
1745661090.2402034,-0.14267155528068542,-0.09884746372699738,0.14593371748924255,0.49949297308921814,-0.43035799264907837,-9.568662643432617
1745661090.2422917,-0.1570919305086136,-0.09261681884527206,0.14411497116088867,0.45699501037597656,-0.1478760689496994,-11.051885604858398
1745661090.2430573,-0.15514567494392395,-0.0722217708826065,0.14093166589736938,-0.11790134012699127,0.2467230260372162,-10.275171279907227
1745661090.2851892,-0.13746774196624756,-0.08474685251712799,0.1419510841369629,0.15946052968502045,0.30612677335739136,-8.522249221801758
1745661090.2893872,-0.12070604413747787,-0.09804993867874146,0.14284080266952515,0.02887033298611641,0.7336673736572266,-9.376876831054688
1745661090.290616,-0.0734691470861435,-0.08167794346809387,0.14155475795269012,0.11839153617620468,0.6064177751541138,-11.017616271972656
1745661090.2942297,-0.049368031322956085,-0.07310275733470917,0.1393793672323227,0.23848533630371094,0.7232679128646851,-10.05645751953125
1745661090.297122,-0.014373023994266987,-0.07522730529308319,0.1360328048467636,0.25019368529319763,0.5490038394927979,-8.815744400024414
1745661090.3247712,-0.01378391869366169,-0.09787876904010773,0.13678796589374542,0.5060341358184814,0.21556513011455536,-9.539571762084961
1745661090.3291676,-0.013390200212597847,-0.08294856548309326,0.13625122606754303,0.3224962651729584,0.01749439910054207,-10.869087219238281
1745661090.3327718,-0.02553495205938816,-0.07112117856740952,0.13394424319267273,0.3843260407447815,-0.24274945259094238,-10.092832565307617
1745661090.336175,-0.050184864550828934,-0.08195729553699493,0.13112889230251312,0.1384500116109848,0.024059925228357315,-8.838823318481445
1745661090.3663661,-0.067424476146698,-0.08736737072467804,0.1290389597415924,0.2965675890445709,-0.1597895622253418,-9.493768692016602
1745661090.3705873,-0.08172453194856644,-0.08255328238010406,0.12316099554300308,0.1799044907093048,0.03243400901556015,-10.630125045776367
1745661090.3743613,-0.0480591356754303,-0.07054639607667923,0.12257355451583862,0.21899715065956116,0.38291651010513306,-9.634361267089844
1745661090.377779,-0.035759393125772476,-0.05839397385716438,0.11367310583591461,0.2550197243690491,0.28946933150291443,-10.224166870117188
1745661090.4087276,-0.0619102418422699,-0.05727023631334305,0.1021866649389267,0.6415716409683228,0.32442107796669006,-9.949262619018555
1745661090.4122849,-0.06025955080986023,-0.06111358478665352,0.098180390894413,0.551230788230896,0.24523992836475372,-9.629895210266113
1745661090.4161375,-0.028642643243074417,-0.04027005657553673,0.09188064187765121,0.4692900776863098,0.6579387187957764,-9.638092041015625
1745661090.4177282,-0.012969774194061756,-0.047829512506723404,0.08628087490797043,0.8857595324516296,0.6777440309524536,-9.454626083374023
1745661090.4220872,0.02027755230665207,-0.042426012456417084,0.0829692929983139,0.9078343510627747,0.09095390886068344,-10.241296768188477
1745661090.452216,0.02484852261841297,-0.0498829111456871,0.08458016812801361,0.3966330587863922,0.24726176261901855,-10.325551986694336
1745661090.4545274,0.07803264260292053,-0.014876328408718109,0.08569788932800293,-0.1116521805524826,0.35914045572280884,-9.58177661895752
1745661090.457026,0.046675316989421844,-0.009843658655881882,0.07280224561691284,0.3160684108734131,0.6019957661628723,-8.603487014770508
1745661090.4599764,0.0798255130648613,-0.01753752864897251,0.05968650430440903,0.7805557250976562,-0.05802018195390701,-9.498320579528809
1745661090.4983587,0.0509587898850441,-0.014165250584483147,0.041856009513139725,0.910633385181427,0.6321722269058228,-10.917384147644043
1745661090.5011454,0.03968162462115288,0.0011228438233956695,0.03051850199699402,0.6213335394859314,-0.370883971452713,-10.609380722045898
1745661090.5031593,0.05527457594871521,0.010918879881501198,0.030040740966796875,0.7807386517524719,-0.4447929263114929,-8.549975395202637
1745661090.5082614,0.1703328937292099,0.09118978679180145,-0.10250004380941391,0.6570972204208374,-0.2487914264202118,-10.299074172973633
1745661090.5402331,0.15136417746543884,0.08986025303602219,-0.10913737118244171,0.5424033403396606,-0.012794846668839455,-10.306382179260254
1745661090.5406506,0.1714969277381897,0.09575466811656952,-0.11624465882778168,0.701087236404419,-0.08392162621021271,-9.295927047729492
1745661090.5437477,0.13747993111610413,0.08461910486221313,-0.12484028190374374,0.663743793964386,0.0166334118694067,-9.207679748535156
1745661090.5458927,0.13797619938850403,0.08451811969280243,-0.13090288639068604,0.5768600702285767,-0.3858138918876648,-10.041142463684082
1745661090.5484703,0.13679780066013336,0.09084399044513702,-0.13443799316883087,0.9518416523933411,-0.20114478468894958,-9.87674331665039
1745661090.589467,0.09743236005306244,0.09621699154376984,-0.13410910964012146,0.6246873140335083,-0.31866374611854553,-9.703335762023926
1745661090.5953422,0.1394490748643875,0.08134838938713074,-0.13604994118213654,0.7489614486694336,-0.0846669152379036,-9.434099197387695
1745661090.595429,0.11781927198171616,0.08161365985870361,-0.13650672137737274,0.7130330801010132,0.19422414898872375,-9.752119064331055
1745661090.5981581,0.15832838416099548,0.09203143417835236,-0.14289945363998413,0.7405003905296326,-0.014615324325859547,-10.038217544555664
1745661090.6243997,0.15989789366722107,0.0755777508020401,-0.14741143584251404,0.6539704203605652,0.21345093846321106,-9.643472671508789
1745661090.6273053,0.1834832727909088,0.08243972063064575,-0.14809969067573547,0.5396100282669067,-0.005496546626091003,-9.491336822509766
1745661090.6305912,0.1683838665485382,0.08208765089511871,-0.15325795114040375,0.6686661839485168,-0.11406069993972778,-9.65514850616455
1745661090.6336439,0.17451462149620056,0.07234755158424377,-0.15648187696933746,0.6394480466842651,-0.4951760172843933,-9.947442054748535
1745661090.6359713,0.16430941224098206,0.0740271806716919,-0.15852053463459015,1.0339176654815674,-0.29107001423835754,-9.716473579406738
1745661090.6676083,0.128352090716362,0.0699676051735878,-0.16108083724975586,0.6553963422775269,-0.5330360531806946,-9.876328468322754
1745661090.6715317,0.15689416229724884,0.06742364168167114,-0.16500705480575562,0.840692400932312,-0.44689837098121643,-9.515198707580566
1745661090.6741314,0.09780760109424591,0.06474538892507553,-0.16609418392181396,0.860843300819397,-0.2982427477836609,-9.529192924499512
1745661090.6781852,0.12850941717624664,0.06818538904190063,-0.1703805923461914,0.651897668838501,-0.4101557731628418,-10.000680923461914
1745661090.7110138,0.11374366283416748,0.058848846703767776,-0.17155425250530243,0.6699987053871155,-0.008245473727583885,-9.722845077514648
1745661090.714473,0.1261514127254486,0.06644652783870697,-0.17628715932369232,0.5225328803062439,-0.11912564933300018,-9.548860549926758
1745661090.7189238,0.14482766389846802,0.060122571885585785,-0.17740246653556824,0.7156025171279907,-0.03419912979006767,-9.53051471710205
1745661090.721216,0.1584315299987793,0.046745527535676956,-0.19256240129470825,0.688468337059021,-0.5079301595687866,-10.118541717529297
1745661090.7542205,0.13326147198677063,0.04374527186155319,-0.19399413466453552,0.8236088752746582,-0.15630537271499634,-9.293661117553711
1745661090.7559829,0.12894119322299957,0.035043876618146896,-0.20049667358398438,0.6417089700698853,-0.4046532213687897,-9.508042335510254
1745661090.759018,0.14391785860061646,0.0339834950864315,-0.20273756980895996,0.8372365236282349,-0.1949409544467926,-9.917445182800293
1745661090.760215,0.11989078670740128,0.0325191356241703,-0.20439854264259338,0.6684513688087463,-0.3698086738586426,-10.075282096862793
1745661090.7624938,0.14899542927742004,0.03634290024638176,-0.20442087948322296,0.7492645382881165,-0.47208404541015625,-9.586628913879395
1745661090.797595,0.12649323046207428,0.01649751327931881,-0.20488671958446503,0.7958709597587585,-0.4445303976535797,-9.433377265930176
1745661090.8017988,0.14723233878612518,0.022689957171678543,-0.2046608179807663,0.6989461779594421,-0.42476099729537964,-10.035223007202148
1745661090.8049197,0.1220303401350975,0.0225841011852026,-0.20529663562774658,0.8644160032272339,-0.3722168207168579,-9.945306777954102
1745661090.8081608,0.14437291026115417,0.01755739189684391,-0.21129174530506134,0.6749258041381836,-0.38925081491470337,-9.469405174255371
1745661090.840664,0.12238235771656036,0.015753861516714096,-0.21107728779315948,0.8230633735656738,-0.31134673953056335,-9.378646850585938
1745661090.8426213,0.1149311512708664,0.00875425897538662,-0.21750898659229279,0.6994320154190063,-0.43375810980796814,-10.1334228515625
1745661090.8461866,0.13146716356277466,0.01671043410897255,-0.22433237731456757,0.6845510601997375,-0.32705605030059814,-9.959803581237793
1745661090.883546,-0.00520495418459177,-0.07743491232395172,-0.042138781398534775,0.08902494609355927,-0.05039699003100395,-9.356037139892578
1745661090.885693,-0.0281781367957592,-0.06928910315036774,-0.04523622244596481,0.2514774203300476,-0.28655895590782166,-9.9253511428833
1745661090.886104,-0.002778459805995226,-0.06657517701387405,-0.04593273252248764,0.2433849573135376,-0.349831759929657,-10.067575454711914
1745661090.8881302,-0.023755477741360664,-0.06402383744716644,-0.042583826929330826,0.42185696959495544,-0.5457842946052551,-9.653076171875
1745661090.8932307,-0.02700045332312584,-0.07597190886735916,-0.03341822698712349,0.5911179780960083,-0.8028057217597961,-9.587751388549805
1745661090.9289773,-0.0133056640625,-0.06057306006550789,-0.028930922970175743,0.5194891691207886,-0.580490231513977,-9.950508117675781
1745661090.9310648,-0.0600518062710762,-0.0649900957942009,-0.02158246375620365,0.4487897753715515,-0.8418208956718445,-10.142488479614258
1745661090.9357667,-0.029057443141937256,-0.05943158268928528,-0.010267135687172413,0.26479655504226685,-0.8029972314834595,-9.617093086242676
1745661090.937094,-0.06758442521095276,-0.04508005082607269,-0.00043731965706683695,0.6185605525970459,-0.7405064105987549,-9.28606128692627
1745661090.9713583,-0.06847614049911499,-0.061033863574266434,0.0076642269268631935,0.382987916469574,-0.7500904202461243,-10.141495704650879
1745661090.9732044,-0.0932404026389122,-0.04682167246937752,0.013695508241653442,0.6989580392837524,-0.7244223356246948,-10.058767318725586
1745661090.9758072,-0.12194947153329849,-0.04260648787021637,0.01866823248565197,0.8676791191101074,-0.719458818435669,-9.617063522338867
1745661090.9786072,-0.12016342580318451,-0.04951446130871773,0.022041339427232742,0.8056767582893372,-0.3643913269042969,-9.724082946777344
1745661090.9804957,-0.15528348088264465,-0.05790488049387932,0.02888008952140808,1.0137516260147095,-0.5010906457901001,-10.22381591796875
1745661091.0139444,-0.12185513973236084,-0.037719279527664185,0.03566736727952957,0.7328311800956726,-0.06307151913642883,-10.150130271911621
1745661091.0165076,-0.1259460300207138,-0.04006984829902649,0.045619357377290726,0.5842998623847961,-0.10502810776233673,-9.592705726623535
1745661091.0225506,-0.08829878270626068,-0.0484919548034668,0.0531267449259758,0.4387124478816986,0.2254318743944168,-9.381292343139648
1745661091.0232036,-0.061824820935726166,-0.02918834052979946,0.06201119348406792,0.5364538431167603,0.23607000708580017,-10.016037940979004
1745661091.0580237,-0.024523738771677017,-0.03721601516008377,0.06219834089279175,0.3420543670654297,0.3936518728733063,-10.17265510559082
1745661091.058123,0.004921565297991037,-0.024580735713243484,0.06570981442928314,0.3838263750076294,-0.03210816532373428,-9.619987487792969
1745661091.060096,-0.00702729681506753,-0.026740293949842453,0.07082007825374603,0.5685867071151733,-0.4534643292427063,-9.526008605957031
1745661091.0631738,-0.009020501747727394,-0.023448947817087173,0.07507665455341339,0.4363306164741516,-0.839659571647644,-9.956563949584961
1745661091.102217,-0.05976390093564987,-0.01721986010670662,0.08463818579912186,0.700386643409729,-1.2411025762557983,-9.928565979003906
1745661091.102946,-0.19048507511615753,0.0026991793420165777,0.11181902885437012,0.5185902118682861,-0.6369413733482361,-9.963959693908691
1745661091.1030846,-0.21379348635673523,-0.007685936987400055,0.11642088741064072,0.4482078552246094,-0.3738064765930176,-9.78095817565918
1745661091.1054337,-0.18505772948265076,-0.00016386396600864828,0.12305700778961182,0.3898816704750061,-0.06350864470005035,-9.57284164428711
1745661091.1098864,-0.1852325052022934,0.0031744837760925293,0.12952473759651184,0.46982795000076294,-0.005324065685272217,-9.844354629516602
1745661091.1430542,-0.14633983373641968,0.0022830863017588854,0.13573351502418518,0.36309319734573364,0.2455172836780548,-10.02417278289795
1745661091.146061,-0.13255277276039124,0.006984000094234943,0.13655778765678406,0.641340434551239,0.1349487453699112,-9.776461601257324
1745661091.1506405,-0.10858337581157684,0.005234500393271446,0.14155730605125427,0.5576739311218262,0.18163660168647766,-9.67755126953125
1745661091.1530406,-0.10570259392261505,0.007311542518436909,0.14437367022037506,0.5963935256004333,-0.0969727635383606,-9.888742446899414
1745661091.1840858,-0.11090352386236191,0.002526738215237856,0.14872139692306519,0.7075086236000061,-0.23249037563800812,-9.934200286865234
1745661091.1866772,-0.10717694461345673,0.018221545964479446,0.15408465266227722,0.5584999322891235,-0.347125381231308,-9.809269905090332
1745661091.1875062,-0.131801575422287,0.010709564201533794,0.15813247859477997,0.6170927286148071,-0.4398975968360901,-9.62606143951416
1745661091.191294,-0.13259513676166534,0.006375890225172043,0.16499502956867218,0.5016617774963379,-0.2754051387310028,-9.711342811584473
1745661091.1932333,-0.15240372717380524,0.02028442546725273,0.16703101992607117,0.6391772627830505,-0.41630759835243225,-9.939550399780273
1745661091.2294166,-0.13476748764514923,-0.012709587812423706,0.17222434282302856,0.3143344521522522,-0.4505312442779541,-9.48523235321045
1745661091.2306187,-0.17236526310443878,-0.0206009354442358,0.1701396405696869,0.5074991583824158,-0.5867992043495178,-10.021878242492676
1745661091.2312872,-0.18383748829364777,-0.012755421921610832,0.17641223967075348,0.24317094683647156,-0.2831995487213135,-10.006807327270508
1745661091.2339208,-0.20905637741088867,-0.018028289079666138,0.1770775467157364,0.31577348709106445,-0.5501487851142883,-9.496599197387695
1745661091.27207,-0.19227319955825806,-0.018434111028909683,0.18526284396648407,0.011846713721752167,0.33568188548088074,-9.380692481994629
1745661091.2834022,-0.19803713262081146,-0.015931516885757446,0.18502558767795563,0.16042137145996094,0.14948633313179016,-9.961063385009766
1745661091.285426,-0.165756493806839,-0.023592308163642883,0.1841832399368286,0.10754777491092682,0.6815251111984253,-10.019500732421875
1745661091.285508,-0.14759749174118042,-0.01176265999674797,0.17902041971683502,0.12081296741962433,0.6506789922714233,-9.533098220825195
1745661091.3140264,-0.14586275815963745,-0.028920117765665054,0.1772644966840744,0.4150351881980896,0.3689296841621399,-9.464810371398926
1745661091.3180976,-0.11579239368438721,-0.026478346437215805,0.17640207707881927,0.09633475542068481,0.5909968614578247,-9.991399765014648
1745661091.3189032,-0.12095165252685547,-0.002372191520407796,0.17530371248722076,0.7807595729827881,0.17529724538326263,-9.81903076171875
1745661091.3206656,-0.11936712265014648,-0.048444584012031555,0.17432290315628052,0.581965446472168,0.3845091164112091,-9.735442161560059
1745661091.35716,-0.12002591788768768,-0.021895501762628555,0.17733821272850037,0.45597919821739197,-0.04445427656173706,-10.044835090637207
1745661091.3602087,-0.11293628066778183,-0.02493206597864628,0.17664869129657745,0.18992120027542114,0.7338775396347046,-9.63625717163086
1745661091.3643365,-0.10290282964706421,-0.019958041608333588,0.17234602570533752,0.3097493648529053,0.017653848975896835,-9.544889450073242
1745661091.3700905,-0.1003197580575943,-0.03869558498263359,0.17112997174263,0.4872472286224365,0.7454236149787903,-9.557256698608398
1745661091.3723395,-0.09678468853235245,-0.028871789574623108,0.1671759933233261,0.08219292759895325,0.19480028748512268,-10.339471817016602
1745661091.400681,-0.046915553510189056,-0.017132872715592384,0.16864179074764252,0.09248945862054825,0.5143381953239441,-9.698102951049805
1745661091.4026494,-0.10140447318553925,-0.027291322126984596,0.16683340072631836,0.10321132838726044,-0.20087268948554993,-9.125916481018066
1745661091.405901,-0.07522562891244888,-0.02465701475739479,0.16996195912361145,0.5350294709205627,-0.18432943522930145,-9.652974128723145
1745661091.4107575,-0.11683571338653564,-0.026245493441820145,0.16556191444396973,0.5993054509162903,0.15005572140216827,-10.469696998596191
1745661091.4471648,-0.10183414071798325,-0.017939280718564987,0.16413000226020813,0.5744016766548157,0.2324678897857666,-10.081602096557617
1745661091.4498096,-0.07683126628398895,-0.0171367134898901,0.13681821525096893,-0.1981399655342102,0.2332754135131836,-8.961037635803223
1745661091.4531631,-0.03597449138760567,-0.019125791266560555,0.1298326551914215,0.1409665048122406,0.10515360534191132,-10.181737899780273
1745661091.4567327,-0.0513516366481781,-0.010610180906951427,0.11967247724533081,0.18582294881343842,0.9174795150756836,-10.396807670593262
1745661091.4882743,-0.06428838521242142,0.0035486456472426653,0.10351194441318512,0.20632895827293396,0.12059132754802704,-9.694108963012695
1745661091.4924896,-0.042850296944379807,-0.03261241316795349,0.09336110204458237,0.7028682231903076,0.3906327784061432,-9.06901741027832
1745661091.4953065,-0.13288338482379913,-0.023724796250462532,0.08738715946674347,0.5822008848190308,-0.20891447365283966,-10.458641052246094
1745661091.5007243,-0.07973222434520721,-0.01975036785006523,0.08792246878147125,0.823858916759491,-0.3711659908294678,-10.572737693786621
1745661091.5020623,-0.1260884702205658,0.008603069931268692,0.08566965162754059,0.29129236936569214,0.7544512748718262,-9.310068130493164
1745661091.529621,-0.07157780975103378,-0.014785269275307655,0.07658462226390839,1.0774136781692505,0.6781042814254761,-8.65361499786377
1745661091.5311334,-0.030384406447410583,-0.022096261382102966,0.07065051794052124,1.0060608386993408,1.31582772731781,-10.375049591064453
1745661091.5349796,0.004034624435007572,-0.004645071923732758,0.05791611224412918,0.35516318678855896,0.9448898434638977,-11.517769813537598
1745661091.5385385,0.08239182084798813,0.0003602210490498692,0.052125900983810425,0.3831339478492737,0.9439510107040405,-9.249772071838379
1745661091.5754306,0.04328266903758049,0.005250102374702692,0.04667792096734047,-0.1545584499835968,0.368904173374176,-8.330724716186523
1745661091.5772514,0.08471084386110306,-0.0041025481186807156,0.04256998375058174,0.7097788453102112,-0.14700785279273987,-9.65294361114502
1745661091.5793443,0.11369472742080688,0.0027224442455917597,-0.051621995866298676,0.12992964684963226,0.2443181723356247,-10.168702125549316
1745661091.5821488,0.18333987891674042,0.011386910453438759,-0.05278461053967476,-0.07178127765655518,0.7227942943572998,-9.418712615966797
1745661091.6138098,0.13528822362422943,0.0009317357325926423,-0.05810188129544258,0.048482783138751984,0.1248314380645752,-9.328332901000977
1745661091.6160154,0.16781888902187347,-0.004608638118952513,-0.06079326197504997,0.23113079369068146,-0.16230535507202148,-9.997233390808105
1745661091.618235,0.11587895452976227,-0.002224960597231984,-0.06143792346119881,0.28841596841812134,-0.40463656187057495,-10.261000633239746
1745661091.6206405,0.09601674973964691,0.0015405550366267562,-0.05863715335726738,0.24329769611358643,-0.6929541826248169,-9.712553024291992
1745661091.6250315,0.06350134313106537,-0.007191474549472332,-0.05490884184837341,0.5393190383911133,-0.49272555112838745,-9.064835548400879
1745661091.6591482,0.018889522179961205,-0.018558207899332047,-0.05350489541888237,0.4364800453186035,-0.4727279245853424,-9.91636848449707
1745661091.659228,0.03771442919969559,-0.010224342346191406,-0.05221761390566826,0.40846624970436096,0.04769952967762947,-10.381063461303711
1745661091.6606588,0.020377282053232193,-0.011008712463080883,-0.05284031108021736,0.10443465411663055,0.30819782614707947,-9.780008316040039
1745661091.6629944,0.07411934435367584,-0.011440219357609749,-0.04865236207842827,0.0018630444537848234,0.48054561018943787,-9.153279304504395
1745661091.7019079,0.0706893652677536,-0.027525532990694046,-0.052991800010204315,0.259042888879776,0.6874529123306274,-9.5516939163208
1745661091.7058547,0.1263226568698883,-0.02534865401685238,-0.06078960373997688,-0.23435147106647491,0.6516233682632446,-10.55409049987793
1745661091.7091122,0.12756675481796265,-0.009882492013275623,-0.06643527746200562,0.0941125899553299,0.29884451627731323,-9.643943786621094
1745661091.7118866,0.15493443608283997,-0.022260328754782677,-0.07003990560770035,0.18021008372306824,0.2811099588871002,-8.894309997558594
1745661091.7151017,0.1241631731390953,-0.028447499498724937,-0.06552699953317642,0.32989954948425293,-0.5333218574523926,-9.860525131225586
1745661091.7434602,0.11073829233646393,-0.02248097024857998,-0.05626203492283821,0.5980714559555054,-0.8003137707710266,-10.40671157836914
1745661091.7461216,0.08623479306697845,-0.011870203539729118,-0.047668904066085815,0.6247521638870239,-0.653774619102478,-9.817455291748047
1745661091.7488558,0.04365503042936325,-0.02672097086906433,-0.04485556110739708,0.5630604028701782,-0.4934349060058594,-9.410747528076172
1745661091.7489207,0.049824781715869904,-0.03390849381685257,-0.04384589567780495,0.5732212066650391,0.025049220770597458,-9.653854370117188
1745661091.786116,0.020617133006453514,-0.03086884878575802,-0.04879573732614517,0.5707313418388367,0.1545533388853073,-10.301698684692383
1745661091.7903135,0.061765383929014206,-0.03393324092030525,-0.05452251434326172,0.08388084918260574,0.45018959045410156,-9.995506286621094
1745661091.7952209,0.12959839403629303,-0.033945318311452866,-0.038192976266145706,0.5498116612434387,-0.47072696685791016,-9.381268501281738
1745661091.800227,0.14092162251472473,-0.03740032762289047,-0.03903857618570328,0.3635801076889038,-0.12689034640789032,-9.9563627243042
1745661091.8299077,0.0825350284576416,-0.025803690776228905,-0.0451735183596611,0.7272634506225586,-0.4715036451816559,-10.228565216064453
1745661091.833196,0.08277882635593414,-0.032604850828647614,-0.052867989987134933,0.5547058582305908,-0.06140633299946785,-9.626477241516113
1745661091.835375,0.05718034505844116,-0.018750611692667007,-0.06505946069955826,0.2786828875541687,0.17312362790107727,-9.53919792175293
1745661091.837517,0.058768946677446365,-0.02933608926832676,-0.07778462767601013,1.222583532333374,0.2024366557598114,-9.234115600585938
1745661091.8398838,0.10263177007436752,-0.012273838743567467,-0.0842168778181076,0.9174293279647827,0.04732804372906685,-10.306779861450195
1745661091.8727922,0.06583522260189056,-0.03303062170743942,-0.08566613495349884,0.8266741037368774,-0.3983464539051056,-10.342534065246582
1745661091.8767986,0.154781311750412,-0.006995949894189835,-0.07410617172718048,0.44406360387802124,-0.0678376778960228,-9.446467399597168
1745661091.8774567,0.09944131970405579,-0.004708109889179468,-0.07159573584794998,0.3580131530761719,-0.3086012303829193,-9.286738395690918
1745661091.8789942,0.1521579921245575,-0.013776233419775963,-0.073800228536129,0.4252642095088959,-0.005833861418068409,-9.778891563415527
1745661091.9184663,0.14118258655071259,0.0062001850455999374,-0.08918183296918869,0.4535321295261383,0.5414770841598511,-10.179826736450195
1745661091.9207928,0.12818539142608643,0.0021246024407446384,-0.11018850654363632,0.5045305490493774,-0.13817240297794342,-9.850042343139648
1745661091.924609,0.1441245675086975,0.0006521029863506556,-0.12230801582336426,0.6859663724899292,0.11242038011550903,-9.219403266906738
1745661091.9281101,0.08270436525344849,0.017052344977855682,-0.00960182212293148,0.10896243155002594,0.28694814443588257,-9.603744506835938
1745661091.9588213,0.06075800210237503,0.010501740500330925,0.007094533182680607,0.35183092951774597,-0.28519922494888306,-9.478044509887695
1745661091.9609308,0.1400034874677658,0.019299602136015892,0.019304616376757622,0.2536706328392029,-0.11955215781927109,-9.784992218017578
1745661091.9646342,0.07245541363954544,0.02903933823108673,0.026023095473647118,0.5899152159690857,-0.5542811155319214,-9.797673225402832
1745661091.9674232,0.06118877977132797,0.014470207504928112,0.027795741334557533,0.8189100027084351,-0.816006064414978,-9.720370292663574
1745661091.9695277,-0.004896967671811581,0.01727466657757759,0.026319876313209534,1.0971815586090088,-0.8019237518310547,-9.976393699645996
1745661092.0038183,-0.057360243052244186,0.009279942139983177,0.025440732017159462,0.893753170967102,-0.9290906190872192,-10.257150650024414
1745661092.0091379,-0.09509653598070145,0.01704884134232998,0.03352465480566025,0.7774735689163208,-0.8076130151748657,-9.775716781616211
1745661092.0119805,-0.13013333082199097,0.007406012620776892,0.04263930022716522,0.7445422410964966,-0.5024808049201965,-9.421346664428711
1745661092.0152097,-0.09348095208406448,0.010385583154857159,0.057204972952604294,0.4058447778224945,0.15393416583538055,-9.79367446899414
1745661092.0440805,-0.070279560983181,0.017651328817009926,0.0661705955862999,0.3807910084724426,0.38788163661956787,-10.008881568908691
1745661092.0447986,0.004313329700380564,0.02240413799881935,0.07454754412174225,0.20721927285194397,0.8448454737663269,-9.545936584472656
1745661092.047172,0.03782939165830612,0.020166080445051193,0.07621601223945618,0.3388760983943939,0.6063945889472961,-9.503807067871094
1745661092.052087,0.09454533457756042,0.019797565415501595,0.07924289256334305,0.3173680901527405,0.351442813873291,-9.978872299194336
1745661092.0522292,0.09625060111284256,0.03471475467085838,0.08297966420650482,0.3677094578742981,-0.2883753180503845,-10.017767906188965
1745661092.0900443,0.05738217383623123,0.025793660432100296,0.09060545265674591,0.5294407606124878,-0.8748891949653625,-9.398178100585938
1745661092.0930624,0.020595112815499306,0.0281999409198761,0.09334467351436615,0.6520775556564331,-1.1684033870697021,-9.408105850219727
1745661092.0980732,-0.061666201800107956,0.03259549289941788,0.10015010833740234,0.8885979652404785,-1.275876760482788,-10.090949058532715
1745661092.098189,-0.10083415359258652,0.0293059553951025,0.10294204950332642,0.7701184153556824,-1.015795350074768,-10.145934104919434
1745661092.129213,-0.14844106137752533,0.03092147409915924,0.10469229519367218,0.8650019764900208,-0.8210231065750122,-9.555322647094727
1745661092.132551,-0.16398493945598602,0.022993210703134537,0.11215060949325562,0.4884529709815979,-0.2602386176586151,-9.672511100769043
1745661092.134831,-0.1519097089767456,0.028092315420508385,0.11928196251392365,0.38515958189964294,-0.1471661627292633,-10.050209045410156
1745661092.1385689,-0.032165806740522385,0.028522983193397522,0.14842897653579712,0.8307689428329468,-0.8268815279006958,-9.64863395690918
1745661092.1751204,-0.0805567055940628,0.024988770484924316,0.15404829382896423,0.7374780774116516,-0.6997077465057373,-9.93073844909668
1745661092.1791847,-0.10078699886798859,0.025770623236894608,0.16328802704811096,0.6403335332870483,-0.7156000137329102,-9.854131698608398
1745661092.1824534,-0.1260823756456375,0.021156994625926018,0.17125625908374786,0.6494919061660767,-0.3633458614349365,-9.568254470825195
1745661092.1855285,-0.096257284283638,0.023633640259504318,0.16733622550964355,0.32056498527526855,0.447364866733551,-9.679954528808594
1745661092.1892357,-0.11604195833206177,-0.003682240843772888,0.1568155586719513,-0.08506859093904495,0.3634223937988281,-10.202016830444336
1745661092.2186089,-0.06765483319759369,0.009908532723784447,0.1506444662809372,-0.7147846221923828,0.5810202360153198,-9.84207820892334
1745661092.2210684,-0.03516056388616562,0.01304311491549015,0.14661544561386108,-0.7143996357917786,0.2011898308992386,-9.244741439819336
1745661092.2232006,-0.02818114124238491,0.00041484832763671875,0.1479911357164383,-0.9868985414505005,0.17679771780967712,-9.565065383911133
1745661092.2264183,-0.03001273050904274,-0.00018806774460244924,0.1589602530002594,-0.5934167504310608,-1.0472147464752197,-9.889631271362305
1745661092.26313,-0.03317690268158913,0.03013082779943943,0.16716882586479187,0.21313798427581787,-1.010633111000061,-9.330836296081543
1745661092.2661624,-0.09480738639831543,-0.006290466990321875,0.17021963000297546,-0.05700425058603287,-0.686275064945221,-9.864624977111816
1745661092.268782,-0.12623143196105957,-0.019022509455680847,0.1709883213043213,1.0251200199127197,-1.3850017786026,-10.113426208496094
1745661092.2721293,-0.1728045642375946,-0.001057598739862442,0.17135152220726013,0.24912042915821075,-0.44527846574783325,-10.310909271240234
1745661092.304083,-0.08713800460100174,-0.058395303785800934,0.15867850184440613,-0.5344386100769043,0.5802309513092041,-10.070882797241211
1745661092.3071399,-0.07441958039999008,-0.04998509958386421,0.1588219404220581,-0.1917092353105545,-0.16298606991767883,-9.939992904663086
1745661092.3102992,-0.07774721831083298,-0.043546803295612335,0.16648927330970764,0.445809543132782,-0.08773168176412582,-9.109606742858887
1745661092.3138552,-0.11294219642877579,-0.055267564952373505,0.1706240177154541,0.48553138971328735,-0.43411317467689514,-10.163415908813477
1745661092.3450227,-0.14186012744903564,-0.053922463208436966,0.17258630692958832,0.969225287437439,-0.45198696851730347,-10.450404167175293
1745661092.3469188,-0.15791359543800354,-0.03840317204594612,0.18137826025485992,1.0246143341064453,-0.2925046980381012,-9.691189765930176
1745661092.3484664,-0.18395505845546722,-0.04844430834054947,0.1820896565914154,0.41299161314964294,0.4813791811466217,-9.574918746948242
1745661092.3497007,-0.16978827118873596,-0.06113232299685478,0.18011274933815002,0.7643093466758728,0.30183035135269165,-9.732208251953125
1745661092.351947,-0.14057713747024536,-0.02965194545686245,0.18471045792102814,0.3874625265598297,1.0341289043426514,-10.246686935424805
1745661092.389704,-0.12811125814914703,-0.03967882692813873,0.18139925599098206,-0.08709556609392166,0.8743311166763306,-9.984479904174805
1745661092.3909984,-0.03666058927774429,-0.03191239386796951,0.18160822987556458,0.27120187878608704,1.4173305034637451,-8.995992660522461
1745661092.3932037,-0.045684218406677246,-0.029609963297843933,0.1818549633026123,0.25677603483200073,0.9096094965934753,-9.776891708374023
1745661092.397105,0.04457172751426697,-0.016896327957510948,0.18237906694412231,0.5605829954147339,0.7765364646911621,-10.350364685058594
1745661092.4303536,-0.009447112679481506,-0.018274225294589996,0.18370023369789124,0.557724118232727,0.31778383255004883,-10.002355575561523
1745661092.4327085,0.05761384218931198,-0.010715867392718792,0.19316211342811584,0.5644264221191406,-0.3574839234352112,-9.433578491210938
1745661092.4360614,-0.02783513441681862,-0.012721424922347069,0.1966387927532196,0.6282562017440796,-0.05689042806625366,-9.663851737976074
1745661092.4390495,-0.03862205892801285,-0.024321239441633224,0.20247498154640198,0.40639176964759827,-0.9886069297790527,-10.501630783081055
1745661092.4411564,-0.04890158027410507,0.011385010555386543,0.20080408453941345,0.4509645402431488,0.12960109114646912,-9.639124870300293
1745661092.475817,-0.1541866511106491,-0.006252116058021784,0.19629155099391937,0.08143901824951172,-0.27911147475242615,-9.511041641235352
1745661092.4789343,-0.08236408978700638,-0.008255272172391415,0.19554558396339417,0.4705274701118469,0.0898558497428894,-9.58668041229248
1745661092.4809728,-0.1673450767993927,0.0055802734568715096,0.19199907779693604,0.39378803968429565,0.20987191796302795,-10.375666618347168
1745661092.4811478,-0.11547037214040756,0.005022252909839153,0.1968291997909546,0.12742042541503906,0.08092403411865234,-10.237009048461914
1745661092.5183465,-0.023965399712324142,0.014003613963723183,0.20163051784038544,0.37436628341674805,0.1372135430574417,-10.149787902832031
1745661092.5204062,-0.0543852336704731,0.03036748804152012,0.20055358111858368,0.6149213314056396,0.3614187240600586,-10.026907920837402
1745661092.5230398,-0.06834317743778229,0.027996987104415894,0.2020953893661499,0.19219565391540527,-0.00294281542301178,-9.830912590026855
1745661092.5299375,-0.05867283418774605,0.025974104180932045,0.20594120025634766,0.5316673517227173,0.01470538042485714,-9.306442260742188
1745661092.5331972,-0.0781947523355484,0.030036095529794693,0.2112276256084442,0.4483151435852051,0.32826533913612366,-9.774240493774414
1745661092.5618541,-0.06403982639312744,0.03297261521220207,0.2114335000514984,0.3944397568702698,0.005854020826518536,-10.343192100524902
1745661092.5626142,-0.06445454806089401,0.030495166778564453,0.2135106772184372,0.283668577671051,0.4858039319515228,-9.79926872253418
1745661092.5646653,-0.04991402477025986,0.03857677802443504,0.21409113705158234,0.0788927674293518,0.23768267035484314,-9.46238899230957
1745661092.564758,-0.06320706754922867,0.036582253873348236,0.21456117928028107,0.23220762610435486,0.3812327980995178,-9.587614059448242
1745661092.607834,-0.0622568242251873,0.03637833520770073,0.21186451613903046,0.17710532248020172,0.196012943983078,-10.099265098571777
1745661092.6118581,-0.05811352655291557,0.04399740323424339,0.21093598008155823,0.570517897605896,0.26693829894065857,-9.759407997131348
1745661092.6167457,-0.09364129602909088,0.04410793259739876,0.2108384370803833,0.3471866250038147,0.20062080025672913,-9.70654582977295
1745661092.6205788,-0.07912131398916245,0.03300875425338745,0.2079031765460968,0.6124652624130249,0.14548061788082123,-9.6480131149292
1745661092.646064,-0.10526330769062042,0.04131849855184555,0.2154114693403244,0.5878857374191284,0.050263822078704834,-9.915629386901855
1745661092.6505284,-0.05762898176908493,0.03774705156683922,0.2961314618587494,0.6525422930717468,0.23227839171886444,-9.826693534851074
1745661092.6517837,-0.05627765506505966,0.04496728628873825,0.29607927799224854,0.5928643941879272,0.30941489338874817,-9.641836166381836
1745661092.6543593,-0.07845129072666168,0.04196120426058769,0.29928240180015564,0.6616226434707642,0.3089276850223541,-9.604475021362305
1745661092.6927752,-0.06595293432474136,0.034034691751003265,0.29626092314720154,0.4606805741786957,0.578264057636261,-9.745028495788574
1745661092.6934764,-0.07824607193470001,0.03560514375567436,0.2968882918357849,0.6546304225921631,0.2356630563735962,-9.786771774291992
1745661092.6965675,-0.06731081753969193,0.03778190538287163,0.30141526460647583,0.4762968122959137,0.5751231908798218,-9.644891738891602
1745661092.698911,-0.08864039182662964,0.036590516567230225,0.30189749598503113,0.598425030708313,0.24979731440544128,-9.607782363891602
1745661092.7005193,-0.07293649762868881,0.023141223937273026,0.30481433868408203,0.6838961243629456,0.5296169519424438,-9.570805549621582
1745661092.735902,-0.07738650590181351,0.036828748881816864,0.3047822117805481,0.7007200121879578,0.5443763732910156,-9.821493148803711
1745661092.7390676,-0.07724829018115997,0.02365431934595108,0.30777591466903687,0.7212601900100708,0.5650965571403503,-9.840227127075195
1745661092.7427413,-0.06123371049761772,0.02159438654780388,0.30559825897216797,0.5424102544784546,0.6589540243148804,-9.652753829956055
1745661092.7470326,-0.06845822185277939,0.023127328604459763,0.30867594480514526,0.7437888979911804,0.48568955063819885,-9.500897407531738
1745661092.7775111,-0.057857297360897064,0.021575752645730972,0.3117595911026001,0.4962491989135742,0.6560680866241455,-9.800686836242676
1745661092.7793503,-0.05376695469021797,0.0180324949324131,0.3103232681751251,0.656974196434021,0.5641833543777466,-9.809277534484863
1745661092.7823472,-0.05002675577998161,0.01215899083763361,0.3121522068977356,0.6139191389083862,0.672795832157135,-9.665660858154297
1745661092.7838395,-0.042892057448625565,0.020510252565145493,0.3125723898410797,0.5737722516059875,0.5492135882377625,-9.620954513549805
1745661092.8224306,-0.0556781105697155,0.006066539324820042,0.3105493187904358,0.6744158864021301,0.4544645845890045,-9.721609115600586
1745661092.8264494,-0.03958722949028015,0.008552489802241325,0.3132971227169037,0.5795811414718628,0.40861764550209045,-9.81008243560791
1745661092.8284447,-0.06772980839014053,0.012818664312362671,0.31711921095848083,0.7154531478881836,0.27806615829467773,-9.712570190429688
1745661092.8332188,-0.0625687688589096,0.0038261779118329287,0.31915539503097534,0.4338357448577881,0.37111696600914,-9.708803176879883
1745661092.8618107,-0.06921517848968506,0.004187266808003187,0.3200973570346832,0.676529049873352,0.2880619168281555,-9.586858749389648
1745661092.8647757,-0.07870030403137207,-0.010366544127464294,0.3270128667354584,0.5545185208320618,0.7450299263000488,-9.829510688781738
1745661092.8651783,-0.06182324141263962,-0.01222105324268341,0.3281773626804352,0.6700164079666138,0.5555223822593689,-9.908470153808594
1745661092.8687246,-0.0671314150094986,-0.016776490956544876,0.3274767994880676,0.6351109147071838,0.7346154451370239,-9.69239616394043
1745661092.8689406,-0.05603140592575073,-0.00864475965499878,0.3296507000923157,0.4657134413719177,0.51765376329422,-9.718765258789062
1745661092.9073024,-0.05773273855447769,-0.02195771411061287,0.3321745991706848,0.6446124315261841,0.5308935046195984,-9.668716430664062
1745661092.9091768,-0.059999335557222366,-0.019425274804234505,0.33362218737602234,0.5270428657531738,0.5293586850166321,-9.795419692993164
1745661092.9114878,-0.056992657482624054,-0.01909796893596649,0.33453115820884705,0.7313172221183777,0.4806116223335266,-9.799861907958984
1745661092.9150693,-0.07030992209911346,-0.024098321795463562,0.33309096097946167,0.5028883814811707,0.6377504467964172,-9.800148010253906
1745661092.9492857,-0.06583546847105026,-0.024898627772927284,0.3336597979068756,0.6434102058410645,0.3060690462589264,-9.773883819580078
1745661092.9512498,-0.0775337740778923,-0.029417727142572403,0.3339270055294037,0.6134821176528931,0.6087555885314941,-9.658879280090332
1745661092.953409,-0.0801682099699974,-0.023606624454259872,0.33564990758895874,0.4951663911342621,0.33517423272132874,-9.866411209106445
1745661092.9572718,-0.08539323508739471,-0.03535168990492821,0.33907073736190796,0.7061460614204407,0.5600725412368774,-9.73124885559082
1745661092.9597478,-0.07557681947946548,-0.02701749838888645,0.33937662839889526,0.48462143540382385,0.5869138836860657,-9.751640319824219
1745661092.9938378,-0.08028092235326767,-0.027389604598283768,0.34328922629356384,0.5736674070358276,0.6132780313491821,-9.686429977416992
1745661092.9993901,-0.06865653395652771,-0.03689933568239212,0.33835649490356445,0.47922104597091675,0.7689825892448425,-9.78490924835205
1745661093.002243,-0.0589069239795208,-0.04117099568247795,0.3588477373123169,0.389995813369751,0.6319629549980164,-9.858926773071289
1745661093.0051818,-0.06638447940349579,-0.044478870928287506,0.35999974608421326,0.6062601804733276,0.5859376788139343,-9.729572296142578
1745661093.0337515,-0.06644026935100555,-0.042488619685173035,0.3601416051387787,0.4554052948951721,0.7613312602043152,-9.751276016235352
1745661093.042041,-0.06744080781936646,-0.03484485298395157,0.36299461126327515,0.510256290435791,0.5332664847373962,-9.888537406921387
1745661093.0509715,-0.06212844327092171,-0.045998603105545044,0.36155956983566284,0.4615139067173004,0.8930957913398743,-9.741229057312012
1745661093.053485,-0.05725274235010147,-0.03777590021491051,0.3617238998413086,0.5293058753013611,0.6505597829818726,-9.767617225646973
1745661093.0636828,-0.05761554837226868,-0.0400371178984642,0.36481600999832153,0.5684825778007507,0.8628910779953003,-9.78692626953125
1745661093.0801125,-0.055005259811878204,-0.03689268231391907,0.36038509011268616,0.3510245978832245,0.6539384126663208,-9.939186096191406
1745661093.0850456,-0.05171961709856987,-0.041093356907367706,0.36209356784820557,0.6334120631217957,0.6716945171356201,-9.642786026000977
1745661093.0889075,-0.0578613206744194,-0.03513745591044426,0.36222177743911743,0.4455481469631195,0.7859694361686707,-9.708871841430664
1745661093.0947914,-0.0582580640912056,-0.0381464883685112,0.3656666576862335,0.5571602582931519,0.5236414670944214,-9.948832511901855
1745661093.1225445,-0.054496489465236664,-0.042321186512708664,0.36429208517074585,0.478599488735199,0.8317076563835144,-9.807737350463867
1745661093.1247349,-0.05944342166185379,-0.026419121772050858,0.36345434188842773,0.4878910481929779,0.5841830968856812,-9.677668571472168
1745661093.1272776,-0.06148141622543335,-0.03921644017100334,0.3641812205314636,0.5027280449867249,0.7250310182571411,-9.713733673095703
1745661093.1314778,-0.053275369107723236,-0.034942254424095154,0.3647046685218811,0.43255114555358887,0.7431665062904358,-9.849574089050293
1745661093.1626565,-0.05739982798695564,-0.03687000274658203,0.36641740798950195,0.6175500750541687,0.6828948855400085,-9.844340324401855
1745661093.16542,-0.049801964312791824,-0.029393428936600685,0.3643015921115875,0.3652421236038208,0.8295440673828125,-9.794507026672363
1745661093.16873,-0.06231212615966797,-0.03528081253170967,0.3682679235935211,0.5343214869499207,0.48495936393737793,-9.755579948425293
1745661093.1711776,-0.049794722348451614,-0.03399338200688362,0.3662846088409424,0.4979262351989746,0.915939211845398,-9.671876907348633
1745661093.1729934,-0.0664416253566742,-0.028216242790222168,0.3658095896244049,0.5441897511482239,0.6166790723800659,-9.948110580444336
1745661093.2082665,-0.05895517021417618,-0.03989909216761589,0.3675776422023773,0.4859701991081238,0.766072154045105,-9.874120712280273
1745661093.2094667,0.01300234068185091,-0.039700768887996674,0.3264060616493225,-0.07795263826847076,-0.30391737818717957,-9.844751358032227
1745661093.2117102,0.023593971505761147,-0.026361962780356407,0.3276391625404358,-0.06041542440652847,0.4751798212528229,-9.202360153198242
1745661093.213121,-0.060372136533260345,-0.05383927375078201,0.32641974091529846,0.3203878402709961,-0.17388391494750977,-9.83480167388916
1745661093.2502458,-0.029505085200071335,-0.05235220864415169,0.3275046944618225,0.5184803605079651,-0.030799727886915207,-10.330731391906738
1745661093.2515094,-0.07378695160150528,-0.030301298946142197,0.3206435739994049,0.20697231590747833,0.3314455449581146,-10.1210298538208
1745661093.253212,-0.12746241688728333,-0.06253798305988312,0.314939022064209,0.20211708545684814,0.2777778208255768,-9.157466888427734
1745661093.25708,-0.11836431920528412,-0.05166380852460861,0.3085208535194397,0.08076003193855286,0.4722806513309479,-9.457165718078613
1745661093.293795,-0.14888222515583038,-0.056611597537994385,0.30241790413856506,0.1457020491361618,1.0313808917999268,-10.178544044494629
1745661093.2991557,-0.11873738467693329,-0.05229658633470535,0.29589685797691345,-0.03134544938802719,1.3847460746765137,-10.229474067687988
1745661093.3016105,-0.08560694009065628,-0.057634543627500534,0.2879974842071533,0.25260502099990845,1.4719598293304443,-9.305122375488281
1745661093.3037834,-0.04075474292039871,-0.07074837386608124,0.28408634662628174,0.2589195668697357,1.6604598760604858,-9.482965469360352
1745661093.3062828,0.010200638324022293,-0.062357354909181595,0.2819313406944275,0.2997203469276428,1.4192724227905273,-10.343568801879883
1745661093.3364697,0.03745182603597641,-0.06441575288772583,0.2847992181777954,0.035992685705423355,1.081012487411499,-10.185615539550781
1745661093.3392956,0.0790335163474083,-0.05940376967191696,0.284359872341156,0.14017602801322937,0.9252265691757202,-9.190515518188477
1745661093.3432734,0.05883246660232544,-0.06965769827365875,0.28294578194618225,0.280132532119751,0.714056134223938,-9.317721366882324
1745661093.3456361,0.0028509001713246107,-0.042241014540195465,0.2032204568386078,0.23659196496009827,0.9568622708320618,-10.14437198638916
1745661093.3801267,0.05076615884900093,-0.03532370179891586,0.2039182186126709,0.31630343198776245,0.9772548675537109,-9.79414176940918
1745661093.3832345,0.04393070191144943,-0.04674830287694931,0.19875586032867432,0.4024314284324646,1.3136942386627197,-9.421701431274414
1745661093.38716,0.09624041616916656,-0.045811425894498825,0.1956079602241516,-0.020918970927596092,1.1889126300811768,-10.03106689453125
1745661093.3913157,0.10574699938297272,-0.03672555461525917,0.19466932117938995,-0.023315945640206337,1.0715278387069702,-10.025262832641602
1745661093.3925328,0.12559829652309418,-0.029130196198821068,0.19493058323860168,-0.1578732579946518,0.7073110938072205,-9.494980812072754
1745661093.4222603,0.13595163822174072,-0.03327178582549095,0.19739849865436554,0.272144079208374,0.37112611532211304,-9.273551940917969
1745661093.424014,0.10152516514062881,-0.03622903302311897,0.1980583667755127,0.19731003046035767,0.3449088931083679,-10.089559555053711
1745661093.4260032,0.10834050178527832,-0.02208559773862362,0.19759631156921387,0.3221028447151184,0.0924985259771347,-10.287447929382324
1745661093.4274294,0.06620155274868011,-0.02270994521677494,0.19946816563606262,0.35485371947288513,0.20104093849658966,-9.478968620300293
1745661093.4695241,0.05076194927096367,-0.024447277188301086,0.19547009468078613,0.29548516869544983,0.0711732879281044,-9.434652328491211
1745661093.470633,0.016438912600278854,-0.03264952450990677,0.19697488844394684,0.2615140974521637,0.29266077280044556,-10.026881217956543
1745661093.4737132,0.009289069101214409,-0.01689891889691353,0.1945754736661911,-0.033593855798244476,0.4674166738986969,-10.224960327148438
1745661093.4804344,0.02220575325191021,-0.011027299799025059,0.1930132359266281,0.19013996422290802,0.7938339710235596,-9.2889986038208
1745661093.5090714,0.005382806994020939,-0.023534607142210007,0.19038452208042145,-0.05793416500091553,0.9931532144546509,-9.43629264831543
1745661093.51128,0.06624680757522583,-0.023429853841662407,0.18881675601005554,0.3678171634674072,0.9545562863349915,-10.117427825927734
1745661093.5146847,0.07385881245136261,-0.006324046291410923,0.18770241737365723,0.13122911751270294,1.2851539850234985,-10.207193374633789
1745661093.5158386,0.10420503467321396,-0.011923767626285553,0.18579940497875214,0.07912509143352509,0.7089036703109741,-9.550169944763184
1745661093.521208,0.11948176473379135,-0.019804418087005615,0.19062986969947815,0.37237435579299927,0.7554417848587036,-9.176485061645508
1745661093.5522513,0.11965805292129517,-0.010502645745873451,0.19248168170452118,0.1001887321472168,0.6050814986228943,-10.169097900390625
1745661093.5536373,0.11847738921642303,-0.010274885222315788,0.1878887116909027,0.24753054976463318,0.47308415174484253,-10.189382553100586
1745661093.5582094,0.0821036621928215,0.008318405598402023,0.18024174869060516,0.2559511065483093,0.6598590016365051,-9.502431869506836
1745661093.5612211,0.0840490534901619,-0.0031333365477621555,0.1764635592699051,0.09308575093746185,0.9819086194038391,-9.586637496948242
1745661093.5974326,0.09099697321653366,0.0047692423686385155,0.17076000571250916,0.1853654831647873,0.5763052105903625,-10.020822525024414
1745661093.599964,0.08908093720674515,0.004006028175354004,0.16935689747333527,0.25728461146354675,0.5233505368232727,-9.801216125488281
1745661093.6037872,0.07856018841266632,0.020271705463528633,0.16858138144016266,0.12175102531909943,0.28003785014152527,-9.5687837600708
1745661093.6045456,0.06502247601747513,0.013131512328982353,0.18070733547210693,0.7616730332374573,-0.1132260337471962,-9.293899536132812
1745661093.6377726,0.05172329396009445,0.01660146377980709,0.1867092102766037,0.6164952516555786,0.2113482654094696,-10.097760200500488
1745661093.639369,0.025567755103111267,0.025077100843191147,0.20048081874847412,0.8825981020927429,-0.0029111921321600676,-10.283051490783691
1745661093.6411755,0.03938975930213928,0.02620341256260872,0.20747587084770203,0.9353408813476562,0.3784729540348053,-9.451728820800781
1745661093.6430633,0.012727993540465832,0.017803072929382324,0.2111588716506958,0.8474081754684448,0.8202716112136841,-9.451269149780273
1745661093.6445072,0.012627145275473595,0.006122712977230549,0.20832142233848572,0.5385469794273376,0.514182984828949,-10.31765365600586
1745661093.6812823,0.043570589274168015,0.04009556025266647,0.2093534916639328,0.3240062892436981,1.2537834644317627,-9.942026138305664
