timestamp,angular_vel_x,angular_vel_y,angular_vel_z,linear_acc_x,linear_acc_y,linear_acc_z
1745730755.7727966,-0.10772732645273209,-0.021625909954309464,0.5037513971328735,0.51966792345047,0.9881411790847778,-9.55687141418457
1745730755.7728927,-0.13304927945137024,-0.026998069137334824,0.5032865405082703,0.686008632183075,0.6636083722114563,-9.761730194091797
1745730755.7748542,-0.11077400296926498,-0.030244821682572365,0.5017027854919434,0.5816178917884827,0.9912896156311035,-9.868913650512695
1745730755.7797055,-0.09826357662677765,-0.018651122227311134,0.5047874450683594,0.6073660254478455,0.9095717668533325,-9.91002082824707
1745730755.8130271,-0.11631284654140472,-0.023380961269140244,0.5042219161987305,0.6603373885154724,0.8924503326416016,-9.76325798034668
1745730755.815421,-0.09557782113552094,-0.024796465411782265,0.5040990710258484,0.5070186853408813,0.9685071706771851,-9.580596923828125
1745730755.8179474,-0.10310188680887222,-0.022219963371753693,0.5033103227615356,0.7362200617790222,0.7869382500648499,-9.653696060180664
1745730755.8191075,-0.10580486059188843,-0.02149011753499508,0.5035971403121948,0.5922991037368774,0.9907719492912292,-9.956107139587402
1745730755.8230958,-0.09342707693576813,-0.024061113595962524,0.5035001635551453,0.6451635956764221,0.7672562003135681,-9.830240249633789
1745730755.856588,-0.10142911970615387,-0.02489672787487507,0.5034533739089966,0.6449782252311707,1.065251111984253,-9.512669563293457
1745730755.858435,-0.0854303389787674,-0.018849942833185196,0.5042428374290466,0.5572229623794556,0.857696533203125,-9.69090747833252
1745730755.859214,-0.09340425580739975,-0.023875443264842033,0.5053113698959351,0.7161053419113159,0.9047881960868835,-9.878384590148926
1745730755.8613412,-0.07230844348669052,-0.023188386112451553,0.5030154585838318,0.554435133934021,1.0882039070129395,-9.778499603271484
1745730755.8998637,-0.08731062710285187,-0.021998614072799683,0.5031377077102661,0.7212986350059509,0.7195330858230591,-9.670654296875
1745730755.9021912,-0.07524389028549194,-0.027259141206741333,0.5022008419036865,0.4973205626010895,1.1407114267349243,-9.667363166809082
1745730755.9053864,-0.08143385499715805,-0.020472565665841103,0.5025928616523743,0.6114096641540527,0.7221317291259766,-9.831962585449219
1745730755.906928,-0.08377258479595184,-0.025961142033338547,0.5007582306861877,0.6421577334403992,1.0356543064117432,-9.667062759399414
1745730755.9106307,-0.0015541015891358256,-0.04063766077160835,0.48761478066444397,0.6717571020126343,0.8622174263000488,-9.71369743347168
1745730755.942428,-0.013068023137748241,-0.042434707283973694,0.48868805170059204,0.6433988213539124,0.9562572240829468,-9.698128700256348
1745730755.9454105,0.006314764264971018,-0.036914922297000885,0.48765477538108826,0.47579535841941833,1.0523192882537842,-9.73115348815918
1745730755.947128,-0.005620454903692007,-0.04670628160238266,0.488497793674469,0.6557765007019043,0.8387576937675476,-9.703590393066406
1745730755.9488714,0.01768549159169197,-0.04474916309118271,0.4848335385322571,0.467398464679718,1.2789716720581055,-9.63070297241211
1745730755.9868667,0.00894059706479311,-0.039243318140506744,0.4859328269958496,0.5786128044128418,0.8673087954521179,-9.80018138885498
1745730755.9901714,0.0197044275701046,-0.04612060636281967,0.48213472962379456,0.4736177325248718,1.246231198310852,-9.719524383544922
1745730755.9918277,0.022639676928520203,-0.04063999280333519,0.4808449149131775,0.5532382726669312,0.7395561933517456,-9.720216751098633
1745730755.9950001,0.022372864186763763,-0.04623867943882942,0.4834668040275574,0.639986515045166,1.057037591934204,-9.571855545043945
1745730756.0293815,0.024658167734742165,-0.042546529322862625,0.48065051436424255,0.572608232498169,0.8224576115608215,-9.84910774230957
1745730756.0383694,0.01534254103899002,-0.05182082578539848,0.4808146357536316,0.6824898719787598,0.8653737306594849,-9.821805953979492
1745730756.038433,0.028673460707068443,-0.04392208158969879,0.48144134879112244,0.47409623861312866,1.0044586658477783,-9.680330276489258
1745730756.042094,0.014724467881023884,-0.043517593294382095,0.4819346070289612,0.6667389273643494,0.759571373462677,-9.604341506958008
1745730756.0441117,0.029597435146570206,-0.05092129111289978,0.4810851216316223,0.4689064025878906,1.1377071142196655,-9.768770217895508
1745730756.0733614,0.026273494586348534,-0.04423967003822327,0.4793444573879242,0.5578839182853699,0.872044563293457,-9.841472625732422
1745730756.0784552,0.0286371111869812,-0.0505627878010273,0.4776788353919983,0.5640198588371277,1.080140233039856,-9.635916709899902
1745730756.0797615,0.04094196856021881,-0.04416712000966072,0.47570115327835083,0.4945994019508362,1.00355064868927,-9.698643684387207
1745730756.081765,0.023243365809321404,-0.050528205931186676,0.4765988886356354,0.5511456727981567,0.8469916582107544,-9.855024337768555
1745730756.1155396,0.05490017682313919,-0.049156658351421356,0.4746061861515045,0.5104029774665833,0.9627238512039185,-9.698899269104004
1745730756.118168,0.020475199446082115,-0.04193613678216934,0.4751560688018799,0.6638458371162415,0.7456648349761963,-9.6383638381958
1745730756.1212773,0.04028603807091713,-0.051539529114961624,0.47596025466918945,0.4228348731994629,0.9595844149589539,-9.731889724731445
1745730756.1234882,0.035951584577560425,-0.0478232204914093,0.47400689125061035,0.5439231991767883,0.7601379156112671,-9.796109199523926
1745730756.1563597,0.0343785360455513,-0.04440610855817795,0.4691854417324066,0.4003008008003235,0.9935272932052612,-9.638969421386719
1745730756.1595457,0.03150211274623871,-0.04598330706357956,0.4698287546634674,0.6021600961685181,0.5983230471611023,-9.732686996459961
1745730756.1615207,0.031201597303152084,-0.0476396344602108,0.4693608283996582,0.5484034419059753,1.0724191665649414,-9.79393482208252
1745730756.1616106,0.03590404614806175,-0.0399978868663311,0.47103944420814514,0.5217009782791138,0.7126696705818176,-9.880711555480957
1745730756.1654518,0.029819047078490257,-0.04753461480140686,0.46568307280540466,0.47485971450805664,1.0051751136779785,-9.579240798950195
1745730756.2037916,0.04612485319375992,-0.04631369560956955,0.468325674533844,0.48087382316589355,0.8656247854232788,-9.6382474899292
1745730756.2059855,0.025692123919725418,-0.04126352816820145,0.4677039682865143,0.5739349126815796,0.8341773748397827,-9.852526664733887
1745730756.2075732,0.051443058997392654,-0.04111422970890999,0.4671834111213684,0.3865121006965637,0.9938864707946777,-9.791719436645508
1745730756.2097802,0.03235199302434921,-0.04491150379180908,0.4648215174674988,0.6073861122131348,0.6630746126174927,-9.64704704284668
1745730756.2509432,0.04887714236974716,-0.04461023956537247,0.46498531103134155,0.4670546054840088,1.0908695459365845,-9.692082405090332
1745730756.2510238,0.032958757132291794,-0.03584984689950943,0.46392908692359924,0.5086183547973633,0.6473923325538635,-9.86722469329834
1745730756.251098,0.034954819828271866,-0.047277532517910004,0.4621363580226898,0.46881619095802307,0.8871175050735474,-9.703695297241211
1745730756.2561486,0.03397386521100998,-0.03956005722284317,0.46119117736816406,0.4991910457611084,0.7175276875495911,-9.703143119812012
1745730756.2587242,0.022391540929675102,-0.03793073818087578,0.46149247884750366,0.5216545462608337,0.6909071207046509,-9.757254600524902
1745730756.2879868,-0.008085887879133224,-0.013357807882130146,0.45116057991981506,0.35313287377357483,1.00460684299469,-9.835405349731445
1745730756.2896724,-0.030827369540929794,-0.010765239596366882,0.4481300413608551,0.5127817392349243,0.5348597764968872,-9.725716590881348
1745730756.2927175,-0.012292752042412758,-0.013836118392646313,0.45038241147994995,0.41625961661338806,1.0688565969467163,-9.581975936889648
1745730756.2971833,-0.02725733444094658,-0.0070405388250947,0.44636672735214233,0.4781191349029541,0.7036347389221191,-9.809958457946777
1745730756.3339126,-0.026004934683442116,-0.019689876586198807,0.44571447372436523,0.5322140455245972,0.8719640970230103,-9.796789169311523
1745730756.3362098,-0.01640811376273632,-0.008806944824755192,0.44706058502197266,0.5500409007072449,0.8331286311149597,-9.759516716003418
1745730756.3363318,-0.03473936766386032,-0.009400032460689545,0.4436365067958832,0.5476727485656738,0.7452877759933472,-9.745194435119629
1745730756.3386295,-0.016990358009934425,-0.013230564072728157,0.4464205205440521,0.3114054203033447,0.8866134881973267,-9.74134349822998
1745730756.371771,-0.028570666909217834,-0.013012009672820568,0.4448053240776062,0.5982851982116699,0.6756051182746887,-9.724898338317871
1745730756.375183,-0.0255286805331707,-0.008792536333203316,0.4455830454826355,0.41877204179763794,1.004887342453003,-9.744858741760254
1745730756.3767562,-0.018388619646430016,-0.007337047718465328,0.4446231722831726,0.5221021771430969,0.6887302994728088,-9.787050247192383
1745730756.3778632,-0.029893990606069565,-0.018032362684607506,0.44349876046180725,0.5027661919593811,1.0329039096832275,-9.74134349822998
1745730756.3805296,-0.010172645561397076,-0.008479544892907143,0.44047269225120544,0.4509029984474182,0.7106410264968872,-9.857627868652344
1745730756.4294293,-0.03351438418030739,-0.01304314099252224,0.439354807138443,0.529401421546936,0.83244788646698,-9.614018440246582
1745730756.4294891,-0.021172072738409042,-0.011011241003870964,0.438532292842865,0.3631492257118225,0.6914685368537903,-9.76885986328125
1745730756.4295385,-0.036671221256256104,-0.01353519968688488,0.4408234655857086,0.6468701362609863,0.668144702911377,-9.792119026184082
1745730756.42959,-0.032120369374752045,-0.011276675388216972,0.43976402282714844,0.41374292969703674,0.9008676409721375,-9.759102821350098
1745730756.4663134,-0.03568795323371887,-0.007663135416805744,0.43902134895324707,0.5543547868728638,0.6862818002700806,-9.661133766174316
1745730756.4664302,-0.0347289964556694,-0.01787387952208519,0.4375540614128113,0.47826892137527466,0.9772592782974243,-9.731636047363281
1745730756.4665112,-0.03170634061098099,-0.009215828962624073,0.4374629557132721,0.48640432953834534,0.7577921152114868,-9.869110107421875
1745730756.46657,-0.03444136679172516,-0.014954829588532448,0.436323881149292,0.5329803824424744,0.8972077369689941,-9.72292709350586
1745730756.4666235,-0.027472516521811485,-0.011290105991065502,0.43514975905418396,0.38921424746513367,0.8638743162155151,-9.700790405273438
1745730756.5051928,-0.04024045914411545,-0.013377785682678223,0.4354194104671478,0.5499612092971802,0.7101916074752808,-9.721489906311035
1745730756.5075595,-0.02623065933585167,-0.019762324169278145,0.43079790472984314,0.4824214577674866,1.0810000896453857,-9.819234848022461
1745730756.5100446,-0.029915470629930496,-0.010689115151762962,0.4311588406562805,0.48688259720802307,0.6850433945655823,-9.72253704071045
1745730756.51248,-0.037769146263599396,-0.01245499774813652,0.433023601770401,0.5071967840194702,0.9371150732040405,-9.56690788269043
1745730756.5454545,-0.02393658086657524,-0.016611391678452492,0.4319346845149994,0.47976788878440857,0.7041689157485962,-9.839140892028809
1745730756.5503087,-0.039849381893873215,-0.019515234977006912,0.4305976927280426,0.5840297341346741,0.8847856521606445,-9.831083297729492
1745730756.5595734,-0.017600415274500847,-0.013845381326973438,0.4287757873535156,0.415235698223114,0.926335334777832,-9.724233627319336
1745730756.5621595,-0.039598532021045685,-0.01639721728861332,0.4275398254394531,0.5344388484954834,0.8064689636230469,-9.660539627075195
1745730756.5892234,-0.028307637199759483,-0.02200249210000038,0.42574912309646606,0.43132105469703674,0.906350314617157,-9.765901565551758
1745730756.5912912,-0.02735034190118313,-0.016333386301994324,0.42580360174179077,0.6097481846809387,0.6732226610183716,-9.800495147705078
1745730756.594513,-0.04613764211535454,-0.018380727618932724,0.42380523681640625,0.5038571357727051,0.9213129281997681,-9.760196685791016
1745730756.5957084,-0.026064252480864525,-0.021476099267601967,0.42453718185424805,0.4156702160835266,0.6962994933128357,-9.7076416015625
1745730756.5981476,-0.04584955424070358,-0.024330545216798782,0.4241402745246887,0.5069850087165833,0.8949187397956848,-9.618989944458008
1745730756.6351702,-0.00310490932315588,-0.03439060598611832,0.40297117829322815,0.4850960373878479,0.9651811718940735,-9.781190872192383
1745730756.6365345,0.017520811408758163,-0.03306793421506882,0.40580734610557556,0.4853121340274811,0.8266388773918152,-9.710428237915039
1745730756.638312,-0.0026496262289583683,-0.03919228911399841,0.40421777963638306,0.5547062158584595,0.8559881448745728,-9.691572189331055
1745730756.6751022,0.022041521966457367,-0.02892615832388401,0.40416398644447327,0.42312049865722656,0.9076509475708008,-9.769227981567383
1745730756.678485,0.004563455935567617,-0.03376021236181259,0.4052317142486572,0.557157576084137,0.6875067949295044,-9.810205459594727
1745730756.6797352,0.023294072598218918,-0.03878222405910492,0.4049214720726013,0.43199992179870605,1.0529212951660156,-9.64741325378418
1745730756.680946,0.019625386223196983,-0.033503759652376175,0.40508612990379333,0.5817389488220215,0.6893131136894226,-9.780143737792969
1745730756.7239034,0.012718237936496735,-0.03522465005517006,0.4030570387840271,0.3958519697189331,1.0169284343719482,-9.83508586883545
1745730756.7246633,0.021350044757127762,-0.03203820437192917,0.40338826179504395,0.4468391537666321,0.6174706220626831,-9.741071701049805
1745730756.7251182,0.012071574106812477,-0.04024524241685867,0.4034850597381592,0.5976317524909973,0.9042800664901733,-9.535372734069824
1745730756.7251928,0.016795050352811813,-0.03273971006274223,0.40217122435569763,0.49157610535621643,0.7680914402008057,-9.892602920532227
1745730756.7252486,0.0027442462742328644,-0.03775700554251671,0.40219980478286743,0.538345456123352,0.7833461165428162,-9.928262710571289
1745730756.7611887,0.024148233234882355,-0.037063952535390854,0.40129318833351135,0.351347416639328,0.9541260600090027,-9.613202095031738
1745730756.7639086,0.009414871223270893,-0.03476573899388313,0.40381622314453125,0.614091157913208,0.7008107304573059,-9.515127182006836
1745730756.7659187,0.02020961232483387,-0.0354858823120594,0.405460923910141,0.402039110660553,1.005255937576294,-9.886062622070312
1745730756.7687528,0.03505660220980644,-0.03254384547472,0.402704656124115,0.46943551301956177,0.8261996507644653,-9.937804222106934
1745730756.8041384,0.021963125094771385,-0.03819773346185684,0.40333622694015503,0.48916149139404297,0.9034370183944702,-9.598637580871582
1745730756.8053732,0.04904371500015259,-0.03483114019036293,0.40422335267066956,0.4069465696811676,0.9096356630325317,-9.62171745300293
1745730756.806914,0.01990519091486931,-0.034994810819625854,0.4011576771736145,0.5133273601531982,0.7957088947296143,-9.83922004699707
1745730756.8097138,0.046425193548202515,-0.03732419013977051,0.4005581736564636,0.401533305644989,0.7852106094360352,-9.859898567199707
1745730756.8120565,0.0215220358222723,-0.030815958976745605,0.40172290802001953,0.6192777156829834,0.7156264781951904,-9.621870040893555
1745730756.8476703,0.02917538955807686,-0.03720951825380325,0.40278005599975586,0.3813837170600891,0.8236095309257507,-9.720159530639648
1745730756.8488839,0.027844691649079323,-0.03210120275616646,0.40164288878440857,0.4678332209587097,0.5553904175758362,-9.840551376342773
1745730756.8521805,0.01947743073105812,-0.03640502318739891,0.4039626717567444,0.5207870006561279,0.9025160074234009,-9.654891014099121
1745730756.8556778,0.027254000306129456,-0.025896713137626648,0.4033907949924469,0.44794362783432007,0.6417584419250488,-9.74169635772705
1745730756.893673,0.020994313061237335,-0.03364432230591774,0.40511035919189453,0.4964963495731354,0.8929862976074219,-9.701204299926758
1745730756.8994472,0.031179700046777725,-0.03372754156589508,0.40538567304611206,0.3668922781944275,0.7933468222618103,-9.851447105407715
1745730756.9019692,0.02609029784798622,-0.027320552617311478,0.405477374792099,0.5430402755737305,0.7372360825538635,-9.736715316772461
1745730756.9054546,0.030298102647066116,-0.028886979445815086,0.40337228775024414,0.3622615933418274,0.9432781338691711,-9.603344917297363
1745730756.9321482,0.024820545688271523,-0.03200823441147804,0.4041035771369934,0.5153462290763855,0.47087135910987854,-9.792089462280273
1745730756.9353006,0.023549990728497505,-0.0288873128592968,0.40467119216918945,0.49607640504837036,1.0049777030944824,-9.811120986938477
1745730756.9364326,0.02508748695254326,-0.02113860473036766,0.4063170552253723,0.46998563408851624,0.5549871325492859,-9.805689811706543
1745730756.9381604,0.015444937162101269,-0.02816174551844597,0.4037594199180603,0.46876922249794006,0.8137513995170593,-9.582700729370117
1745730756.939548,0.02957533858716488,-0.026472151279449463,0.40764808654785156,0.4187547564506531,0.6956208944320679,-9.77756404876709
1745730756.9763548,0.00634675333276391,-0.02113119326531887,0.4087565839290619,0.5420755743980408,0.6959362626075745,-9.826007843017578
1745730756.9786918,0.031522952020168304,-0.022167224436998367,0.408900648355484,0.37450042366981506,0.8817839622497559,-9.67048168182373
1745730756.9813046,0.0030968710780143738,-0.004277045372873545,0.4103091359138489,0.3543587923049927,0.5572682023048401,-9.85075569152832
1745730756.988059,-0.012417948804795742,-0.011997762136161327,0.41088661551475525,0.43473634123802185,0.7671289443969727,-9.59224796295166
1745730757.0181146,0.0024252342991530895,-0.007453578524291515,0.4129849970340729,0.4249395430088043,0.715301513671875,-9.705558776855469
1745730757.0206108,-0.017992371693253517,-0.00582199078053236,0.41387757658958435,0.5757169723510742,0.6442500948905945,-9.927115440368652
1745730757.0246959,0.0035443257074803114,-0.010383977554738522,0.4135788083076477,0.3782244622707367,0.9240595698356628,-9.830545425415039
1745730757.0281916,-0.01675250008702278,-0.012132162228226662,0.4116474986076355,0.5470234751701355,0.5881271958351135,-9.7219877243042
1745730757.0621252,3.3335014450130984e-05,-0.011729978024959564,0.4097697138786316,0.34199991822242737,0.9601702690124512,-9.712000846862793
1745730757.0660021,-0.01476220227777958,-0.006200036033987999,0.4111195504665375,0.4309659004211426,0.5613802671432495,-9.76414966583252
1745730757.06918,-0.020273348316550255,-0.01656360551714897,0.409496545791626,0.4639740586280823,0.7561982870101929,-9.694300651550293
1745730757.070313,-0.008743169717490673,-0.00928468443453312,0.41008061170578003,0.4544805884361267,0.6922949552536011,-9.812915802001953
1745730757.0741062,-0.032959263771772385,-0.010735205374658108,0.4099666476249695,0.510208010673523,0.6267871260643005,-9.839447021484375
1745730757.1089892,-0.009284721687436104,-0.008668152615427971,0.4104137420654297,0.2974604070186615,0.8045964241027832,-9.668584823608398
1745730757.111424,-0.027758333832025528,-0.015650201588869095,0.410698801279068,0.5775485038757324,0.5178191661834717,-9.660125732421875
1745730757.113597,-0.023758502677083015,-0.012117167003452778,0.41223183274269104,0.3969818949699402,0.8586058616638184,-9.829977989196777
1745730757.1153944,-0.02598545327782631,-0.005966817960143089,0.4117608964443207,0.459597110748291,0.5332933664321899,-9.85656452178955
1745730757.1547494,-0.037831906229257584,-0.017005831003189087,0.40933045744895935,0.41740885376930237,0.8545635938644409,-9.622490882873535
1745730757.154831,-0.026830773800611496,-0.009488250128924847,0.4112919867038727,0.4092325270175934,0.5734229683876038,-9.754398345947266
1745730757.1548905,-0.05204543471336365,-0.012150881811976433,0.40738898515701294,0.5254208445549011,0.7776057124137878,-9.744745254516602
1745730757.1606195,-0.039651453495025635,-0.012932655401527882,0.4075641632080078,0.37026360630989075,0.655263364315033,-9.862005233764648
1745730757.189904,-0.05801857262849808,-0.014528405852615833,0.4066985547542572,0.6436195373535156,0.6154234409332275,-9.719569206237793
1745730757.1929371,-0.05137449502944946,-0.011412338353693485,0.4112878441810608,0.4056626260280609,0.7789058089256287,-9.712526321411133
1745730757.1983068,-0.05790875107049942,-0.010601970367133617,0.4093218743801117,0.4999609589576721,0.5461112856864929,-9.77231502532959
1745730757.201426,-0.056340742856264114,-0.01779886521399021,0.41237229108810425,0.42266255617141724,0.8590400815010071,-9.763298988342285
1745730757.2348483,-0.05744589492678642,-0.016746720299124718,0.4110800623893738,0.5093591809272766,0.9102181196212769,-9.689470291137695
1745730757.2487128,-0.05429864674806595,-0.014309288933873177,0.4080623686313629,0.36416763067245483,0.7591031789779663,-9.870416641235352
1745730757.2490885,-0.06880097091197968,-0.01593683660030365,0.4060232639312744,0.5151308178901672,0.6249383687973022,-9.787569046020508
1745730757.2491777,-0.053991757333278656,-0.014668439514935017,0.4066163897514343,0.38246822357177734,0.8639764785766602,-9.524205207824707
1745730757.2492743,-0.08793514966964722,-0.012174462899565697,0.40577688813209534,0.5532692670822144,0.43764805793762207,-9.772504806518555
1745730757.2786999,-0.07778652012348175,-0.022957706823945045,0.4046037197113037,0.43641090393066406,0.8555172085762024,-9.936798095703125
1745730757.2816682,-0.08351777493953705,-0.013466546311974525,0.40734511613845825,0.47952547669410706,0.5408825874328613,-9.796038627624512
1745730757.2859507,-0.09671121090650558,-0.014233718626201153,0.40761858224868774,0.44788140058517456,0.8454346656799316,-9.454305648803711
1745730757.290613,-0.08114198595285416,-0.01465524174273014,0.40828362107276917,0.4332062602043152,0.6547257304191589,-9.752745628356934
1745730757.3200283,-0.09575213491916656,-0.017988059669733047,0.40608006715774536,0.5341156125068665,0.9178668856620789,-9.887524604797363
1745730757.3249712,-0.07689712196588516,-0.013991452753543854,0.40689101815223694,0.3641437888145447,0.8171606063842773,-9.851587295532227
1745730757.3288138,-0.09216539561748505,-0.015646975487470627,0.4050116539001465,0.49960261583328247,0.8532013893127441,-9.591054916381836
1745730757.3315032,-0.08449265360832214,-0.019192684441804886,0.40361183881759644,0.35443782806396484,0.9087167978286743,-9.695521354675293
1745730757.3352,-0.0726780816912651,-0.04377757012844086,0.3908388018608093,0.5242289304733276,1.041672945022583,-9.694316864013672
1745730757.3632867,-0.04432878643274307,-0.04247821867465973,0.3877876400947571,0.32959747314453125,1.0536129474639893,-9.809556007385254
1745730757.37287,-0.0637904554605484,-0.04457880184054375,0.38852736353874207,0.48167258501052856,0.9039077758789062,-9.779096603393555
1745730757.3729513,-0.041604746133089066,-0.044972606003284454,0.3869427740573883,0.3158040940761566,1.095679521560669,-9.664657592773438
1745730757.372986,-0.05742841213941574,-0.041598666459321976,0.3860403597354889,0.4827384352684021,0.7840726375579834,-9.631022453308105
1745730757.4059596,-0.05751030892133713,-0.0475250706076622,0.38622793555259705,0.4073101878166199,1.0576403141021729,-9.811077117919922
1745730757.408007,-0.045967306941747665,-0.0444919653236866,0.3860872685909271,0.46648702025413513,0.8606694340705872,-9.888445854187012
1745730757.4102056,-0.060390640050172806,-0.04503373056650162,0.38626572489738464,0.46525639295578003,0.964267909526825,-9.655489921569824
1745730757.414334,-0.0401202067732811,-0.039310555905103683,0.3882123827934265,0.3243071436882019,1.0366508960723877,-9.570916175842285
1745730757.4494395,-0.05719202756881714,-0.04616279527544975,0.38721010088920593,0.5291047096252441,0.8203693628311157,-9.811906814575195
1745730757.4495099,-0.03545178100466728,-0.04522670805454254,0.3880457282066345,0.3556303381919861,1.2238776683807373,-9.836963653564453
1745730757.451577,-0.04446280747652054,-0.039587195962667465,0.38649043440818787,0.45560717582702637,0.8493738174438477,-9.769854545593262
1745730757.4537003,-0.040438875555992126,-0.046203725039958954,0.3846398890018463,0.31132835149765015,1.2379133701324463,-9.62227725982666
1745730757.4538615,-0.03638851270079613,-0.04307103157043457,0.3832933306694031,0.3922893702983856,0.804226279258728,-9.749101638793945
1745730757.4938314,-0.0406690314412117,-0.04679776355624199,0.3810397982597351,0.4641171395778656,1.1110930442810059,-9.688413619995117
1745730757.4950798,-0.03827382251620293,-0.03991131857037544,0.3829314410686493,0.3598463833332062,0.8637803792953491,-9.849527359008789
1745730757.4992003,-0.04597928747534752,-0.04654192179441452,0.38284650444984436,0.45886197686195374,0.9292615652084351,-9.646900177001953
1745730757.5017512,-0.029520830139517784,-0.043974101543426514,0.38306981325149536,0.3283809423446655,1.0577917098999023,-9.632155418395996
1745730757.5346665,-0.047347292304039,-0.03872367739677429,0.3820508122444153,0.5141650438308716,0.878058910369873,-9.799139976501465
1745730757.5364175,-0.02969464100897312,-0.04219382256269455,0.38255104422569275,0.3032670319080353,1.138070821762085,-9.82498550415039
1745730757.5381827,-0.026901910081505775,-0.04157556965947151,0.3830070495605469,0.4405859410762787,0.9311008453369141,-9.630025863647461
1745730757.540352,-0.03050888143479824,-0.04412534460425377,0.38045528531074524,0.39300984144210815,1.1380993127822876,-9.624122619628906
1745730757.5800288,-0.02348514460027218,-0.0379461869597435,0.3796730637550354,0.3299753963947296,0.9164754152297974,-9.883538246154785
1745730757.585283,-0.012913061305880547,-0.04074029251933098,0.3784969449043274,0.4088021218776703,1.031623125076294,-9.574275970458984
1745730757.5868628,-0.04143187776207924,-0.04234413430094719,0.37956294417381287,0.5458768606185913,0.8821279406547546,-9.7844820022583
1745730757.589501,-0.0155402896925807,-0.04558030888438225,0.37842419743537903,0.3044683635234833,1.1343891620635986,-9.890276908874512
1745730757.6229103,-0.026562999933958054,-0.03731756657361984,0.37859582901000977,0.4007457196712494,0.7469308972358704,-9.69943904876709
1745730757.6243818,-0.021644826978445053,-0.041151005774736404,0.3796769678592682,0.3944929838180542,1.2031346559524536,-9.432241439819336
1745730757.6264582,-0.020296569913625717,-0.03636092692613602,0.38112810254096985,0.4091842770576477,0.7785932421684265,-9.859601974487305
1745730757.6343913,-0.018430771306157112,-0.04247525334358215,0.3791069984436035,0.43296924233436584,1.2290724515914917,-9.878926277160645
1745730757.6629617,-0.0078079537488520145,-0.038201846182346344,0.37964630126953125,0.3584696650505066,0.9550164341926575,-9.802996635437012
1745730757.6670887,-0.01526029221713543,-0.03981705382466316,0.37805384397506714,0.4166140556335449,1.0513780117034912,-9.57898998260498
1745730757.6701427,-0.011744487099349499,-0.03911377489566803,0.3759872019290924,0.27948275208473206,1.038792371749878,-9.682673454284668
1745730757.672502,-0.01790558360517025,-0.04064057767391205,0.3763304352760315,0.5382322072982788,0.7191129922866821,-9.81218433380127
1745730757.677255,-0.016557052731513977,-0.040003448724746704,0.377422034740448,0.40927234292030334,1.1655926704406738,-9.756113052368164
1745730757.7149062,-0.00027788328588940203,-0.027946922928094864,0.37119731307029724,0.39477264881134033,0.9752834439277649,-9.857145309448242
1745730757.7149625,0.019181102514266968,-0.024817056953907013,0.3701404929161072,0.263904333114624,1.0087999105453491,-9.699286460876465
1745730757.715009,0.0058320388197898865,-0.023175571113824844,0.3715495765209198,0.499296098947525,0.7488558888435364,-9.534967422485352
1745730757.7150521,0.005469883792102337,-0.026256686076521873,0.3694149851799011,0.3777411878108978,1.0489639043807983,-9.7721529006958
1745730757.7515228,0.010277511551976204,-0.023911282420158386,0.37038010358810425,0.39603859186172485,0.7480559945106506,-9.936246871948242
1745730757.7526608,-0.0005264753708615899,-0.026015516370534897,0.3731929361820221,0.32421571016311646,1.055588960647583,-9.643173217773438
1745730757.7549577,0.01546681672334671,-0.019493093714118004,0.3700365126132965,0.3993152976036072,0.8951330184936523,-9.539403915405273
1745730757.7576876,-0.003484151791781187,-0.02575603686273098,0.37221449613571167,0.4603814482688904,0.9513039588928223,-9.803421020507812
1745730757.7923918,0.02430875599384308,-0.025842513889074326,0.37174081802368164,0.30331674218177795,1.114778757095337,-9.915783882141113
1745730757.7957685,0.0071481079794466496,-0.023049987852573395,0.3710241913795471,0.4957641065120697,0.7775878310203552,-9.705339431762695
1745730757.7984135,0.019792120903730392,-0.024630364030599594,0.3710324168205261,0.2484789788722992,1.1796722412109375,-9.569491386413574
1745730757.8037617,0.00788041390478611,-0.024229085072875023,0.37003350257873535,0.4242704510688782,0.6632777452468872,-9.779210090637207
1745730757.8038235,0.017513975501060486,-0.027693551033735275,0.370004266500473,0.42446374893188477,1.0996755361557007,-9.755509376525879
1745730757.8417156,0.013796510174870491,-0.020269807428121567,0.3686184287071228,0.45031923055648804,0.8055928349494934,-9.807581901550293
1745730757.8457913,0.008465896360576153,-0.027210235595703125,0.37055709958076477,0.3815433382987976,0.9900726079940796,-9.70226001739502
1745730757.84972,0.023582303896546364,-0.02305028773844242,0.3691132366657257,0.23945197463035583,0.8929721713066101,-9.676292419433594
1745730757.8529985,0.005046728067100048,-0.024187156930565834,0.37135249376296997,0.5001333951950073,0.8398844599723816,-9.62238597869873
1745730757.8798773,0.013119349256157875,-0.020611846819519997,0.37254178524017334,0.28751325607299805,0.984239935874939,-9.806534767150879
1745730757.8837535,0.012665566988289356,-0.021446604281663895,0.37103331089019775,0.4518699645996094,0.8071130514144897,-9.790175437927246
1745730757.885809,0.007853303104639053,-0.02658521756529808,0.37215426564216614,0.3229747414588928,1.0834330320358276,-9.675149917602539
1745730757.8871727,0.023009253665804863,-0.02034689113497734,0.3691268265247345,0.39273497462272644,0.8580112457275391,-9.733970642089844
1745730757.8882985,0.0020420446526259184,-0.022082339972257614,0.3680568337440491,0.3518088459968567,1.0826332569122314,-9.732481956481934
1745730757.923268,0.021978797391057014,-0.023519335314631462,0.36842218041419983,0.3445371985435486,0.7248550057411194,-9.76383113861084
1745730757.925852,0.0025606611743569374,-0.022567760199308395,0.3683266043663025,0.5321308970451355,0.9754408597946167,-9.653886795043945
1745730757.9293509,0.01694333180785179,-0.01860940083861351,0.36942774057388306,0.2739683985710144,0.9183127284049988,-9.829026222229004
1745730757.9320502,0.008823302574455738,-0.021539045497775078,0.3688622713088989,0.4457654058933258,0.8045109510421753,-9.718103408813477
1745730757.9679568,0.022258630022406578,-0.026539582759141922,0.3696085810661316,0.38459542393684387,1.1500674486160278,-9.641737937927246
1745730757.9772542,0.009725767187774181,-0.017063327133655548,0.3686272203922272,0.46782517433166504,0.7972296476364136,-9.874186515808105
1745730757.9790053,0.02153896354138851,-0.025327954441308975,0.3686465322971344,0.34342965483665466,1.1233330965042114,-9.722822189331055
1745730757.9790661,0.01995791122317314,-0.02282121032476425,0.3671971261501312,0.35537439584732056,0.8016025424003601,-9.720856666564941
1745730758.0097075,0.012941770255565643,-0.024624761193990707,0.3661646246910095,0.4252846837043762,0.9506093859672546,-9.71613883972168
1745730758.0122764,0.0248919315636158,-0.020734023302793503,0.36696624755859375,0.29693877696990967,0.9387739300727844,-9.734827995300293
1745730758.0143979,0.003968489356338978,-0.026446420699357986,0.3649827241897583,0.47007113695144653,0.7556551098823547,-9.749504089355469
1745730758.016805,0.021938536316156387,-0.025916650891304016,0.36779001355171204,0.39233192801475525,1.0616265535354614,-9.745095252990723
1745730758.0190701,0.010340091772377491,-0.020784825086593628,0.3653194308280945,0.47541409730911255,0.7080073356628418,-9.812215805053711
1745730758.0524585,0.016426285728812218,-0.023587709292769432,0.3678038418292999,0.2932046353816986,1.0723493099212646,-9.66029167175293
1745730758.0558116,0.03027329407632351,-0.026585862040519714,0.355010062456131,0.2175503671169281,0.7480584979057312,-9.816617965698242
1745730758.058891,0.03355085477232933,-0.03068719431757927,0.35923463106155396,0.5407809019088745,0.8212173581123352,-9.45301628112793
1745730758.061328,0.029078412801027298,-0.03575794771313667,0.35064855217933655,0.28807324171066284,1.3741081953048706,-9.82172966003418
1745730758.0958107,0.039937376976013184,-0.05389567092061043,0.3387959599494934,-0.012765211053192616,0.971591591835022,-10.422907829284668
1745730758.0979238,0.06473956257104874,-0.03535494580864906,0.325667142868042,-0.22997622191905975,1.5070056915283203,-9.457865715026855
1745730758.099114,0.07882195711135864,-0.04061364009976387,0.3130139708518982,-0.3360549211502075,1.1531141996383667,-9.17163372039795
1745730758.1019294,0.04856524616479874,-0.0682232677936554,0.3022020757198334,-0.5679627656936646,0.780730128288269,-10.049196243286133
1745730758.1442175,0.1261075735092163,-0.02883683517575264,0.30150848627090454,-0.4292575716972351,0.27015113830566406,-10.097962379455566
1745730758.144288,0.05528444051742554,-0.02184898778796196,0.3022891879081726,-0.15226857364177704,0.45628443360328674,-9.12750244140625
1745730758.1443472,0.0474848635494709,-0.05943124741315842,0.3060462474822998,0.014155017212033272,-0.12444082647562027,-9.472482681274414
1745730758.146427,0.06336481124162674,-0.057116083800792694,0.3056872487068176,0.5790355205535889,0.06477035582065582,-10.278154373168945
1745730758.1795905,-0.014561906456947327,-0.03519575297832489,0.2980949580669403,-0.14890055358409882,0.5135833024978638,-10.685195922851562
1745730758.1831923,-0.02749335765838623,-0.05420275405049324,0.28805214166641235,0.052941638976335526,-0.16982978582382202,-9.319992065429688
1745730758.1852207,-0.0466575026512146,-0.07374457269906998,0.27928000688552856,0.007090139202773571,0.8888092041015625,-8.67943286895752
1745730758.1882193,-0.09337999671697617,-0.06669904291629791,0.2689785361289978,-0.3050634264945984,0.7379736304283142,-10.639163970947266
1745730758.1907225,-0.05767561122775078,-0.05721080303192139,0.25944024324417114,-0.17141905426979065,1.026444435119629,-10.49688720703125
1745730758.2242951,-0.02144891396164894,-0.05307687446475029,0.2547888159751892,-0.21591965854167938,1.658115029335022,-8.783662796020508
1745730758.2284062,-0.02117590419948101,-0.07946069538593292,0.25120148062705994,0.28393882513046265,1.2232911586761475,-9.175226211547852
1745730758.2371793,0.05485569313168526,-0.08174110949039459,0.24660809338092804,0.06497524678707123,1.5434486865997314,-10.860013008117676
1745730758.2372441,0.09580140560865402,-0.05660005286335945,0.2462238371372223,-0.023459400981664658,1.1475656032562256,-10.483181953430176
1745730758.264765,0.10439767688512802,-0.06705249845981598,0.24833588302135468,-0.11244316399097443,1.1705873012542725,-8.734647750854492
1745730758.2666023,0.13552173972129822,-0.08237365633249283,0.24800066649913788,-0.013282750733196735,0.6763638257980347,-8.986734390258789
1745730758.2683597,0.10438208281993866,-0.07985757291316986,0.23982329666614532,-0.08191618323326111,0.840684711933136,-10.660019874572754
1745730758.268971,0.036023639142513275,-0.0847572311758995,0.21396851539611816,-0.2607453167438507,0.3451520800590515,-9.130255699157715
1745730758.309863,-0.03134351968765259,-0.09536890685558319,0.2124156951904297,0.3910543620586395,-0.5911015868186951,-10.940263748168945
1745730758.3204198,-0.03221583366394043,-0.07212884724140167,0.218062162399292,-0.4986775815486908,0.3671344816684723,-10.887611389160156
1745730758.322831,-0.05290326476097107,-0.06512093544006348,0.21777348220348358,-0.08951105177402496,0.5335379838943481,-8.400891304016113
1745730758.3290849,-0.011180215515196323,-0.06624222546815872,0.2099015712738037,0.7466813325881958,1.402526617050171,-8.315629959106445
1745730758.3301792,0.025015931576490402,-0.1024317517876625,0.20117013156414032,0.7925904989242554,1.8174664974212646,-11.193822860717773
1745730758.3534086,0.09216625988483429,-0.07065921276807785,0.19509229063987732,0.5679783821105957,1.4276593923568726,-11.755460739135742
1745730758.3557343,0.1791798323392868,-0.05870220810174942,0.19751137495040894,-0.7517282366752625,1.5683811902999878,-8.710503578186035
1745730758.3568308,0.13063856959342957,-0.07781974226236343,0.20630617439746857,-0.2615085542201996,-0.009037268348038197,-7.906308650970459
1745730758.3589375,0.14849016070365906,-0.07202725112438202,0.1997976005077362,-0.05696932226419449,1.1259499788284302,-10.342307090759277
1745730758.3951993,0.1131395474076271,-0.04987995699048042,0.1797088384628296,0.15352126955986023,0.7547662854194641,-11.415153503417969
1745730758.3992481,0.15429838001728058,-0.04239168390631676,0.15388044714927673,0.2892611622810364,1.6364320516586304,-8.886507987976074
1745730758.4034495,0.10131092369556427,-0.07006881386041641,0.13926242291927338,0.6309820413589478,0.46962612867355347,-8.516871452331543
1745730758.4041626,0.23291197419166565,0.05850863456726074,-0.042578067630529404,0.36716046929359436,0.13607636094093323,-10.12446403503418
1745730758.4377873,0.19103315472602844,0.05626056343317032,-0.04907522350549698,0.5420515537261963,-0.34015756845474243,-9.666875839233398
1745730758.4395952,0.1856224089860916,0.054123423993587494,-0.05149514600634575,0.2525779604911804,0.2710599899291992,-9.510271072387695
1745730758.443306,0.17804433405399323,0.06389568001031876,-0.05423908308148384,0.31989049911499023,-0.22682888805866241,-9.833674430847168
1745730758.446765,0.19238567352294922,0.06435638666152954,-0.05301588028669357,0.35582226514816284,0.4899370074272156,-9.657750129699707
1745730758.4478116,0.20369139313697815,0.06453727185726166,-0.05768967419862747,0.4421474039554596,0.22480550408363342,-9.778367042541504
1745730758.484407,0.22321224212646484,0.06888394057750702,-0.058320753276348114,0.37890928983688354,0.6395257711410522,-9.799262046813965
1745730758.4861562,0.2510872185230255,0.0696069747209549,-0.06566976755857468,0.18227806687355042,0.6098805069923401,-9.820520401000977
1745730758.4873784,0.2446138560771942,0.06886047124862671,-0.07175274193286896,0.5622466802597046,0.17722201347351074,-9.643270492553711
1745730758.4900908,0.2500791549682617,0.06378116458654404,-0.07770861685276031,0.3893338143825531,0.4065175950527191,-9.784189224243164
1745730758.5321999,0.2279011309146881,0.06368082016706467,-0.08535309880971909,0.6078740954399109,-0.2534848749637604,-9.960618019104004
1745730758.5339396,0.22478505969047546,0.06655993312597275,-0.08965304493904114,0.4847375452518463,0.2334572970867157,-9.578622817993164
1745730758.5366926,0.194009467959404,0.06714172661304474,-0.09470558166503906,0.6508930325508118,-0.40718692541122437,-9.615110397338867
1745730758.542443,0.19400516152381897,0.056539155542850494,-0.0960841029882431,0.6997987031936646,0.08653075993061066,-9.854220390319824
1745730758.5690515,0.19286958873271942,0.06289548426866531,-0.10011037439107895,0.372307151556015,0.11880938708782196,-10.043561935424805
1745730758.5694869,0.19032970070838928,0.0663607269525528,-0.10228808224201202,0.3631587624549866,0.0644991546869278,-9.684483528137207
1745730758.5725574,0.22511720657348633,0.06391914188861847,-0.10673888027667999,0.10163470357656479,0.4548443853855133,-9.29163646697998
1745730758.5754237,0.20954373478889465,0.05766863375902176,-0.11021087318658829,0.41203823685646057,-0.02668672241270542,-9.76001262664795
1745730758.5790854,0.24394464492797852,0.0689057856798172,-0.11415090411901474,0.2699323296546936,0.4818037152290344,-9.96877670288086
1745730758.6110337,0.23249904811382294,0.06924986094236374,-0.12110388278961182,0.4740723669528961,-0.27631720900535583,-9.654000282287598
1745730758.6130297,0.22435908019542694,0.05715254694223404,-0.12334797531366348,0.6400036811828613,-0.02274092473089695,-9.339761734008789
1745730758.6146076,0.2064833641052246,0.05914841219782829,-0.1261659562587738,0.6095256805419922,-0.4518517851829529,-9.991043090820312
1745730758.6542633,0.1694299280643463,0.04985883831977844,-0.14090971648693085,0.4389266073703766,0.3187546133995056,-9.9347562789917
1745730758.6570969,0.16521602869033813,0.05639120191335678,-0.14479586482048035,0.3666839599609375,0.15189087390899658,-10.189299583435059
1745730758.6603818,0.1898026019334793,0.05304533988237381,-0.15065792202949524,0.3174898624420166,0.32433587312698364,-9.433279037475586
1745730758.6662822,0.21579086780548096,0.05700325220823288,-0.1525522768497467,0.3653087019920349,0.16040489077568054,-9.222262382507324
1745730758.6677577,0.19663424789905548,0.040136732161045074,-0.15272332727909088,0.5751512050628662,-0.004768454935401678,-9.847799301147461
1745730758.6985946,0.24009838700294495,0.05312023311853409,-0.15491262078285217,0.46903714537620544,-0.04738696292042732,-10.212739944458008
1745730758.701235,0.21169523894786835,0.04911157488822937,-0.1577395647764206,0.6188353896141052,-0.36605048179626465,-9.68049430847168
1745730758.705848,0.21837158501148224,0.04127063229680061,-0.15794813632965088,0.495281457901001,-0.2050248682498932,-9.316278457641602
1745730758.7065535,0.18127460777759552,0.038245249539613724,-0.16352002322673798,0.6609833240509033,-0.49266400933265686,-9.880854606628418
1745730758.7407873,0.18059726059436798,0.03869340941309929,-0.17105957865715027,0.5084096789360046,-0.23190777003765106,-10.047076225280762
1745730758.7435114,0.16956540942192078,0.0420798733830452,-0.17182329297065735,0.4308352470397949,-0.39118582010269165,-9.575361251831055
1745730758.7471216,0.1406233161687851,0.02813291922211647,-0.17724516987800598,0.4982941150665283,-0.1729070246219635,-9.276693344116211
1745730758.750777,0.16990475356578827,0.03768102079629898,-0.17898204922676086,0.41597485542297363,-0.1978030949831009,-9.717019081115723
1745730758.7835417,0.1347186267375946,-0.023736128583550453,-0.23976154625415802,0.667191207408905,-0.6640514135360718,-9.837246894836426
1745730758.7867215,0.15179535746574402,-0.0196283720433712,-0.24142122268676758,0.31316614151000977,-0.36337894201278687,-9.906095504760742
1745730758.7884715,0.14031067490577698,-0.020133698359131813,-0.24226424098014832,0.4619213938713074,-0.7225891351699829,-9.804397583007812
1745730758.7925408,0.14582481980323792,-0.023716812953352928,-0.24210181832313538,0.3599262833595276,-0.318003386259079,-9.594265937805176
1745730758.796154,0.14344094693660736,-0.021639635786414146,-0.24374723434448242,0.5033512711524963,-0.6681418418884277,-9.80031681060791
1745730758.8340638,0.15319575369358063,-0.02579280361533165,-0.24418894946575165,0.52838534116745,-0.35746484994888306,-9.82718276977539
1745730758.8341527,0.1573667973279953,-0.01803818717598915,-0.2434178590774536,0.43626728653907776,-0.5626047253608704,-9.79188060760498
1745730758.8342092,0.1379610002040863,-0.02667153999209404,-0.24737954139709473,0.6593024730682373,-0.6967538595199585,-9.675832748413086
1745730758.8342566,0.1619163304567337,-0.02249583788216114,-0.24676387012004852,0.42305079102516174,-0.4609021246433258,-9.786916732788086
1745730758.8678455,0.126723974943161,-0.025592362508177757,-0.2480933666229248,0.5115343332290649,-0.7692881226539612,-9.965153694152832
1745730758.8700273,0.1516292244195938,-0.023700211197137833,-0.24689927697181702,0.4205859303474426,-0.3753581941127777,-9.716079711914062
1745730758.8715045,0.12901785969734192,-0.025225123390555382,-0.25174480676651,0.4933566153049469,-0.8106138110160828,-9.710949897766113
1745730758.8724623,0.13083137571811676,-0.03428950533270836,-0.2506290376186371,0.46990981698036194,-0.4273054003715515,-9.760601043701172
1745730758.875052,0.12994994223117828,-0.028014924377202988,-0.25343427062034607,0.44683247804641724,-0.7923449277877808,-10.024980545043945
1745730758.9138527,0.12296968698501587,-0.025137703865766525,-0.25300800800323486,0.45163750648498535,-0.6281312108039856,-9.721049308776855
1745730758.9171576,0.1390862911939621,-0.023950746282935143,-0.2516093850135803,0.435143381357193,-0.5535526275634766,-9.534040451049805
1745730758.920907,0.11170656979084015,-0.030363168567419052,-0.2535302937030792,0.5686163902282715,-0.781654953956604,-9.785524368286133
1745730758.9245198,0.14069882035255432,-0.02473144419491291,-0.2509543001651764,0.4105403423309326,-0.48294562101364136,-10.008865356445312
1745730758.958025,0.12163121998310089,-0.022432420402765274,-0.255759060382843,0.46782833337783813,-0.7780946493148804,-9.8955717086792
1745730758.9601548,0.12694008648395538,-0.030111050233244896,-0.2566790282726288,0.40298303961753845,-0.5095929503440857,-9.570109367370605
1745730758.9635036,0.1267021745443344,-0.023730626329779625,-0.2579877972602844,0.4784465730190277,-0.7731367945671082,-9.787254333496094
1745730758.9657705,0.1070043072104454,-0.031564485281705856,-0.2586243152618408,0.48307013511657715,-0.7081035375595093,-9.95677375793457
1745730758.9981885,0.12450756877660751,-0.025338659062981606,-0.26003625988960266,0.4638776183128357,-0.7595078349113464,-9.812281608581543
1745730759.000986,0.09890572726726532,-0.028435861691832542,-0.25969430804252625,0.4156179428100586,-0.5295780301094055,-9.819549560546875
1745730759.0010662,0.1038784384727478,-0.02552902139723301,-0.2615516781806946,0.4496345520019531,-0.8057154417037964,-9.731841087341309
1745730759.0025184,0.09907157719135284,-0.03296051546931267,-0.2630231976509094,0.35662350058555603,-0.393913209438324,-9.781710624694824
1745730759.0048156,0.11508818715810776,-0.021941466256976128,-0.2638467848300934,0.3563831150531769,-0.780958890914917,-9.859726905822754
1745730759.0420096,0.1040647029876709,-0.020616888999938965,-0.26519346237182617,0.4677205979824066,-0.5235119462013245,-9.675580978393555
1745730759.0430982,0.11844978481531143,-0.0265964325517416,-0.2677921950817108,0.45562949776649475,-0.7844392657279968,-9.690193176269531
1745730759.0468862,0.09697629511356354,-0.022563284263014793,-0.26391300559043884,0.575715959072113,-0.8956804275512695,-9.910223960876465
1745730759.0503576,0.10516363382339478,-0.02312486432492733,-0.2672855854034424,0.3924226760864258,-0.70478755235672,-9.974242210388184
1745730759.0844798,0.09126858413219452,-0.019644267857074738,-0.26580291986465454,0.516848087310791,-1.0008010864257812,-9.789627075195312
1745730759.0879328,0.07995349168777466,-0.02658170461654663,-0.26828280091285706,0.42455753684043884,-0.5680210590362549,-9.62293529510498
1745730759.0938787,0.09077546000480652,-0.019927041605114937,-0.26647621393203735,0.4379166066646576,-0.9024308323860168,-9.865105628967285
1745730759.0956187,0.08380042016506195,-0.021173935383558273,-0.2700154185295105,0.41556602716445923,-0.48421359062194824,-9.879980087280273
1745730759.0971866,0.09800660610198975,-0.01826653815805912,-0.27339500188827515,0.3422396183013916,-0.6580118536949158,-9.693015098571777
1745730759.128536,0.06320195645093918,-0.010048187337815762,-0.2816411554813385,0.4731842875480652,-0.8697198629379272,-9.592629432678223
1745730759.1308768,0.07752852886915207,-0.01953032799065113,-0.28067752718925476,0.39587873220443726,-0.7560128569602966,-9.552301406860352
1745730759.1346846,0.06744332611560822,-0.012020017951726913,-0.2797718346118927,0.5308853983879089,-1.0235389471054077,-9.811403274536133
1745730759.1393917,0.07116063684225082,-0.015442997217178345,-0.28107574582099915,0.4520091116428375,-0.6515496969223022,-9.929106712341309
1745730759.1712441,0.07898382097482681,-0.011576979421079159,-0.28222769498825073,0.4680914878845215,-0.9586925506591797,-9.780295372009277
1745730759.1742263,0.056569866836071014,-0.018616368994116783,-0.28283441066741943,0.5642374753952026,-0.748967170715332,-9.546297073364258
1745730759.1771152,0.07621398568153381,-0.018478577956557274,-0.2839001417160034,0.469992458820343,-1.074625849723816,-9.797552108764648
1745730759.1789668,0.059193044900894165,-0.015966476872563362,-0.2819507420063019,0.5211297273635864,-0.9122201204299927,-9.86209487915039
1745730759.2149744,0.06638593971729279,-0.017411496490240097,-0.2829630672931671,0.43206310272216797,-0.8034015893936157,-9.689508438110352
1745730759.218361,0.061423588544130325,-0.015072369948029518,-0.27952641248703003,0.5507733225822449,-1.0733613967895508,-9.462200164794922
1745730759.221669,0.062348317354917526,-0.021324431523680687,-0.2817513942718506,0.3523005545139313,-0.5497437715530396,-9.694622993469238
1745730759.2230124,0.07206545770168304,-0.017771482467651367,-0.28345030546188354,0.5577123761177063,-1.047675609588623,-10.067953109741211
1745730759.2560854,0.06829183548688889,-0.01599338836967945,-0.2811538577079773,0.42352429032325745,-0.6483635902404785,-9.720010757446289
1745730759.2640195,0.07729620486497879,-0.02106509916484356,-0.28369855880737305,0.45616620779037476,-1.0648213624954224,-9.510252952575684
1745730759.264096,0.05588061735033989,-0.026901617646217346,-0.2804235816001892,0.5735405683517456,-0.9942789077758789,-9.73273754119873
1745730759.2641609,0.06605140119791031,-0.02022983692586422,-0.2791793644428253,0.35099515318870544,-0.9147899746894836,-9.981821060180664
1745730759.2642093,0.05835704877972603,-0.01713992841541767,-0.2800765633583069,0.5713394284248352,-1.0722105503082275,-9.635007858276367
1745730759.3029974,0.057722873985767365,-0.02042461931705475,-0.2815585732460022,0.360230416059494,-0.6689380407333374,-9.269367218017578
1745730759.3035626,0.04595612734556198,-0.02181043103337288,-0.28417184948921204,0.638451099395752,-1.0919090509414673,-9.748676300048828
1745730759.3041308,0.05730921030044556,-0.022893618792295456,-0.2834223210811615,0.5244396924972534,-0.6455333828926086,-10.109336853027344
1745730759.3064084,0.05801113694906235,-0.018731463700532913,-0.2849549651145935,0.39250755310058594,-1.0612256526947021,-9.928181648254395
1745730759.3411825,0.05064260959625244,-0.02472146414220333,-0.281700074672699,0.5125694274902344,-0.8718377947807312,-9.335932731628418
1745730759.3441978,0.0478694848716259,-0.03168458491563797,-0.2826070785522461,0.4480063319206238,-0.6289545893669128,-9.467790603637695
1745730759.3457947,0.03195413202047348,-0.027635645121335983,-0.28173524141311646,0.4304881691932678,-1.1551544666290283,-9.973162651062012
1745730759.3497143,0.03548077493906021,-0.028239425271749496,-0.28262901306152344,0.5194469690322876,-0.8413761854171753,-9.867147445678711
1745730759.3858721,0.04331154376268387,-0.027141189202666283,-0.28287869691848755,0.40067577362060547,-1.018956184387207,-9.564373016357422
1745730759.3872244,0.020130444318056107,-0.0352877639234066,-0.2811163067817688,0.5497279167175293,-1.0282351970672607,-9.565983772277832
1745730759.3903697,0.043623920530080795,-0.028973350301384926,-0.28048667311668396,0.4100615978240967,-0.7506421208381653,-9.87498950958252
1745730759.3979456,0.029061665758490562,-0.026243841275572777,-0.2800899147987366,0.5341648459434509,-1.1130770444869995,-9.863630294799805
1745730759.3980277,0.042548589408397675,-0.030720973387360573,-0.2814737558364868,0.4170561730861664,-0.6449284553527832,-9.386695861816406
1745730759.4317427,0.03526642173528671,-0.03162049502134323,-0.2785576581954956,0.5383972525596619,-1.1555293798446655,-9.644407272338867
1745730759.4351401,0.038241907954216,-0.032876987010240555,-0.2804250121116638,0.38950595259666443,-0.7023807764053345,-9.918452262878418
1745730759.4408908,0.043538033962249756,-0.02350868470966816,-0.2827761769294739,0.37959107756614685,-0.9735978841781616,-9.816843032836914
1745730759.44435,0.025440702214837074,-0.03345151245594025,-0.28132644295692444,0.5480539798736572,-0.8919757604598999,-9.502656936645508
1745730759.4717376,0.05025721713900566,-0.028897788375616074,-0.2819324731826782,0.4368767738342285,-0.8797016143798828,-9.645143508911133
1745730759.4747024,0.02446691505610943,-0.03360278159379959,-0.2842954099178314,0.5861672163009644,-1.0485608577728271,-9.936962127685547
1745730759.4762218,0.017773356288671494,-0.02464103139936924,-0.28153783082962036,0.3515099883079529,-0.8496942520141602,-9.712252616882324
1745730759.4771652,-0.0008921666303649545,-0.026389669626951218,-0.2797711491584778,0.5276813507080078,-1.1311770677566528,-9.944578170776367
1745730759.5187562,0.019835464656352997,-0.023222118616104126,-0.28177905082702637,0.37770876288414,-0.6228402853012085,-9.774477005004883
1745730759.519209,0.0118092717602849,-0.02150518074631691,-0.2819173336029053,0.45974040031433105,-1.1771246194839478,-9.637824058532715
1745730759.5231597,0.005725829396396875,-0.028262829408049583,-0.2808775007724762,0.4743497371673584,-0.7570512890815735,-9.575058937072754
1745730759.5274708,0.012509895488619804,-0.020858174189925194,-0.2839284837245941,0.44993823766708374,-1.1573835611343384,-9.96680736541748
1745730759.5298498,-0.001395474188029766,-0.02342619001865387,-0.27976861596107483,0.45797380805015564,-0.975703239440918,-9.882707595825195
1745730759.5578547,0.010247847065329552,-0.016789177432656288,-0.28289127349853516,0.30163320899009705,-0.8966097831726074,-9.593070983886719
1745730759.5596635,-0.015331573784351349,-0.02206386812031269,-0.282498300075531,0.5731557607650757,-1.1238539218902588,-9.614832878112793
1745730759.562079,0.010093958117067814,-0.020839735865592957,-0.2827874720096588,0.4044967293739319,-0.7067034244537354,-9.834020614624023
1745730759.5636787,-0.0031249537132680416,-0.019582342356443405,-0.28437334299087524,0.47652798891067505,-1.104729413986206,-10.00810432434082
1745730759.5995128,0.005654782988131046,-0.02288929745554924,-0.28165557980537415,0.3947768807411194,-0.7830026149749756,-9.596163749694824
1745730759.603153,0.010042714886367321,-0.014611279591917992,-0.2816685140132904,0.3889342248439789,-0.9996012449264526,-9.589188575744629
1745730759.6051517,-0.003616542089730501,-0.027156289666891098,-0.2812146544456482,0.5217890739440918,-0.9724797010421753,-9.771296501159668
1745730759.6067667,0.011783650144934654,-0.016205722466111183,-0.2796223759651184,0.3583778738975525,-0.9577491879463196,-9.932204246520996
1745730759.6078448,-0.007020005490630865,-0.01766250468790531,-0.28015953302383423,0.5571710467338562,-1.0773950815200806,-9.768572807312012
1745730759.6448376,0.011375179514288902,-0.022857097908854485,-0.28099843859672546,0.3569584786891937,-0.8365772366523743,-9.586250305175781
1745730759.6477127,-0.015915047377347946,-0.02220379188656807,-0.27780210971832275,0.5345333218574524,-1.193704605102539,-9.842392921447754
1745730759.655994,-0.0015214148443192244,-0.021098259836435318,-0.27983298897743225,0.4035278260707855,-0.8219919204711914,-9.905301094055176
1745730759.6561408,-0.006689098663628101,-0.011797407642006874,-0.2800498902797699,0.4013443887233734,-1.1463549137115479,-9.760019302368164
1745730759.6860359,-0.016204196959733963,-0.024342704564332962,-0.2812027633190155,0.44977861642837524,-0.7594524621963501,-9.439433097839355
1745730759.6879787,-0.00016424627392552793,-0.017455654218792915,-0.27985879778862,0.4163166880607605,-1.0034148693084717,-9.727843284606934
1745730759.6904173,-0.010837305337190628,-0.019232943654060364,-0.2763153612613678,0.42160311341285706,-0.7121609449386597,-9.675094604492188
1745730759.6930666,0.002110262168571353,-0.017244625836610794,-0.2770140767097473,0.4501534104347229,-1.0603935718536377,-9.635117530822754
1745730759.730523,-0.02033896930515766,-0.0208306722342968,-0.27785736322402954,0.4233115315437317,-0.8320542573928833,-9.729121208190918
1745730759.732942,-0.0027499650605022907,-0.016053762286901474,-0.27882832288742065,0.3957289755344391,-0.9192215204238892,-9.890400886535645
1745730759.735464,-0.013845724053680897,-0.013304656371474266,-0.27915412187576294,0.5538884401321411,-1.0135109424591064,-9.725717544555664
1745730759.73971,-0.002728753024712205,-0.019594840705394745,-0.27691277861595154,0.35176336765289307,-0.771976888179779,-9.587915420532227
1745730759.7415144,-0.009635965339839458,-0.01791892573237419,-0.2765217423439026,0.5534248948097229,-1.1349841356277466,-9.891634941101074
1745730759.7755013,-0.0037293494679033756,-0.01773213967680931,-0.27529996633529663,0.36511197686195374,-0.7546964883804321,-9.872869491577148
1745730759.780373,0.0019796285778284073,-0.014029266312718391,-0.2773285210132599,0.4248390793800354,-1.0340615510940552,-9.663409233093262
1745730759.7821505,-0.016739588230848312,-0.022548289969563484,-0.2763743996620178,0.5139410495758057,-0.8403722643852234,-9.584564208984375
1745730759.7839699,0.0029991199262440205,-0.015184285119175911,-0.27675026655197144,0.3836227059364319,-1.002029299736023,-9.8408842086792
1745730759.827213,-0.014616256579756737,-0.015000501647591591,-0.27880141139030457,0.4925808012485504,-0.9019713401794434,-9.79874324798584
1745730759.8273373,-0.004472610540688038,-0.01610729657113552,-0.27888208627700806,0.3249138295650482,-0.8421519994735718,-9.63578987121582
1745730759.827429,-0.02088763751089573,-0.015683813020586967,-0.27877774834632874,0.5688678026199341,-1.128436803817749,-9.660542488098145
1745730759.8275075,-0.00910218432545662,-0.020326917991042137,-0.2790963649749756,0.4210895001888275,-0.7212725281715393,-9.55064868927002
1745730759.8592703,-0.0199904628098011,-0.015726124867796898,-0.2780032157897949,0.5574631094932556,-1.0297248363494873,-9.714540481567383
1745730759.8617735,-0.012996241450309753,-0.022404322400689125,-0.2767031490802765,0.3776510953903198,-0.6579260230064392,-9.856233596801758
1745730759.8649392,-0.004175977315753698,-0.015201861970126629,-0.27699893712997437,0.4600585103034973,-0.9590670466423035,-9.843034744262695
1745730759.8683891,-0.016387520357966423,-0.02055152878165245,-0.27676865458488464,0.42476749420166016,-0.7222373485565186,-9.620773315429688
1745730759.8700461,0.004625176079571247,-0.02047119289636612,-0.279029905796051,0.33846616744995117,-0.7980924248695374,-9.643190383911133
1745730759.9039006,-0.019116755574941635,-0.020125584676861763,-0.2780958116054535,0.5505872964859009,-0.9407345056533813,-9.834348678588867
1745730759.9075162,0.002770662074908614,-0.01950530894100666,-0.2795217037200928,0.35006043314933777,-0.7404472231864929,-9.77473258972168
1745730759.9097729,-0.011903504841029644,-0.016723066568374634,-0.2793583273887634,0.5087792277336121,-1.0248792171478271,-9.606889724731445
1745730759.913768,-0.008361056447029114,-0.022776279598474503,-0.27990251779556274,0.3515334725379944,-0.675179123878479,-9.599720001220703
1745730759.9441478,-0.013625535182654858,-0.016301173716783524,-0.27981555461883545,0.5128408670425415,-1.0890209674835205,-9.892984390258789
1745730759.9469237,-0.010876580141484737,-0.020176367834210396,-0.2816925048828125,0.48896270990371704,-0.6707700490951538,-9.809525489807129
1745730759.950612,-0.001161957741715014,-0.018530994653701782,-0.2793424129486084,0.3505179286003113,-0.8545002937316895,-9.738755226135254
1745730759.95263,-0.010626675561070442,-0.020896222442388535,-0.2810838222503662,0.5180109739303589,-0.8156988024711609,-9.596875190734863
1745730759.9542935,0.0043930793181061745,-0.0208129920065403,-0.27841493487358093,0.3493204116821289,-0.8067771792411804,-9.812411308288574
1745730759.9881175,-0.011558485217392445,-0.02008058875799179,-0.27963700890541077,0.542420506477356,-0.9784668684005737,-9.80710220336914
1745730759.9910731,-0.0048734634183347225,-0.02141295000910759,-0.2818491458892822,0.36132264137268066,-0.7590481042861938,-9.692155838012695
1745730759.9944701,-0.008099868893623352,-0.018213924020528793,-0.2796329855918884,0.42658716440200806,-1.0683481693267822,-9.639945983886719
1745730759.9982042,-0.009713374078273773,-0.0222628191113472,-0.28020161390304565,0.46007999777793884,-0.5684569478034973,-9.626290321350098
1745730760.032344,-0.009751935489475727,-0.020664703100919724,-0.2821376919746399,0.43438172340393066,-1.0393271446228027,-9.873430252075195
1745730760.0369031,-0.012900774367153645,-0.020463615655899048,-0.28039950132369995,0.48358994722366333,-0.7472084164619446,-9.798219680786133
1745730760.0388148,0.002193664899095893,-0.020796826109290123,-0.28160127997398376,0.2995522618293762,-0.7903980612754822,-9.730620384216309
1745730760.0423439,-0.0038860500790178776,-0.022652380168437958,-0.2807769775390625,0.4191635251045227,-0.7401638627052307,-9.758827209472656
1745730760.074219,0.0002938713878393173,-0.016226014122366905,-0.2815897762775421,0.346489816904068,-0.8197698593139648,-9.792373657226562
1745730760.0798407,-0.014043942093849182,-0.021664882078766823,-0.28238028287887573,0.5953968167304993,-0.9014605283737183,-9.745630264282227
1745730760.0845392,0.009136148728430271,-0.02131631039083004,-0.28295859694480896,0.370534747838974,-0.6998122930526733,-9.71951675415039
1745730760.0846207,-0.01220935769379139,-0.02270146645605564,-0.28244760632514954,0.4705590307712555,-0.9436238408088684,-9.81375789642334
1745730760.0879529,0.005777654238045216,-0.021996241062879562,-0.28244656324386597,0.33858880400657654,-0.7281288504600525,-9.660024642944336
1745730760.1186292,0.0038861450739204884,-0.01577203907072544,-0.2818976044654846,0.41335397958755493,-0.8950409889221191,-9.67768383026123
1745730760.1237729,0.0031893006525933743,-0.026923885568976402,-0.2804858088493347,0.4655180871486664,-0.6171435713768005,-9.732394218444824
1745730760.1256504,0.017534857615828514,-0.017809642478823662,-0.2813367545604706,0.3447370231151581,-0.8301685452461243,-9.854921340942383
1745730760.1305838,0.009247953072190285,-0.021536484360694885,-0.2827330529689789,0.47753968834877014,-0.7723065614700317,-9.732401847839355
1745730760.1604643,0.024534670636057854,-0.021190980449318886,-0.281625896692276,0.3386526107788086,-0.7330285310745239,-9.674467086791992
1745730760.162784,-0.0011694756103679538,-0.022541368380188942,-0.2829117178916931,0.5196496248245239,-0.9844893217086792,-9.795953750610352
1745730760.1651917,0.02105363830924034,-0.021628841757774353,-0.2855006158351898,0.35124921798706055,-0.7435310482978821,-9.775479316711426
1745730760.1673465,0.007743859197944403,-0.01546520460397005,-0.2824913263320923,0.3946990370750427,-0.998173713684082,-9.700282096862793
1745730760.208027,0.007811410818248987,-0.025912070646882057,-0.28652992844581604,0.45593318343162537,-0.8155159950256348,-9.572484970092773
1745730760.208076,0.024243291467428207,-0.01646553725004196,-0.2870646119117737,0.3720645606517792,-0.8363506197929382,-9.748160362243652
1745730760.2094216,0.005388808436691761,-0.0259895958006382,-0.28739845752716064,0.5316256284713745,-0.8268884420394897,-9.832470893859863
1745730760.2100632,0.027670785784721375,-0.020191330462694168,-0.287087619304657,0.2936338186264038,-0.7225309610366821,-9.786081314086914
1745730760.2480586,0.01238134317100048,-0.02061701938509941,-0.2881711423397064,0.49648791551589966,-0.9910218119621277,-9.700726509094238
1745730760.2534585,0.025239983573555946,-0.025315221399068832,-0.28605127334594727,0.329910546541214,-0.6366592645645142,-9.7137451171875
1745730760.2564406,0.012483792379498482,-0.020492201671004295,-0.2864703834056854,0.4721651077270508,-1.0342127084732056,-9.918401718139648
1745730760.2565942,0.017796289175748825,-0.024392494931817055,-0.2877694368362427,0.3839680552482605,-0.7308151125907898,-9.715045928955078
1745730760.258826,0.023779505863785744,-0.01699606142938137,-0.28947749733924866,0.3408069610595703,-0.9104472994804382,-9.616182327270508
1745730760.2923176,0.00658134650439024,-0.025191176682710648,-0.28773951530456543,0.6076583862304688,-0.782404899597168,-9.659602165222168
1745730760.2951057,0.030054783448576927,-0.019689548760652542,-0.2887670397758484,0.44165825843811035,-0.8642390966415405,-9.876954078674316
1745730760.2970526,0.005787604488432407,-0.02021797001361847,-0.2888081669807434,0.42652830481529236,-0.9108757972717285,-9.85917854309082
1745730760.3000066,0.029960880056023598,-0.01911427453160286,-0.28749680519104004,0.3162555992603302,-0.7198960185050964,-9.618058204650879
1745730760.3344002,0.009901572950184345,-0.01675177551805973,-0.2863692343235016,0.4328371584415436,-1.0509276390075684,-9.644165992736816
1745730760.3437302,0.024852652102708817,-0.026207497343420982,-0.2882389724254608,0.41631779074668884,-0.6029629111289978,-9.786521911621094
1745730760.3467293,0.019483990967273712,-0.019390787929296494,-0.28894931077957153,0.42372003197669983,-0.9884296655654907,-9.979736328125
1745730760.3468616,0.013745446689426899,-0.02284344844520092,-0.2893112599849701,0.4030800461769104,-0.7234166860580444,-9.632265090942383
1745730760.3486133,0.03498300164937973,-0.016358818858861923,-0.2906010150909424,0.38840252161026,-0.8738400340080261,-9.488424301147461
1745730760.3764734,0.003008805913850665,-0.02527705766260624,-0.288637638092041,0.5427025556564331,-0.9664880633354187,-9.76623249053955
1745730760.3765473,0.028131315484642982,-0.01945650205016136,-0.28892049193382263,0.41662710905075073,-0.8021169900894165,-9.993481636047363
1745730760.3765883,0.01306153368204832,-0.013800039887428284,-0.2896069288253784,0.4887537956237793,-0.9698379635810852,-9.754961967468262
1745730760.3775399,0.02101871743798256,-0.022555816918611526,-0.287885844707489,0.3067304491996765,-0.699884295463562,-9.4793701171875
1745730760.419972,0.022191978991031647,-0.021575927734375,-0.2884220480918884,0.4995874762535095,-0.9902642965316772,-9.781939506530762
1745730760.4233515,0.028700297698378563,-0.020939901471138,-0.2884855568408966,0.3309409022331238,-0.8492221832275391,-9.641505241394043
1745730760.4271953,0.007488916628062725,-0.018096240237355232,-0.2904323935508728,0.5561860799789429,-0.9069194793701172,-9.972991943359375
1745730760.430684,0.019381649792194366,-0.018623050302267075,-0.28855830430984497,0.3650685250759125,-0.664640486240387,-9.855259895324707
1745730760.4310005,0.019690942019224167,-0.015133855864405632,-0.2879487872123718,0.47748804092407227,-1.0094932317733765,-9.55539608001709
1745730760.4637644,0.0209352970123291,-0.02305484749376774,-0.2897074222564697,0.3428265452384949,-0.5537137389183044,-9.666902542114258
1745730760.4663603,0.02880856767296791,-0.019019903615117073,-0.28980502486228943,0.4199289381504059,-0.9656922221183777,-9.991772651672363
1745730760.4703147,0.023056024685502052,-0.014518693089485168,-0.2921035885810852,0.4675702154636383,-0.6418799161911011,-9.759363174438477
1745730760.4728985,0.03740571066737175,-0.018693212419748306,-0.2887677252292633,0.33852213621139526,-0.8995723724365234,-9.521915435791016
1745730760.5103405,0.017091596499085426,-0.02218983881175518,-0.28887811303138733,0.516065776348114,-0.9632666707038879,-9.604211807250977
1745730760.5104394,0.02734242007136345,-0.020693954080343246,-0.2900918126106262,0.3732578754425049,-0.8354840278625488,-9.969975471496582
1745730760.5105426,0.014422884210944176,-0.013570512644946575,-0.28921693563461304,0.46766743063926697,-1.129136085510254,-9.974596977233887
1745730760.510603,0.017309730872511864,-0.0225781612098217,-0.29112428426742554,0.3695574402809143,-0.6531080007553101,-9.489202499389648
1745730760.55442,0.01094084233045578,-0.018873855471611023,-0.2872224450111389,0.476395845413208,-1.158689260482788,-9.672829627990723
1745730760.554529,0.021215859800577164,-0.021273864433169365,-0.2968681752681732,0.4269119203090668,-1.0162925720214844,-9.664007186889648
1745730760.5545793,0.001668925047852099,-0.025585278868675232,-0.29362061619758606,0.42752617597579956,-0.8583104014396667,-9.844677925109863
1745730760.5546274,0.019633818417787552,-0.021996350958943367,-0.293113648891449,0.34175848960876465,-0.921103298664093,-9.857327461242676
1745730760.5549097,0.005257593467831612,-0.021371934562921524,-0.2934463620185852,0.4998627305030823,-0.8511759638786316,-9.632551193237305
1745730760.5918627,0.022958826273679733,-0.027932414785027504,-0.29340222477912903,0.3154124319553375,-0.6778618097305298,-9.620946884155273
1745730760.595973,0.014448595233261585,-0.024181894958019257,-0.294548362493515,0.44882097840309143,-0.9409406781196594,-9.826261520385742
1745730760.6002014,0.02390194498002529,-0.02586449682712555,-0.2928893566131592,0.3923585116863251,-0.6397711038589478,-9.856428146362305
1745730760.602925,0.02994828298687935,-0.021664509549736977,-0.29449257254600525,0.4219462275505066,-0.9623579978942871,-9.761009216308594
1745730760.6359668,0.014044354669749737,-0.028485149145126343,-0.29469990730285645,0.4597201943397522,-0.7495196461677551,-9.630544662475586
1745730760.639396,0.027824893593788147,-0.023198824375867844,-0.2946886420249939,0.34344974160194397,-1.0236963033676147,-9.833484649658203
1745730760.6410708,0.012851858511567116,-0.022939052432775497,-0.29455041885375977,0.4692661762237549,-0.8913494944572449,-9.751474380493164
1745730760.6441789,0.017270103096961975,-0.026703733950853348,-0.2954593300819397,0.37516531348228455,-0.7631585001945496,-9.65224838256836
1745730760.675771,0.009121021255850792,-0.024068700149655342,-0.29581156373023987,0.5462543368339539,-1.1155980825424194,-9.719106674194336
1745730760.6779444,0.018111085519194603,-0.025750290602445602,-0.2976371943950653,0.2803049087524414,-0.6045413017272949,-9.802275657653809
1745730760.680367,0.01590903103351593,-0.022286057472229004,-0.2927416265010834,0.5142113566398621,-1.140276312828064,-9.826349258422852
1745730760.6820238,0.011878219433128834,-0.026409894227981567,-0.2940363585948944,0.38002145290374756,-0.728701114654541,-9.63623046875
1745730760.682579,0.027347460389137268,-0.023457374423742294,-0.29244866967201233,0.3467525541782379,-1.018885612487793,-9.776983261108398
1745730760.7239447,0.005199430976063013,-0.028738602995872498,-0.2902931869029999,0.4194508492946625,-0.7808739542961121,-9.787062644958496
1745730760.7259188,0.026088912039995193,-0.021323712542653084,-0.29441601037979126,0.3088151812553406,-0.7108380198478699,-9.734476089477539
1745730760.7269104,0.014486526139080524,-0.025707975029945374,-0.2939649224281311,0.5619314312934875,-0.9589534997940063,-9.68819808959961
1745730760.7285223,0.020493801683187485,-0.03116372600197792,-0.2976953089237213,0.3217039108276367,-0.6868457198143005,-9.78042984008789
1745730760.7630048,0.00918976217508316,-0.02449740283191204,-0.2968665063381195,0.5400094985961914,-1.1346429586410522,-9.869195938110352
1745730760.763804,0.010924054309725761,-0.025612380355596542,-0.2936062514781952,0.4347335696220398,-0.7075735926628113,-9.612386703491211
1745730760.7648532,0.027230139821767807,-0.027393419295549393,-0.29228806495666504,0.47570866346359253,-0.7559460997581482,-9.691404342651367
1745730760.7697592,0.03532977029681206,-0.03062911331653595,-0.29374009370803833,0.28791481256484985,-0.6644672155380249,-9.648005485534668
1745730760.7698336,0.03309010714292526,-0.02350640669465065,-0.2930665612220764,0.3823578357696533,-1.0628960132598877,-9.734620094299316
1745730760.8084042,0.04107752442359924,-0.02494988776743412,-0.29417920112609863,0.36190858483314514,-0.6313452124595642,-9.610979080200195
1745730760.810577,0.029759621247649193,-0.022717690095305443,-0.2943212687969208,0.42322808504104614,-1.111729383468628,-9.732009887695312
1745730760.8136098,0.02379537560045719,-0.028017735108733177,-0.2922537922859192,0.4951205253601074,-0.821615993976593,-9.777475357055664
1745730760.8182828,0.03985056281089783,-0.01877446100115776,-0.29188886284828186,0.3415066599845886,-0.8982652425765991,-9.892020225524902
1745730760.8498874,0.015599066391587257,-0.027593160048127174,-0.29291391372680664,0.5116851925849915,-0.9441172480583191,-9.738361358642578
1745730760.8522685,0.04285591468214989,-0.02090785652399063,-0.29441389441490173,0.3344126045703888,-0.6872950792312622,-9.627950668334961
1745730760.8588367,0.021061819046735764,-0.023288780823349953,-0.2915491759777069,0.43354588747024536,-1.060997724533081,-9.787154197692871
1745730760.8589177,0.03495451807975769,-0.024369223043322563,-0.2911144196987152,0.31152063608169556,-0.6223698854446411,-9.663104057312012
1745730760.8614578,0.026146437972784042,-0.022554924711585045,-0.2921803891658783,0.4177144467830658,-1.122345209121704,-9.771474838256836
1745730760.8931348,0.030076056718826294,-0.026591932401061058,-0.2925500273704529,0.3872270882129669,-0.6751015186309814,-9.748994827270508
1745730760.8949432,0.031459324061870575,-0.01627141609787941,-0.29293420910835266,0.3268094062805176,-0.7310361862182617,-9.695840835571289
1745730760.8962836,0.015763938426971436,-0.021520860493183136,-0.29022401571273804,0.5054980516433716,-1.0936188697814941,-9.776017189025879
1745730760.9395015,0.030733466148376465,-0.019487638026475906,-0.2929036021232605,0.3911413550376892,-0.6892784237861633,-9.777298927307129
1745730760.939676,0.025364140048623085,-0.015049904584884644,-0.28915196657180786,0.41898369789123535,-1.1821963787078857,-9.825769424438477
1745730760.9399028,0.019025856629014015,-0.02019878663122654,-0.29023000597953796,0.38954031467437744,-0.6851039528846741,-9.546765327453613
1745730760.9400084,0.021283498033881187,-0.0165726188570261,-0.29157572984695435,0.39062589406967163,-1.0604119300842285,-9.719222068786621
1745730760.9430768,0.01248397957533598,-0.018746837973594666,-0.29262790083885193,0.47864478826522827,-0.8524753451347351,-9.824341773986816
1745730760.979293,0.018762845546007156,-0.016924189403653145,-0.29513388872146606,0.35881319642066956,-0.8172009587287903,-9.802530288696289
1745730760.9822707,-0.00031671038595959544,-0.023333417251706123,-0.29613161087036133,0.6038544774055481,-1.1766775846481323,-9.74356746673584
1745730760.9834375,0.0160067081451416,-0.01986234448850155,-0.29102808237075806,0.38121289014816284,-0.7857304215431213,-9.700139045715332
1745730760.9847028,0.002732226625084877,-0.020524397492408752,-0.293560266494751,0.4343184530735016,-1.1604323387145996,-9.88613510131836
1745730761.0215816,0.007694215979427099,-0.019659612327814102,-0.2905735373497009,0.3760164678096771,-0.7546743750572205,-9.622629165649414
1745730761.0244708,0.01667185313999653,-0.013765709474682808,-0.29065221548080444,0.387235164642334,-0.902505099773407,-9.648040771484375
1745730761.0269618,0.005822255741804838,-0.025830859318375587,-0.28992071747779846,0.45333972573280334,-0.8171769976615906,-9.732177734375
1745730761.028511,0.021587716415524483,-0.01887848600745201,-0.29135316610336304,0.2732832133769989,-0.8472247123718262,-9.85561466217041
1745730761.0298724,0.004692523740231991,-0.017285427078604698,-0.2914915084838867,0.46387067437171936,-1.0166789293289185,-9.756258010864258
1745730761.0641372,0.021596988663077354,-0.01935429871082306,-0.292696475982666,0.32495659589767456,-0.7243339419364929,-9.597193717956543
1745730761.0675385,-0.0018374823266640306,-0.02036408893764019,-0.2901017963886261,0.5410823822021484,-1.1106021404266357,-9.782109260559082
1745730761.069877,0.010248087346553802,-0.02313815802335739,-0.2923479676246643,0.45563793182373047,-0.8195196390151978,-9.854277610778809
1745730761.0704186,0.011476827785372734,-0.013665132224559784,-0.2880305051803589,0.4419134259223938,-1.061059594154358,-9.792213439941406
1745730761.1107612,-0.0021563477348536253,-0.02232581004500389,-0.2913452684879303,0.4433678090572357,-0.7498793601989746,-9.544471740722656
1745730761.114711,0.016953259706497192,-0.018465843051671982,-0.28760430216789246,0.36437293887138367,-0.9695719480514526,-9.688833236694336
1745730761.1243675,-0.0006152715650387108,-0.01753159984946251,-0.2895139157772064,0.37789061665534973,-0.7946243286132812,-9.850869178771973
1745730761.1298435,0.02192714810371399,-0.023512912914156914,-0.2909533381462097,0.37849849462509155,-0.7989877462387085,-9.78131103515625
1745730761.15103,0.006270223297178745,-0.018999628722667694,-0.28863734006881714,0.46929389238357544,-1.2428672313690186,-9.992352485656738
1745730761.1530697,-0.00229188846424222,-0.020781632512807846,-0.28808027505874634,0.4463680386543274,-0.8566498756408691,-9.705151557922363
1745730761.1551666,0.010033611208200455,-0.01808140240609646,-0.2878377437591553,0.4453544616699219,-1.099707841873169,-9.530179977416992
1745730761.1610417,-0.012101205997169018,-0.022353792563080788,-0.2878934144973755,0.4319590926170349,-0.8279067873954773,-9.686227798461914
1745730761.193827,0.006387253291904926,-0.01902717351913452,-0.287202924489975,0.4260048270225525,-0.7734264135360718,-9.92145824432373
1745730761.1986158,-0.005350866820663214,-0.017100533470511436,-0.2887561619281769,0.4988778531551361,-0.936439037322998,-9.78596019744873
1745730761.2018723,0.01072195265442133,-0.02142411842942238,-0.28865161538124084,0.19130456447601318,-0.6586151123046875,-9.558117866516113
1745730761.2039096,0.00919086392968893,-0.01853615790605545,-0.2894170582294464,0.49585485458374023,-1.0093138217926025,-9.715675354003906
1745730761.208182,0.006546884775161743,-0.02106950245797634,-0.2863636314868927,0.3718107342720032,-0.7133186459541321,-9.878005981445312
1745730761.237498,0.025393972173333168,-0.018002845346927643,-0.28741177916526794,0.416170209646225,-0.9796040654182434,-9.852084159851074
1745730761.2397954,-0.00031304583535529673,-0.023919519037008286,-0.28657135367393494,0.48093199729919434,-0.8387491106987,-9.63005542755127
1745730761.241036,0.018700702115893364,-0.019729649648070335,-0.2850860357284546,0.35472115874290466,-0.9620709419250488,-9.714119911193848
1745730761.24348,-0.012315181083977222,-0.01868581771850586,-0.27779293060302734,0.4712222218513489,-0.983383059501648,-9.633316040039062
1745730761.2794123,-0.004841952584683895,-0.028615131974220276,-0.27822500467300415,0.36048373579978943,-0.678072988986969,-9.46552562713623
1745730761.2816074,-0.011550785973668098,-0.020895520225167274,-0.27732864022254944,0.49572938680648804,-1.157842993736267,-9.834332466125488
1745730761.283793,-0.011613553389906883,-0.021861344575881958,-0.2766163945198059,0.30027318000793457,-0.5818198919296265,-9.927480697631836
1745730761.2846062,-0.0033213570713996887,-0.018326904624700546,-0.2768673002719879,0.4849134385585785,-1.0577901601791382,-9.682506561279297
1745730761.2867427,-0.01962319016456604,-0.027071332558989525,-0.2766471207141876,0.4300389289855957,-0.7013962864875793,-9.567052841186523
1745730761.3243947,0.0005383938550949097,-0.02339206263422966,-0.2765365242958069,0.32133927941322327,-0.9086383581161499,-9.962221145629883
1745730761.330205,-0.018873218446969986,-0.020987456664443016,-0.2768093943595886,0.44831085205078125,-0.8911593556404114,-9.887018203735352
1745730761.3322961,-0.0060922750271856785,-0.022952092811465263,-0.2754943072795868,0.2975028157234192,-0.7762455940246582,-9.577642440795898
1745730761.3395972,-0.012394772842526436,-0.019992494955658913,-0.2743203341960907,0.5017454028129578,-1.0093520879745483,-9.601921081542969
1745730761.3692153,-0.01021952647715807,-0.025851059705018997,-0.27468809485435486,0.27432557940483093,-0.5823048949241638,-9.804624557495117
1745730761.369316,-0.0076943025924265385,-0.016690891236066818,-0.2761099934577942,0.4733836054801941,-1.0123684406280518,-9.936836242675781
1745730761.3709228,-0.00896722823381424,-0.020193718373775482,-0.27406007051467896,0.4535077214241028,-0.6127395629882812,-9.550498962402344
1745730761.373381,-0.0008678829181008041,-0.0225224606692791,-0.2752975821495056,0.3187629282474518,-0.8609299659729004,-9.703263282775879
1745730761.4096022,-0.00917623657733202,-0.02382270246744156,-0.277081161737442,0.5203694105148315,-0.8212874531745911,-9.908342361450195
1745730761.4112937,0.005422558635473251,-0.018920207396149635,-0.273325115442276,0.30716732144355774,-0.8384863138198853,-9.907682418823242
1745730761.4140122,-0.01172153651714325,-0.022879309952259064,-0.2734481394290924,0.5202428102493286,-1.0608396530151367,-9.596842765808105
1745730761.4147842,-0.010055676102638245,-0.026524916291236877,-0.27095919847488403,0.33651503920555115,-0.8041095733642578,-9.650385856628418
1745730761.4165778,-0.014812355861067772,-0.01837453618645668,-0.26980480551719666,0.4059615731239319,-1.048567533493042,-9.908042907714844
1745730761.4547977,-0.007835548371076584,-0.01955847069621086,-0.2718958258628845,0.3583965301513672,-0.5487158894538879,-9.65967082977295
1745730761.4574277,-0.009109193459153175,-0.01886303350329399,-0.2726465165615082,0.3756159842014313,-0.9012893438339233,-9.596391677856445
1745730761.4574976,-0.01760060153901577,-0.024385089054703712,-0.2730039060115814,0.5378226041793823,-0.7659300565719604,-9.744585037231445
1745730761.4592903,0.003088985802605748,-0.019555039703845978,-0.27260127663612366,0.31162431836128235,-0.7920408248901367,-10.018401145935059
1745730761.4936247,-0.0022798844147473574,-0.02419421635568142,-0.2689826190471649,0.42209967970848083,-0.48446351289749146,-9.807568550109863
1745730761.4956644,-0.0028213271871209145,-0.018361125141382217,-0.26820191740989685,0.44960206747055054,-0.9697673916816711,-9.842692375183105
1745730761.4960127,-0.007919983007013798,-0.024691885337233543,-0.2693861424922943,0.3977927565574646,-0.7206964492797852,-9.591751098632812
1745730761.5024521,0.0022649429738521576,-0.02257045917212963,-0.26991212368011475,0.30445656180381775,-0.824524998664856,-9.77851390838623
1745730761.5406299,-0.01701449416577816,-0.023026522248983383,-0.2685447633266449,0.4646318554878235,-0.9151450991630554,-9.840394973754883
1745730761.5447888,0.0037820865400135517,-0.019371170550584793,-0.26935315132141113,0.31206387281417847,-0.7046774625778198,-9.701823234558105
1745730761.5484567,-0.010575111024081707,-0.02130495198071003,-0.2694907486438751,0.48142117261886597,-0.916552722454071,-9.686725616455078
1745730761.5531816,0.005831598304212093,-0.025485077872872353,-0.2651999592781067,0.45688071846961975,-0.5592765808105469,-9.724177360534668
1745730761.5534685,0.013528998009860516,-0.023197945207357407,-0.25964340567588806,0.10041733831167221,-1.1296117305755615,-9.975645065307617
1745730761.58431,0.018926771357655525,-0.0278665479272604,-0.25220680236816406,-0.2625085413455963,-0.9379078149795532,-9.680644035339355
1745730761.5867627,-0.016819484531879425,-0.033430587500333786,-0.23768384754657745,0.17336158454418182,-1.5417636632919312,-9.404790878295898
1745730761.588959,-0.04859988018870354,-0.03237968310713768,-0.22905194759368896,-0.7871020436286926,-1.1223591566085815,-10.14404582977295
1745730761.5905159,-0.05080334097146988,-0.031999051570892334,-0.23331621289253235,-0.40912336111068726,-0.6749019622802734,-9.5399169921875
1745730761.6286871,-0.08531635254621506,-0.02843964658677578,-0.09459327161312103,0.38808995485305786,-0.5322967767715454,-6.1880974769592285
1745730761.6301947,-0.054451506584882736,-0.09102548658847809,-0.08492263406515121,0.5480698943138123,-0.038637638092041016,-8.0870361328125
1745730761.63236,-0.052236419171094894,-0.06840310245752335,-0.08338718116283417,0.49595707654953003,-0.6271625757217407,-13.499485969543457
1745730761.6381881,-0.051140278577804565,-0.016416609287261963,-0.07777076959609985,-0.10513351112604141,-0.9257901310920715,-11.889913558959961
1745730761.6685514,-0.02476530335843563,-0.022134747356176376,-0.06991814076900482,-0.4210267663002014,-0.7535334825515747,-6.1793694496154785
1745730761.6710315,-0.13482972979545593,-0.06721685826778412,-0.06418637931346893,0.14545349776744843,-1.0028849840164185,-7.5335822105407715
1745730761.6749842,-0.09873580932617188,-0.05183235555887222,-0.061182208359241486,0.36549264192581177,-0.8532363176345825,-12.873220443725586
1745730761.6768525,-0.14346635341644287,0.015557807870209217,-0.06309117376804352,0.5159634351730347,-0.9291045069694519,-12.057195663452148
1745730761.6795301,-0.15185953676700592,-0.020059170201420784,-0.0566837415099144,0.523044228553772,-0.7796598672866821,-7.22747802734375
1745730761.7124927,-0.17912611365318298,-0.0549759678542614,-0.046994294971227646,0.7355693578720093,-0.8053069114685059,-8.1360445022583
1745730761.7159443,-0.18425290286540985,-0.03944240137934685,-0.03379987180233002,0.47312450408935547,-0.639223039150238,-12.502084732055664
1745730761.7203205,-0.14880242943763733,0.009930126368999481,-0.027205979451537132,0.22460797429084778,-0.4085419774055481,-11.465422630310059
1745730761.7241447,-0.14133791625499725,-0.005915825255215168,-0.01697862334549427,-0.09811346977949142,0.08674539625644684,-7.3840155601501465
1745730761.7521853,-0.11040323972702026,-0.028477761894464493,-0.010523421689867973,0.1601489782333374,0.28239983320236206,-7.9377570152282715
1745730761.7545035,-0.09533479809761047,-0.013207699172198772,-0.0072372471913695335,0.556170642375946,0.04051956534385681,-12.027396202087402
1745730761.7556598,-0.05267009884119034,0.01879129931330681,-0.009662456810474396,0.4663317799568176,0.04320313781499863,-11.701798439025879
1745730761.7619896,-0.0675809234380722,0.01375789474695921,-0.0021776845678687096,0.6731530427932739,-0.7571506500244141,-8.066780090332031
1745730761.7633939,-0.0920778289437294,-0.011272700503468513,0.011735987849533558,0.5391355156898499,-0.7541502118110657,-8.160165786743164
1745730761.794961,-0.10634826123714447,0.0016674778889864683,0.021919643506407738,0.8132650256156921,-0.9987050294876099,-11.436269760131836
1745730761.7964787,-0.1290569305419922,0.026552867144346237,0.031210478395223618,0.6149686574935913,-0.7468225359916687,-11.289118766784668
1745730761.7983325,-0.11627133190631866,0.03207237273454666,0.03862405940890312,0.23337297141551971,-0.4785909056663513,-8.558237075805664
1745730761.8005657,-0.15281882882118225,0.005918735638260841,0.04247839003801346,0.2680397629737854,-0.23390741646289825,-8.273641586303711
1745730761.8404052,-0.1204112321138382,0.01582968980073929,0.04254455119371414,0.1711742877960205,-0.08247388899326324,-10.728204727172852
1745730761.844897,-0.12586179375648499,0.040970414876937866,0.07578786462545395,0.43146029114723206,-0.6452487707138062,-10.060567855834961
1745730761.8466985,-0.12083089351654053,0.05196108669042587,0.08347615599632263,0.6778894662857056,-0.6752036213874817,-10.993290901184082
1745730761.8491254,-0.14633703231811523,0.050457049161195755,0.0862344279885292,0.6904751658439636,-0.46677365899086,-9.722034454345703
1745730761.8521404,-0.1337088793516159,0.04754939302802086,0.08986307680606842,0.29650160670280457,-0.3170103430747986,-8.960217475891113
1745730761.8837292,-0.18382978439331055,0.04700322076678276,0.09098995476961136,0.4170943796634674,-0.554513692855835,-9.769210815429688
1745730761.8846745,-0.1636987030506134,0.04865677282214165,0.09547784924507141,0.43872493505477905,-0.2080790251493454,-10.39726448059082
1745730761.887015,-0.17744958400726318,0.060261040925979614,0.09882167726755142,0.43038272857666016,-0.39781856536865234,-9.98012638092041
1745730761.888433,-0.17081210017204285,0.05854853242635727,0.105226531624794,0.20955559611320496,0.036968059837818146,-9.242050170898438
1745730761.9300091,-0.14856994152069092,0.052411794662475586,0.11166727542877197,0.4731418192386627,-0.134281188249588,-9.414651870727539
1745730761.930078,-0.14387813210487366,0.05379420518875122,0.11874519288539886,0.6614723205566406,-0.03154825046658516,-10.231781959533691
1745730761.9313655,-0.10483267158269882,0.06384067237377167,0.1275087147951126,0.4630928039550781,-0.09413759410381317,-10.418251037597656
1745730761.9353638,-0.11456890404224396,0.06236783787608147,0.13238094747066498,0.38382488489151,-0.28542888164520264,-9.469405174255371
1745730761.9673247,-0.10399860143661499,0.058241087943315506,0.1379140019416809,0.2451661378145218,-0.16159968078136444,-8.96760368347168
1745730761.9727309,-0.1659073382616043,0.03243605047464371,0.2444641888141632,0.5390090942382812,-0.10799010097980499,-9.094697952270508
1745730761.975191,-0.17554910480976105,0.02087889239192009,0.24672338366508484,0.5678452849388123,0.1856694221496582,-9.962946891784668
1745730761.9768891,-0.16748057305812836,0.03332618623971939,0.24799072742462158,0.6476873159408569,-0.10524022579193115,-10.449792861938477
1745730762.0120833,-0.17852169275283813,0.030152341350913048,0.2514301836490631,0.5194779634475708,0.15020456910133362,-9.480401992797852
1745730762.014721,-0.17846854031085968,0.027846718207001686,0.2543885409832001,0.3151985704898834,0.15766961872577667,-8.996818542480469
1745730762.018556,-0.19440917670726776,0.013383674435317516,0.25589609146118164,0.6587709784507751,0.10894668102264404,-9.748361587524414
1745730762.020242,-0.1767091453075409,0.020771320909261703,0.2550666928291321,0.532011866569519,0.3846701979637146,-10.402405738830566
1745730762.0224688,-0.17878925800323486,0.025890758261084557,0.258147656917572,0.508217453956604,0.11026859283447266,-9.824654579162598
1745730762.054947,-0.17848829925060272,0.011354790069162846,0.26003360748291016,0.36675921082496643,0.45221152901649475,-9.015522956848145
1745730762.058723,-0.16770489513874054,0.012355975806713104,0.2619229853153229,0.5779670476913452,0.0597953125834465,-9.605816841125488
1745730762.0601072,-0.17550846934318542,0.01036796160042286,0.2663908004760742,0.5835718512535095,0.44224923849105835,-10.221888542175293
1745730762.061398,-0.15857544541358948,0.0178631991147995,0.26687827706336975,0.4538652300834656,0.19354785978794098,-10.002311706542969
1745730762.0983624,-0.17029960453510284,0.004849088843911886,0.26926469802856445,0.5853503942489624,0.3939064145088196,-9.172700881958008
1745730762.099991,-0.15738257765769958,0.0015411053318530321,0.27028894424438477,0.38091522455215454,0.30260512232780457,-9.534773826599121
1745730762.1020546,-0.1693020612001419,0.005589948035776615,0.27258995175361633,0.6353555917739868,0.15970094501972198,-10.131513595581055
1745730762.1047883,-0.16226425766944885,0.004690586123615503,0.2722049355506897,0.4488615095615387,0.34429246187210083,-9.978899002075195
1745730762.1392055,-0.16920095682144165,0.0033851347398012877,0.27537834644317627,0.5131974220275879,0.07705860584974289,-9.2899751663208
1745730762.1428127,-0.17771399021148682,-0.005287543870508671,0.2748795449733734,0.5212658643722534,0.3643047511577606,-9.433487892150879
1745730762.1455631,-0.16726145148277283,-0.002073408802971244,0.2782788872718811,0.5048434138298035,0.19268888235092163,-10.224863052368164
1745730762.1471565,-0.18297280371189117,-0.003575547831133008,0.2805140018463135,0.5738609433174133,0.3230389952659607,-9.999479293823242
1745730762.149185,-0.16113440692424774,-0.0014232660178095102,0.2821541726589203,0.4290919303894043,0.3517990708351135,-9.31023120880127
1745730762.1830916,-0.17750941216945648,-0.010651184245944023,0.2843593955039978,0.5659149289131165,0.3025690019130707,-9.470980644226074
1745730762.1883378,-0.16168788075447083,-0.02121538296341896,0.2930195927619934,0.6119549870491028,0.5538201928138733,-10.029143333435059
1745730762.1883945,-0.15231779217720032,-0.012157679535448551,0.29301467537879944,0.5101718306541443,0.26614171266555786,-10.118476867675781
1745730762.1923501,-0.1640765368938446,-0.016857417300343513,0.294403612613678,0.5448150038719177,0.34614279866218567,-9.508488655090332
1745730762.2280972,-0.15690095722675323,-0.021055933088064194,0.296612948179245,0.35981208086013794,0.5022337436676025,-9.383146286010742
1745730762.2314496,-0.16917021572589874,-0.024300675839185715,0.2976435422897339,0.5725379586219788,0.18389661610126495,-9.952890396118164
1745730762.235483,-0.15563061833381653,-0.020827345550060272,0.2988787889480591,0.4565764367580414,0.6000963449478149,-10.031900405883789
1745730762.2387283,-0.15803691744804382,-0.01926625892519951,0.2994130551815033,0.4348507821559906,0.31392499804496765,-9.682252883911133
1745730762.2691941,-0.16180095076560974,-0.028268083930015564,0.30222171545028687,0.3430269658565521,0.5486084222793579,-9.42233943939209
1745730762.2699401,-0.14876018464565277,-0.02396608330309391,0.3032125234603882,0.4923470914363861,0.3829118311405182,-9.753381729125977
1745730762.2743247,-0.16769838333129883,-0.02404761128127575,0.30409950017929077,0.6088836193084717,0.39725035429000854,-10.092680931091309
1745730762.2782903,-0.1441008746623993,-0.024815429002046585,0.3060174882411957,0.36633676290512085,0.4996096193790436,-9.81578254699707
1745730762.2795076,-0.17057709395885468,-0.02814602293074131,0.30693456530570984,0.5751720666885376,0.2517280578613281,-9.51663589477539
1745730762.3203595,-0.15311992168426514,-0.027955293655395508,0.30967652797698975,0.3933536112308502,0.6371124386787415,-9.67755126953125
1745730762.3204846,-0.1366942971944809,-0.028301522135734558,0.3391537070274353,0.4422587752342224,0.8856828808784485,-9.715181350708008
1745730762.3220527,-0.13204631209373474,-0.025784024968743324,0.3403821885585785,0.4372989535331726,0.513197660446167,-10.038206100463867
1745730762.358286,-0.14041349291801453,-0.025857487693428993,0.3413998484611511,0.40155187249183655,0.768974781036377,-9.805009841918945
1745730762.3585558,-0.1295987367630005,-0.023168940097093582,0.3418198823928833,0.4658733904361725,0.6984480619430542,-9.568272590637207
1745730762.359747,-0.14933153986930847,-0.027096819132566452,0.3421928286552429,0.5049341917037964,0.7557122111320496,-9.827898025512695
1745730762.3619819,-0.12239345163106918,-0.023695414885878563,0.3445841372013092,0.26899346709251404,0.9314786195755005,-10.012983322143555
1745730762.364995,-0.1390370875597,-0.020514702424407005,0.34292086958885193,0.49368715286254883,0.6268181800842285,-9.777865409851074
1745730762.3980663,-0.12111566960811615,-0.025117749348282814,0.3430463671684265,0.3092709183692932,1.0505783557891846,-9.55328369140625
1745730762.4008439,-0.1316351592540741,-0.022321827709674835,0.34398210048675537,0.43601974844932556,0.6209932565689087,-9.835834503173828
1745730762.4050128,-0.12716715037822723,-0.025569017976522446,0.3432186245918274,0.39203381538391113,0.9487723112106323,-9.928407669067383
1745730762.4074585,-0.1196465715765953,-0.01893990859389305,0.3430490493774414,0.4727248251438141,0.729760468006134,-9.804878234863281
1745730762.4407778,-0.13200172781944275,-0.023891760036349297,0.3458936810493469,0.518429160118103,0.8001855611801147,-9.693673133850098
1745730762.4492517,-0.11454818397760391,-0.02213512919843197,0.3449929356575012,0.32490837574005127,0.8203393816947937,-9.817610740661621
1745730762.4523396,-0.13013526797294617,-0.026514526456594467,0.34726813435554504,0.559768557548523,0.7039887309074402,-9.888895034790039
1745730762.4524136,-0.11977709829807281,-0.02141694352030754,0.3484683334827423,0.3539310097694397,1.0032187700271606,-9.739750862121582
1745730762.4541962,-0.12083502113819122,-0.022512301802635193,0.3469133973121643,0.47985297441482544,0.7194346189498901,-9.708127975463867
1745730762.4861193,-0.12377903610467911,-0.028873685747385025,0.34837061166763306,0.40176740288734436,1.090228796005249,-9.829034805297852
1745730762.4959931,-0.10345149040222168,-0.021286915987730026,0.34383654594421387,0.43779832124710083,0.7887701988220215,-9.939451217651367
1745730762.4961314,-0.12047072499990463,-0.02336937189102173,0.34777799248695374,0.45244455337524414,1.073317050933838,-9.617487907409668
1745730762.4961808,-0.101793073117733,-0.025060828775167465,0.34420034289360046,0.37558045983314514,0.8096662759780884,-9.73524284362793
1745730762.5280957,-0.11447833478450775,-0.027743211016058922,0.34741532802581787,0.5694869756698608,0.8416125178337097,-9.852803230285645
1745730762.5315194,-0.09752189368009567,-0.02181077189743519,0.348050594329834,0.33232560753822327,0.9408220052719116,-9.881112098693848
1745730762.5348034,-0.09246671199798584,-0.023105798289179802,0.34903571009635925,0.35752978920936584,0.8675453066825867,-9.721250534057617
1745730762.536737,-0.10601842403411865,-0.027076054364442825,0.34598976373672485,0.4619387686252594,0.7493756413459778,-9.618464469909668
1745730762.5722227,-0.0891171544790268,-0.0249397624284029,0.34889671206474304,0.3973015546798706,0.9732977151870728,-9.721311569213867
1745730762.5739605,-0.1200326457619667,-0.023673539981245995,0.3484325408935547,0.5566238164901733,0.6804396510124207,-9.978882789611816
1745730762.5769815,-0.09357519447803497,-0.029406577348709106,0.34772419929504395,0.35722261667251587,1.1273090839385986,-9.729782104492188
1745730762.577118,-0.10263478755950928,-0.02480984665453434,0.3480985462665558,0.4723476469516754,0.7264457941055298,-9.61388874053955
1745730762.6225095,-0.09882273524999619,-0.026463359594345093,0.3494510054588318,0.4440118670463562,1.1644779443740845,-9.63834285736084
1745730762.6273296,-0.09071163833141327,-0.024473028257489204,0.3518528342247009,0.42021673917770386,0.799485981464386,-10.011497497558594
1745730762.6303751,-0.0912112444639206,-0.031231874600052834,0.34960630536079407,0.4866836667060852,1.1117851734161377,-9.742375373840332
1745730762.6339867,-0.077970489859581,-0.025304850190877914,0.35081177949905396,0.3447330594062805,0.9551678895950317,-9.621244430541992
1745730762.6552694,-0.09420056641101837,-0.029542196542024612,0.3487168252468109,0.48217082023620605,0.9442648887634277,-9.69804859161377
1745730762.6583486,-0.07711361348628998,-0.02969670295715332,0.34699496626853943,0.34385228157043457,1.0379362106323242,-9.853080749511719
1745730762.6611652,-0.08888538926839828,-0.025711243972182274,0.34687525033950806,0.5474045872688293,0.7342160940170288,-9.776247024536133
1745730762.6659193,-0.05492601543664932,-0.0359368659555912,0.3506084382534027,0.3822801411151886,0.8548113703727722,-9.675300598144531
1745730762.70054,-0.06307955086231232,-0.04429103061556816,0.3491688072681427,0.48197412490844727,1.1525261402130127,-9.723016738891602
1745730762.7057865,-0.04241950064897537,-0.035592835396528244,0.34722980856895447,0.3661455512046814,1.0497907400131226,-9.827844619750977
1745730762.7123454,-0.06470538675785065,-0.03675505518913269,0.3485223352909088,0.4289775788784027,1.0097663402557373,-9.688787460327148
1745730762.7132921,-0.04807233810424805,-0.04030320793390274,0.34801560640335083,0.255182683467865,1.1025351285934448,-9.556536674499512
1745730762.7145703,-0.05693896859884262,-0.03852470964193344,0.34870293736457825,0.5208341479301453,0.8158934712409973,-9.629143714904785
1745730762.744224,-0.057434000074863434,-0.03723719343543053,0.34764212369918823,0.4538658559322357,1.1697471141815186,-9.833955764770508
1745730762.7535367,-0.053206007927656174,-0.03505052998661995,0.3491732180118561,0.4011998176574707,0.8655472993850708,-9.886556625366211
1745730762.7536082,-0.05748165398836136,-0.04404451698064804,0.34893712401390076,0.379766047000885,1.1597217321395874,-9.54758358001709
1745730762.7536807,-0.04262387007474899,-0.032801367342472076,0.34818968176841736,0.40595149993896484,1.0500462055206299,-9.537148475646973
1745730762.78658,-0.06315883994102478,-0.03607463091611862,0.3514328598976135,0.47873297333717346,0.9930928349494934,-9.845632553100586
1745730762.7905273,-0.030305158346891403,-0.0389232374727726,0.34930890798568726,0.3202427625656128,1.253614902496338,-9.833882331848145
1745730762.7927346,-0.051992665976285934,-0.038187574595212936,0.3484686017036438,0.4812931418418884,0.8851100206375122,-9.640787124633789
1745730762.7927823,-0.03736048564314842,-0.037129465490579605,0.34877532720565796,0.2667626440525055,1.2789757251739502,-9.613268852233887
1745730762.827966,-0.04763039946556091,-0.034034211188554764,0.3481004238128662,0.43624815344810486,0.8416256904602051,-9.767576217651367
1745730762.8308296,-0.04658680409193039,-0.04406604543328285,0.34581440687179565,0.48003435134887695,1.1112735271453857,-9.745979309082031
1745730762.8325531,-0.04346683993935585,-0.03440072387456894,0.3472757935523987,0.42634764313697815,0.9663946032524109,-9.800776481628418
1745730762.8356543,-0.0523848831653595,-0.038950733840465546,0.3503819406032562,0.4602341651916504,1.0282644033432007,-9.670242309570312
1745730762.8407722,-0.03769642859697342,-0.03452689200639725,0.34899958968162537,0.2724613547325134,1.1038423776626587,-9.6154146194458
1745730762.8716798,-0.04815278947353363,-0.03891339898109436,0.35099557042121887,0.5351702570915222,0.9449159502983093,-9.710612297058105
1745730762.875734,-0.03743470832705498,-0.0332108810544014,0.3506709337234497,0.3130343556404114,1.2629492282867432,-9.800262451171875
1745730762.8794518,-0.03594524785876274,-0.03055505082011223,0.3489786684513092,0.4062180519104004,0.9439738392829895,-9.67260456085205
1745730762.8817954,-0.03772272914648056,-0.04036429524421692,0.34954434633255005,0.37244296073913574,1.302442193031311,-9.609946250915527
1745730762.9146748,-0.04235352575778961,-0.03671986982226372,0.3480909764766693,0.584537148475647,1.0095113515853882,-9.604753494262695
1745730762.9193661,-0.03524189442396164,-0.03304743394255638,0.3494269549846649,0.3035249710083008,1.0848194360733032,-9.860669136047363
1745730762.920985,-0.041769642382860184,-0.02885778620839119,0.34858477115631104,0.44575995206832886,0.8423163294792175,-9.819711685180664
1745730762.9236255,-0.03473421186208725,-0.03559752181172371,0.35046154260635376,0.3784005343914032,1.2320201396942139,-9.543048858642578
1745730762.9251792,-0.04094678536057472,-0.032307080924510956,0.3520079255104065,0.4667893350124359,0.9209977388381958,-9.69318962097168
1745730762.9577746,-0.03666087985038757,-0.03475150838494301,0.34988218545913696,0.4357661306858063,1.2439576387405396,-9.841517448425293
1745730762.9597714,-0.030859434977173805,-0.0295098964124918,0.3494482636451721,0.29738849401474,1.0842517614364624,-9.90111255645752
1745730762.9625537,-0.03686324506998062,-0.031610578298568726,0.3480868935585022,0.39870110154151917,1.0328094959259033,-9.569772720336914
1745730762.9640148,-0.02134348824620247,-0.0320664718747139,0.34731677174568176,0.3021807372570038,1.2441256046295166,-9.4651460647583
1745730763.0045671,-0.04182969033718109,-0.031807802617549896,0.3469161093235016,0.5025153160095215,0.898070216178894,-9.892064094543457
1745730763.0081444,-0.0252605639398098,-0.032729532569646835,0.34781700372695923,0.3491217792034149,1.2620089054107666,-9.942564010620117
1745730763.012354,-0.029906217008829117,-0.025793958455324173,0.34693965315818787,0.4276151657104492,0.8679370880126953,-9.61119556427002
1745730763.0225198,-0.034129440784454346,-0.028026610612869263,0.3495160937309265,0.40649494528770447,1.2156932353973389,-9.425397872924805
1745730763.0489657,0.011115157045423985,-0.02287229150533676,0.345877468585968,0.2964221239089966,1.1163134574890137,-9.78759479522705
1745730763.052375,0.005186502821743488,-0.019255882129073143,0.3442724347114563,0.44275814294815063,1.0564053058624268,-9.80717945098877
1745730763.0540442,0.016111964359879494,-0.018425719812512398,0.3420027196407318,0.320724755525589,1.2421411275863647,-9.642925262451172
1745730763.0578687,0.0014281406765803695,-0.02206987701356411,0.34377437829971313,0.4803687632083893,0.8219192624092102,-9.72329330444336
1745730763.0925581,0.01552639901638031,-0.02613748051226139,0.3424918055534363,0.39077818393707275,1.225414514541626,-9.747053146362305
1745730763.0928938,0.00788311380892992,-0.01485028862953186,0.3463394343852997,0.4129861891269684,0.8253992795944214,-9.82451057434082
1745730763.093035,0.0033592120744287968,-0.018176740035414696,0.3473231792449951,0.35950860381126404,1.1824089288711548,-9.563993453979492
1745730763.0942733,0.020052429288625717,-0.02054021880030632,0.34634581208229065,0.40077120065689087,0.9024624824523926,-9.74071979522705
1745730763.0943644,0.004127614200115204,-0.024662528187036514,0.34769943356513977,0.49919843673706055,1.1983028650283813,-9.777449607849121
1745730763.1298645,0.02412320300936699,-0.016448333859443665,0.34604543447494507,0.28261545300483704,1.1716787815093994,-9.857282638549805
1745730763.137519,0.007847142405807972,-0.01932559907436371,0.34469175338745117,0.41007137298583984,0.9827306866645813,-9.678422927856445
1745730763.1710548,0.022333761677145958,-0.02425466850399971,0.34610074758529663,0.3276529312133789,1.159247875213623,-9.576696395874023
1745730763.1764004,0.014881089329719543,-0.019100520759820938,0.3453149199485779,0.49708685278892517,0.9112149477005005,-9.769987106323242
1745730763.1774127,0.008220857009291649,-0.021779606118798256,0.34401434659957886,0.37382394075393677,1.1517093181610107,-9.92507266998291
1745730763.1785505,0.0256003737449646,-0.01808597706258297,0.34568437933921814,0.37611183524131775,1.0012069940567017,-9.665657997131348
1745730763.1786,0.009473972022533417,-0.024228068068623543,0.3454725742340088,0.4117969572544098,1.0640122890472412,-9.496273040771484
1745730763.1799674,0.024794917553663254,-0.017207864671945572,0.34577304124832153,0.3442689776420593,1.060896635055542,-9.773849487304688
1745730763.1819994,0.01316309254616499,-0.019958004355430603,0.34775274991989136,0.468620628118515,0.9108710289001465,-9.940428733825684
1745730763.2240589,0.036348212510347366,-0.021699748933315277,0.3468635082244873,0.3008360266685486,1.3305314779281616,-9.650675773620605
1745730763.2259648,0.021401342004537582,-0.02018825337290764,0.3458302915096283,0.45257776975631714,0.8418499827384949,-9.683924674987793
1745730763.2283163,0.029866278171539307,-0.024137159809470177,0.3456982970237732,0.30418333411216736,1.2718329429626465,-9.77170467376709
1745730763.2395084,0.025865182280540466,-0.016927605494856834,0.34435102343559265,0.4032939374446869,0.8336308598518372,-9.81820011138916
1745730763.2618184,0.016274774447083473,-0.0226532444357872,0.34610480070114136,0.5629725456237793,0.9381999969482422,-9.52983570098877
1745730763.264678,0.016195818781852722,-0.026143616065382957,0.3465575873851776,0.33407652378082275,1.2030863761901855,-9.847631454467773
1745730763.2657313,0.03657740354537964,-0.02177882008254528,0.3446652293205261,0.4148692190647125,1.0209438800811768,-9.906942367553711
1745730763.2688584,0.02602740190923214,-0.026333380490541458,0.3429076075553894,0.3691704273223877,1.211179494857788,-9.592653274536133
1745730763.304385,0.04255067929625511,-0.02408147044479847,0.34210270643234253,0.31728774309158325,0.9581522941589355,-9.694040298461914
1745730763.307822,0.0204226803034544,-0.02380143292248249,0.3420009911060333,0.44409942626953125,1.034512996673584,-9.729925155639648
1745730763.3137527,0.03837519511580467,-0.025432664901018143,0.3434893488883972,0.3317408561706543,0.9233394861221313,-9.765528678894043
1745730763.3138094,0.016969915479421616,-0.025184262543916702,0.34252414107322693,0.5847892165184021,0.9040581583976746,-9.674171447753906
1745730763.3466837,0.030245091766119003,-0.025885585695505142,0.34208688139915466,0.3298497200012207,1.1342999935150146,-9.778360366821289
1745730763.3497646,0.022204820066690445,-0.020674344152212143,0.34368568658828735,0.38694363832473755,0.8175538182258606,-9.787768363952637
1745730763.3524394,0.028985951095819473,-0.029168423265218735,0.34375083446502686,0.38883844017982483,1.1367223262786865,-9.555429458618164
1745730763.3549619,0.026258742436766624,-0.020390067249536514,0.3430076241493225,0.4314034581184387,0.8961416482925415,-9.732600212097168
1745730763.3599548,0.023875635117292404,-0.028764214366674423,0.3446173667907715,0.4239632487297058,1.0728402137756348,-9.839407920837402
1745730763.3887358,0.03837312012910843,-0.024047061800956726,0.3429432809352875,0.3171532154083252,1.0239191055297852,-9.825920104980469
1745730763.3912947,0.02102445438504219,-0.02864399179816246,0.3452206254005432,0.40502744913101196,0.8600547909736633,-9.747220993041992
1745730763.3937137,0.04686044901609421,-0.026606768369674683,0.34521788358688354,0.3493178188800812,0.9705001711845398,-9.638476371765137
1745730763.3968928,0.013534260913729668,-0.025263702496886253,0.3455371558666229,0.5417838096618652,0.7145290374755859,-9.744020462036133
1745730763.436219,0.030804717913269997,-0.028551552444696426,0.3466825783252716,0.31166067719459534,1.007954478263855,-9.8448486328125
1745730763.436285,0.02107669785618782,-0.023905877023935318,0.3451971411705017,0.41688448190689087,0.7062541842460632,-9.784150123596191
1745730763.4379473,0.020505044609308243,-0.02976812981069088,0.3463607728481293,0.4159197211265564,1.0751497745513916,-9.606597900390625
1745730763.4398208,0.021462025120854378,-0.021992720663547516,0.34723609685897827,0.37978091835975647,0.7383905649185181,-9.80711555480957
1745730763.448405,0.019289420917630196,-0.02808191440999508,0.3462880253791809,0.40573850274086,1.0185573101043701,-9.743205070495605
1745730763.4794714,0.024757664650678635,-0.027744200080633163,0.3481861650943756,0.29420894384384155,0.8270316123962402,-9.751288414001465
1745730763.4795892,0.019821034744381905,-0.024349521845579147,0.3475464880466461,0.4478207230567932,0.9145668148994446,-9.693341255187988
1745730763.480904,0.025761762633919716,-0.025443371385335922,0.34796738624572754,0.2941930592060089,1.0725363492965698,-9.732504844665527
1745730763.484632,0.019721172749996185,-0.0281749926507473,0.3450063467025757,0.4965764582157135,0.6911484599113464,-9.82418441772461
1745730763.5227635,0.024686062708497047,-0.028709014877676964,0.3476172089576721,0.41396564245224,1.1423145532608032,-9.747706413269043
1745730763.5238872,0.023949140682816505,-0.021132424473762512,0.34538164734840393,0.39505594968795776,0.6950376033782959,-9.771677017211914
1745730763.5269363,0.016420165076851845,-0.02863716147840023,0.3476863503456116,0.35865962505340576,0.9249023199081421,-9.617841720581055
1745730763.5294974,0.03413555026054382,-0.02689112164080143,0.3486807942390442,0.4147763252258301,0.852408230304718,-9.7179594039917
1745730763.5599492,0.004807149060070515,-0.02411016821861267,0.34781336784362793,0.4772133231163025,0.8972137570381165,-9.85932731628418
1745730763.5617611,0.03500371426343918,-0.026341378688812256,0.34987324476242065,0.2971054017543793,0.9754629135131836,-9.790935516357422
1745730763.5659258,0.012137917801737785,-0.02811380662024021,0.3473502993583679,0.5070812702178955,0.7794273495674133,-9.682554244995117
1745730763.5669017,0.027427896857261658,-0.02571885660290718,0.3469509184360504,0.31650644540786743,1.0545011758804321,-9.756382942199707
1745730763.6029732,0.015586580149829388,-0.02246864326298237,0.34731054306030273,0.4125479757785797,0.6545590162277222,-9.780488967895508
1745730763.615229,0.016822120174765587,-0.020382143557071686,0.3502514660358429,0.4624432623386383,0.7233844995498657,-9.755764961242676
1745730763.6178904,0.009465014562010765,-0.02747349813580513,0.35040706396102905,0.32212626934051514,1.074087381362915,-9.709547996520996
1745730763.6221266,0.024812988936901093,-0.02316778339445591,0.34884747862815857,0.4037080705165863,0.6992498636245728,-9.804634094238281
1745730763.646305,0.009339414536952972,-0.02522938884794712,0.3492565155029297,0.4774124026298523,1.0498201847076416,-9.654767036437988
1745730763.64822,0.018229592591524124,-0.023082813248038292,0.34685102105140686,0.3239383101463318,0.8080970048904419,-9.89171314239502
1745730763.649923,0.01144371461123228,-0.03093385323882103,0.3472151458263397,0.5509223937988281,0.8641121983528137,-9.755752563476562
1745730763.6523645,0.02290625311434269,-0.0267109964042902,0.3479806184768677,0.3530242443084717,0.9609435796737671,-9.709329605102539
1745730763.6559997,0.01019581314176321,-0.02002791129052639,0.3496195077896118,0.41973772644996643,0.6525953412055969,-9.74438190460205
1745730763.6911097,0.021656697615981102,-0.02737683616578579,0.35129591822624207,0.31622856855392456,0.9273329973220825,-9.728261947631836
1745730763.6933746,0.01968248561024666,-0.024298492819070816,0.35274738073349,0.4864168167114258,0.7745842933654785,-9.718159675598145
1745730763.6968548,0.013186166062951088,-0.027293210849165916,0.349856436252594,0.42761898040771484,0.9900840520858765,-9.807507514953613
1745730763.7068534,0.027069684118032455,-0.022745996713638306,0.35138753056526184,0.332452654838562,0.8849039077758789,-9.879507064819336
1745730763.7353532,0.00827588327229023,-0.02657628059387207,0.34906744956970215,0.4311835765838623,0.7931105494499207,-9.684746742248535
1745730763.7393067,0.029514586552977562,-0.026011979207396507,0.3472214341163635,0.3345729112625122,0.9275456666946411,-9.59376335144043
1745730763.744607,0.007662964519113302,-0.02614716626703739,0.35174280405044556,0.33956271409988403,0.7140941619873047,-9.814263343811035
1745730763.7523766,-0.015589217655360699,-0.02762991189956665,0.3506496548652649,0.5691947937011719,0.7439746856689453,-9.79797649383545
1745730763.7782388,0.0011394907487556338,-0.022936459630727768,0.35373765230178833,0.341823548078537,0.8930885195732117,-9.740843772888184
1745730763.7802885,-0.011453473940491676,-0.021268758922815323,0.35353055596351624,0.42406338453292847,0.6510103344917297,-9.683979988098145
1745730763.7831018,-0.0005346191464923322,-0.030118713155388832,0.3529461920261383,0.35573655366897583,0.9772987365722656,-9.693942070007324
1745730763.7867687,-0.004356519319117069,-0.0199312474578619,0.35428231954574585,0.4023769497871399,0.7017739415168762,-9.85789966583252
1745730763.8202455,-0.002334885997697711,-0.026425983756780624,0.35370272397994995,0.3868590295314789,0.9852820634841919,-9.735909461975098
1745730763.8242772,0.004942434374243021,-0.025586167350411415,0.35288184881210327,0.3238447308540344,0.8829436302185059,-9.742228507995605
1745730763.8274276,-0.002951493952423334,-0.028042752295732498,0.3520359694957733,0.45536088943481445,0.764856219291687,-9.736016273498535
1745730763.8288202,0.010927224531769753,-0.021362844854593277,0.353303998708725,0.3313461244106293,0.914948582649231,-9.703737258911133
1745730763.8346872,-0.016470830887556076,-0.02636227011680603,0.3515409827232361,0.4667998254299164,0.5437970161437988,-9.845499992370605
1745730763.8726594,0.001179779996164143,-0.029702847823500633,0.3520674705505371,0.3934873640537262,0.9059979319572449,-9.746536254882812
1745730763.8727307,-0.01168307475745678,-0.02196608856320381,0.35624900460243225,0.4437478184700012,0.5600675344467163,-9.691752433776855
1745730763.8727753,-0.01803978718817234,-0.024787502363324165,0.3553020656108856,0.3455168902873993,0.9254592061042786,-9.661735534667969
1745730763.8728201,-0.0035945563577115536,-0.02430601976811886,0.35575565695762634,0.3619522154331207,0.6832997798919678,-9.828080177307129
1745730763.9057517,-0.021961478516459465,-0.025607099756598473,0.3561944365501404,0.48256349563598633,0.9048473238945007,-9.72182559967041
1745730763.9097931,0.003135675098747015,-0.023743854835629463,0.355106383562088,0.2922500967979431,0.8928335905075073,-9.738186836242676
1745730763.911583,-0.019461866468191147,-0.025943975895643234,0.3527998924255371,0.4099729061126709,0.7846201062202454,-9.792252540588379
1745730763.913855,-0.001092258607968688,-0.02444746531546116,0.3550984859466553,0.28066596388816833,0.9562200307846069,-9.726511001586914
1745730763.9163663,-0.008081447333097458,-0.02372920885682106,0.35535702109336853,0.4950644373893738,0.693330705165863,-9.649213790893555
1745730763.9494517,-0.009564787149429321,-0.026412853971123695,0.3540499806404114,0.37990501523017883,0.9782711267471313,-9.767692565917969
1745730763.9524508,-0.0035793432034552097,-0.024878349155187607,0.3525732159614563,0.366993248462677,0.6971856355667114,-9.891112327575684
1745730763.957097,-0.014146794565021992,-0.021921373903751373,0.3532570004463196,0.4268467426300049,0.5706219673156738,-9.84709644317627
1745730763.960246,-0.015586239285767078,-0.0288236141204834,0.35429078340530396,0.44890642166137695,0.9572896957397461,-9.636651992797852
1745730763.9905756,-0.012881899252533913,-0.02125733159482479,0.3540611267089844,0.379285991191864,0.7245462536811829,-9.773941040039062
1745730763.993936,-0.02306426875293255,-0.029767150059342384,0.3547946810722351,0.4269707202911377,0.821729302406311,-9.805463790893555
1745730763.9980676,-0.006259799003601074,-0.024640167132019997,0.3533446192741394,0.23128843307495117,0.9121095538139343,-9.741456031799316
1745730763.999965,-0.018737975507974625,-0.023498307913541794,0.35451897978782654,0.512356162071228,0.7172812223434448,-9.578509330749512
1745730764.0025487,-0.005862371996045113,-0.025615110993385315,0.3582310378551483,0.33959439396858215,0.9957844614982605,-9.707710266113281
1745730764.0402172,-0.00400878582149744,-0.02584744058549404,0.3550158143043518,0.46874362230300903,0.740667998790741,-9.932332992553711
1745730764.043713,-0.0061233751475811005,-0.02880515530705452,0.3560660481452942,0.43723517656326294,0.9351271390914917,-9.801298141479492
1745730764.0477033,0.0012495855335146189,-0.020844731479883194,0.35464638471603394,0.33490893244743347,0.7877359390258789,-9.674442291259766
1745730764.0499907,-0.02145535685122013,-0.028650442138314247,0.35566845536231995,0.43135935068130493,0.7976418733596802,-9.593754768371582
1745730764.0776582,0.0002518521505407989,-0.02868393436074257,0.3546215295791626,0.3429560661315918,0.754611611366272,-9.798431396484375
1745730764.0809486,-0.02781802788376808,-0.02552971802651882,0.35292327404022217,0.5001373291015625,0.6853501796722412,-9.876689910888672
1745730764.085868,-0.01067335344851017,-0.026562580838799477,0.3555740714073181,0.2865026891231537,0.8654548525810242,-9.694376945495605
1745730764.0882862,0.10325632244348526,-0.0399746373295784,0.3042898178100586,-0.4342283308506012,0.5869956016540527,-9.942816734313965
1745730764.1223397,0.026428688317537308,-0.01098127942532301,0.3053693175315857,-0.33363381028175354,0.20259436964988708,-9.741020202636719
1745730764.1264265,0.029835756868124008,-0.054514847695827484,0.3061007261276245,0.18319039046764374,0.010592794045805931,-9.394941329956055
1745730764.1295993,0.029967892915010452,-0.05345524474978447,0.3048703372478485,0.47532129287719727,0.05571845918893814,-9.7512845993042
1745730764.1335738,-0.05232157185673714,-0.04363996535539627,0.3008332848548889,0.024081885814666748,0.14879174530506134,-10.709061622619629
1745730764.162307,-0.06123799830675125,-0.05067618936300278,0.29124438762664795,-0.0804775282740593,0.009578746743500233,-9.685945510864258
1745730764.1655004,-0.09677433967590332,-0.06414792686700821,0.283199280500412,0.1259673535823822,0.4740917682647705,-8.703954696655273
1745730764.166878,-0.1362815648317337,-0.0709686130285263,0.27404671907424927,-0.19014933705329895,1.0790201425552368,-9.985552787780762
1745730764.1690142,-0.10434260219335556,-0.062324486672878265,0.265418142080307,-0.17104193568229675,0.8732953071594238,-10.826011657714844
1745730764.1737401,-0.06383831799030304,-0.0563475675880909,0.2563651204109192,-0.11514369398355484,1.9298410415649414,-9.279905319213867
1745730764.2061365,-0.04363736882805824,-0.0695994645357132,0.25270065665245056,0.13614371418952942,1.4163161516189575,-9.04679012298584
1745730764.2084684,0.016758745536208153,-0.08858337253332138,0.2505452036857605,0.1515411138534546,1.5766574144363403,-10.340578079223633
1745730764.2107408,0.08430145680904388,-0.06252845376729965,0.25122731924057007,-0.11299959570169449,1.3945790529251099,-10.624921798706055
1745730764.2118454,0.08610861003398895,-0.06381388008594513,0.25236576795578003,-0.018135270103812218,1.0352137088775635,-9.295782089233398
1745730764.2499032,0.12475719302892685,-0.08015559613704681,0.25422781705856323,-0.13347434997558594,0.9926055669784546,-8.854500770568848
1745730764.2531097,0.10182877629995346,-0.08254121243953705,0.2502508759498596,-0.11255919933319092,0.561600923538208,-10.271686553955078
1745730764.255821,0.09890542179346085,-0.0646011158823967,0.23679101467132568,-0.36815792322158813,0.758879542350769,-10.543983459472656
1745730764.25875,0.03749723732471466,-0.07433860749006271,0.22247913479804993,-0.06776855885982513,-0.00860699824988842,-9.244058609008789
1745730764.26103,-0.017373833805322647,-0.09090881794691086,0.21618595719337463,0.03992446884512901,0.0020429908763617277,-9.231966018676758
1745730764.2932851,-0.06814471632242203,-0.09279771149158478,0.21680526435375214,-0.03345547989010811,0.009541487321257591,-10.543600082397461
1745730764.295016,-0.05940398573875427,-0.05266989395022392,0.21712236106395721,0.06205124408006668,0.34814104437828064,-10.217772483825684
1745730764.2965171,-0.055268675088882446,-0.07192429155111313,0.2147367000579834,0.7396392226219177,1.1635124683380127,-8.692573547363281
1745730764.3351138,0.10674931854009628,-0.07991857826709747,0.20486590266227722,-0.05013580992817879,0.958890438079834,-9.35067081451416
1745730764.341149,0.12089027464389801,-0.06896442919969559,0.18084517121315002,0.15608468651771545,1.6317917108535767,-11.14649772644043
1745730764.3418221,0.1395663172006607,-0.04356527328491211,0.15612654387950897,0.24124440550804138,1.2725160121917725,-10.13222599029541
1745730764.3429546,0.10002753883600235,-0.062075793743133545,0.15213291347026825,0.7106471061706543,0.14205136895179749,-8.637578010559082
1745730764.3463144,0.07716139405965805,-0.0837516337633133,0.15577583014965057,0.6984495520591736,-0.11309268325567245,-9.885812759399414
