timestamp,angular_vel_x,angular_vel_y,angular_vel_z,linear_acc_x,linear_acc_y,linear_acc_z
1745653915.5804565,0.017119403928518295,0.031010717153549194,-0.16054555773735046,0.8495790362358093,-0.22714444994926453,-9.437955856323242
1745653915.583381,0.002930637449026108,0.029280204325914383,-0.17072542011737823,0.6712509393692017,0.4715256094932556,-9.334444046020508
1745653915.5847645,0.014678573235869408,0.03120701014995575,-0.181178018450737,1.0046873092651367,0.3482021391391754,-9.790566444396973
1745653915.5852754,0.055048514157533646,0.025692056864500046,-0.18588291108608246,1.1308008432388306,0.4761149287223816,-9.876599311828613
1745653915.596773,0.04983185604214668,0.025585854426026344,-0.18819257616996765,0.7037084698677063,0.4106946885585785,-9.890892028808594
1745653915.6106784,0.07088859379291534,0.024959176778793335,-0.18925829231739044,0.6709703803062439,0.14846192300319672,-9.64415454864502
1745653915.6155872,0.11588408797979355,0.03953870013356209,-0.19538521766662598,0.4678021967411041,0.8201870918273926,-9.311030387878418
1745653915.619003,0.09895533323287964,0.04352528601884842,-0.20306596159934998,0.9396327137947083,0.8001100420951843,-9.531582832336426
1745653915.6414099,0.16510619223117828,0.03163706511259079,-0.21690690517425537,1.098633050918579,0.7886978983879089,-9.882503509521484
1745653915.6610487,0.1676941215991974,0.04120034724473953,-0.22578105330467224,0.9105914235115051,0.6391716003417969,-9.925641059875488
1745653915.6682317,0.1830039918422699,0.03447595238685608,-0.230926513671875,0.8379727602005005,-0.11866259574890137,-9.589376449584961
1745653915.6803722,0.1734558492898941,0.041807714849710464,-0.23049871623516083,0.5347514152526855,-0.21619024872779846,-9.40908432006836
1745653915.6824727,0.13143204152584076,0.03983406350016594,-0.25549015402793884,0.8553139567375183,-0.484441339969635,-9.940079689025879
1745653915.6920018,0.11333737522363663,0.04228374361991882,-0.2579803466796875,0.7539287805557251,-0.0341908298432827,-9.78151798248291
1745653915.6942356,0.10711954534053802,0.036582689732313156,-0.2595822513103485,1.0413691997528076,-0.3638920187950134,-9.624545097351074
1745653915.6947873,0.1277424395084381,0.0358523428440094,-0.2611474394798279,0.9040072560310364,0.42320895195007324,-9.647019386291504
1745653915.6973302,0.12452306598424911,0.03738587349653244,-0.2695832848548889,0.9309613108634949,0.06317438185214996,-9.886564254760742
1745653915.7330012,0.1514090895652771,0.03262602165341377,-0.2738088071346283,0.9059858322143555,0.41578859090805054,-9.746413230895996
1745653915.7362955,0.1506405621767044,0.0341920480132103,-0.2812615931034088,0.8166801333427429,0.20125949382781982,-9.713825225830078
1745653915.7384853,0.17978470027446747,0.02531450055539608,-0.28545182943344116,0.8920211791992188,0.21757765114307404,-9.747113227844238
1745653915.7421176,0.17806211113929749,0.034909237176179886,-0.28970372676849365,0.6466933488845825,0.21502277255058289,-9.781259536743164
1745653915.742994,0.20342640578746796,0.03372082859277725,-0.2917538583278656,0.8698993921279907,-0.12178154289722443,-9.53592300415039
1745653915.7773478,0.19457226991653442,0.02869221568107605,-0.2957206070423126,0.7517081499099731,0.10106146335601807,-9.462864875793457
1745653915.7787406,0.19410154223442078,0.03605011850595474,-0.30074554681777954,0.9786599278450012,-0.32600823044776917,-9.832433700561523
1745653915.7809782,0.20437626540660858,0.030308764427900314,-0.3033323884010315,0.9262354969978333,-0.07567255198955536,-9.867566108703613
1745653915.7832875,0.18281204998493195,0.028635388240218163,-0.30768638849258423,0.7201430201530457,-0.4109717905521393,-9.832586288452148
1745653915.8190472,0.18338963389396667,-0.017286259680986404,-0.3831034004688263,0.7503964304924011,-0.40812283754348755,-9.748525619506836
1745653915.8223815,0.1643913835287094,-0.024118077009916306,-0.38429322838783264,0.8893951177597046,-0.44857102632522583,-9.838510513305664
1745653915.824325,0.18292126059532166,-0.027091076597571373,-0.38577932119369507,0.7478021383285522,-0.5714734196662903,-9.909382820129395
1745653915.8276742,0.1685177981853485,-0.0190136581659317,-0.388059139251709,0.8181084394454956,-0.5497872233390808,-9.70128059387207
1745653915.8291092,0.1614145040512085,-0.03273548558354378,-0.38687577843666077,0.8422325849533081,-0.7026035785675049,-9.677032470703125
1745653915.8697505,0.15704412758350372,-0.02754918299615383,-0.38960006833076477,0.7492650747299194,-0.6035786867141724,-9.72569465637207
1745653915.8703747,0.1397058516740799,-0.023539379239082336,-0.389289528131485,0.8943380117416382,-0.7394953370094299,-9.773360252380371
1745653915.8715358,0.15002559125423431,-0.029042953625321388,-0.3913428783416748,0.6684263348579407,-0.4551829397678375,-9.726913452148438
1745653915.8734756,0.12526577711105347,-0.029349708929657936,-0.3950493633747101,0.9427223205566406,-0.5787044763565063,-9.71021842956543
1745653915.906037,0.14375299215316772,-0.032559074461460114,-0.39569249749183655,0.8246688842773438,-0.4985688328742981,-10.006025314331055
1745653915.9077055,0.1450200378894806,-0.026458347216248512,-0.3995361626148224,0.6798314452171326,-0.2648234963417053,-9.867141723632812
1745653915.910031,0.14421121776103973,-0.03804381936788559,-0.3986017107963562,0.8611892461776733,-0.6777281761169434,-9.567907333374023
1745653915.9113219,0.16603294014930725,-0.03039322793483734,-0.39926111698150635,0.6973547339439392,-0.23449401557445526,-9.595714569091797
1745653915.948818,0.14389601349830627,-0.035176437348127365,-0.40115946531295776,0.8504170179367065,-0.7315157651901245,-9.977669715881348
1745653915.9654937,0.17758555710315704,-0.03606625646352768,-0.39939385652542114,0.7528164386749268,-0.33196842670440674,-9.844305038452148
1745653915.9655604,0.1553010642528534,-0.03470183536410332,-0.40228062868118286,0.848929762840271,-0.6903135180473328,-9.722448348999023
1745653915.9660494,0.16991344094276428,-0.047254808247089386,-0.40375298261642456,0.7728376388549805,-0.5889131426811218,-9.839286804199219
1745653915.966096,0.1459387242794037,-0.038534827530384064,-0.40570569038391113,0.7625217437744141,-0.6803878545761108,-9.854641914367676
1745653915.9912422,0.14559891819953918,-0.040468744933605194,-0.40813201665878296,0.8602732419967651,-0.8751716613769531,-9.762080192565918
1745653915.9930463,0.1383483111858368,-0.041067469865083694,-0.40698784589767456,0.5991641283035278,-0.610429048538208,-9.57335376739502
1745653915.9945052,0.11456269025802612,-0.04622688144445419,-0.41043591499328613,0.9325491786003113,-0.8777311444282532,-9.700958251953125
1745653915.9964387,0.13325364887714386,-0.03929542750120163,-0.40894585847854614,0.7400649785995483,-0.5934808850288391,-9.888616561889648
1745653916.0377786,0.1322087198495865,-0.036034319549798965,-0.4146119952201843,0.7851537466049194,-0.787057101726532,-9.74040412902832
1745653916.038247,0.13155007362365723,-0.0483599416911602,-0.4133843779563904,0.759391188621521,-0.5365252494812012,-9.666303634643555
1745653916.0393085,0.12536540627479553,-0.041411392390728,-0.41519856452941895,0.7548336982727051,-0.6998401880264282,-9.835027694702148
1745653916.0421696,0.12762285768985748,-0.04285954311490059,-0.4179714322090149,0.8406696319580078,-0.7303991913795471,-9.884349822998047
1745653916.079765,0.12237368524074554,-0.04352053254842758,-0.4180488586425781,0.5635362863540649,-0.5937718749046326,-9.803857803344727
1745653916.0914645,0.12431659549474716,-0.047450773417949677,-0.4179854393005371,0.9006879925727844,-0.8867111206054688,-9.582690238952637
1745653916.091643,0.12056438624858856,-0.04497450590133667,-0.4170061945915222,0.6124330163002014,-0.5159269571304321,-9.781229019165039
1745653916.091772,0.11819714307785034,-0.04415377974510193,-0.4167991578578949,0.7128993272781372,-0.9115060567855835,-9.916181564331055
1745653916.091854,0.127692312002182,-0.048604127019643784,-0.41713008284568787,0.8026304244995117,-0.5987206697463989,-9.648429870605469
1745653916.1277292,0.11586511135101318,-0.04339069128036499,-0.41553202271461487,0.6164092421531677,-0.8493250012397766,-9.835329055786133
1745653916.1280065,0.1264549344778061,-0.05242549255490303,-0.41623538732528687,0.7964427471160889,-0.7204329967498779,-9.821577072143555
1745653916.1281354,0.10517255961894989,-0.04690591245889664,-0.4206109941005707,0.5365676879882812,-0.7323341369628906,-9.840768814086914
1745653916.1284547,0.11169718205928802,-0.04272831231355667,-0.41993507742881775,0.7029107809066772,-0.9686169624328613,-9.613443374633789
1745653916.1744027,0.1034339889883995,-0.05132453516125679,-0.42017436027526855,0.623986542224884,-0.7014449238777161,-9.504289627075195
1745653916.174559,0.05516350269317627,-0.03163226321339607,-0.4256008565425873,0.7451844215393066,-0.8075491786003113,-9.854320526123047
1745653916.174626,0.03943418711423874,-0.03405079245567322,-0.42603057622909546,0.5492488145828247,-0.7888545393943787,-9.76166820526123
1745653916.1785183,0.05701330304145813,-0.028183355927467346,-0.42740535736083984,0.6320163011550903,-0.9507796168327332,-9.60400676727295
1745653916.180088,0.04587912932038307,-0.04126715660095215,-0.4281094968318939,0.6695296168327332,-0.7184096574783325,-9.686014175415039
1745653916.2121327,0.04571863263845444,-0.03200447931885719,-0.4278091490268707,0.5239368677139282,-0.9785534143447876,-9.994110107421875
1745653916.2122767,0.05068586394190788,-0.028019389137625694,-0.42645660042762756,0.6739277243614197,-0.8291664123535156,-9.709660530090332
1745653916.2150147,0.0381987988948822,-0.03288429602980614,-0.4278288781642914,0.5688307285308838,-0.9609475135803223,-9.51623821258545
1745653916.2185886,0.04030735045671463,-0.03232317417860031,-0.4236474931240082,0.7566467523574829,-0.9865422248840332,-9.6673583984375
1745653916.2503924,0.030541077256202698,-0.033438947051763535,-0.42361998558044434,0.6656479835510254,-0.8954151272773743,-10.01531982421875
1745653916.256198,0.03659672290086746,-0.0252077579498291,-0.42510586977005005,0.5431162118911743,-0.8895092010498047,-9.861652374267578
1745653916.2562563,0.019193995743989944,-0.031351733952760696,-0.42248329520225525,0.6651177406311035,-0.8734556436538696,-9.441658020019531
1745653916.2563002,0.03002868965268135,-0.03248516470193863,-0.4245235025882721,0.5208024382591248,-0.8466575741767883,-9.627528190612793
1745653916.2965865,0.03260379284620285,-0.027041202411055565,-0.4250413477420807,0.6513098478317261,-0.7743101119995117,-9.851180076599121
1745653916.2981067,0.021895993500947952,-0.02579997479915619,-0.42502671480178833,0.5994867086410522,-0.8184906840324402,-9.843493461608887
1745653916.2982638,0.039640385657548904,-0.02272903546690941,-0.42530709505081177,0.6890825629234314,-0.8721953630447388,-9.473012924194336
1745653916.3003004,0.02336515113711357,-0.03463136777281761,-0.4225361943244934,0.6539446115493774,-0.85487300157547,-9.674623489379883
1745653916.302124,0.037885501980781555,-0.0240616537630558,-0.4226197600364685,0.583442211151123,-0.9619795083999634,-10.073545455932617
1745653916.3387384,0.026316285133361816,-0.025889774784445763,-0.4205927848815918,0.7048553228378296,-0.9016520380973816,-9.830938339233398
1745653916.3514574,0.02888103947043419,-0.028380250558257103,-0.4208424687385559,0.5342931747436523,-0.9341451525688171,-9.493401527404785
1745653916.351598,0.013415245339274406,-0.030288854613900185,-0.4232340455055237,0.7213341593742371,-0.9673447608947754,-9.623198509216309
1745653916.3823075,0.011667964980006218,-0.03242035582661629,-0.4193029999732971,0.6016375422477722,-0.9574333429336548,-10.011847496032715
1745653916.38552,0.01639154739677906,-0.022023677825927734,-0.420285165309906,0.6323086023330688,-0.9200437664985657,-9.746711730957031
1745653916.385724,0.014934423379600048,-0.02060449682176113,-0.41454458236694336,0.5740328431129456,-0.8285974264144897,-9.895883560180664
1745653916.3857818,0.0032993119675666094,-0.02813537046313286,-0.4153599739074707,0.7260497808456421,-0.939165472984314,-9.76089096069336
1745653916.3858304,0.011597482487559319,-0.023927683010697365,-0.41325893998146057,0.5160565376281738,-0.8355273008346558,-9.660933494567871
1745653916.4224646,-0.010028569027781487,-0.029398933053016663,-0.4140999913215637,0.7205146551132202,-0.9390140771865845,-9.722747802734375
1745653916.4247878,-0.0010235707741230726,-0.029349396005272865,-0.4137696325778961,0.5371004343032837,-0.9153560400009155,-9.862955093383789
1745653916.442386,0.005719834007322788,-0.019691064953804016,-0.4131564199924469,0.5605481266975403,-0.8647210001945496,-9.655503273010254
1745653916.4425182,-0.01237121969461441,-0.027221158146858215,-0.4141441285610199,0.6984373331069946,-0.8320908546447754,-9.55904769897461
1745653916.4425936,0.006489090621471405,-0.021878372877836227,-0.41300201416015625,0.5849027037620544,-0.865781307220459,-9.731289863586426
1745653916.4888394,-0.005705070216208696,-0.02843983843922615,-0.4126846194267273,0.6881576180458069,-0.7959975600242615,-9.876871109008789
1745653916.4889317,0.005391410551965237,-0.023178333416581154,-0.41094112396240234,0.5240235328674316,-0.8900520205497742,-9.850957870483398
1745653916.4890783,-0.0008077219827100635,-0.023678600788116455,-0.4104810655117035,0.6400924921035767,-0.8872462511062622,-9.619842529296875
1745653916.4891505,-0.000197265952010639,-0.03152405470609665,-0.40713104605674744,0.5874221324920654,-0.9027063250541687,-9.703065872192383
1745653916.508802,-0.007227581925690174,-0.02297467738389969,-0.40817350149154663,0.6388555765151978,-0.9159790277481079,-9.842994689941406
1745653916.5118513,-0.011738975532352924,-0.028490593656897545,-0.40666428208351135,0.6622205376625061,-0.9594511985778809,-9.750158309936523
1745653916.5125563,-0.021023547276854515,-0.021600773558020592,-0.39301902055740356,0.6503586769104004,-0.9358416795730591,-9.877856254577637
1745653916.5163662,-0.0160053800791502,-0.028244083747267723,-0.3913326859474182,0.5565942525863647,-0.8414767384529114,-9.657243728637695
1745653916.5538564,-0.026052147150039673,-0.022558894008398056,-0.3917282223701477,0.5471293330192566,-0.8164674639701843,-9.70324420928955
1745653916.5582514,-0.0353078730404377,-0.02557814121246338,-0.388221800327301,0.6561349630355835,-0.9236470460891724,-9.822710990905762
1745653916.5583177,-0.015039240010082722,-0.021761992946267128,-0.3902522921562195,0.4967542290687561,-0.7063835859298706,-9.831472396850586
1745653916.5624976,-0.0346246175467968,-0.026958370581269264,-0.3898420035839081,0.7578616738319397,-0.7533234357833862,-9.592150688171387
1745653916.5809772,-0.019262313842773438,-0.027852550148963928,-0.3904478847980499,0.5157635807991028,-0.6954970359802246,-9.694669723510742
1745653916.5962915,-0.018785517662763596,-0.019703878089785576,-0.3895800709724426,0.4893944263458252,-0.6575455069541931,-9.79967975616455
1745653916.606986,-0.01626603677868843,-0.02865063212811947,-0.3899615705013275,0.6449660658836365,-0.8042844533920288,-9.807765007019043
1745653916.6071486,-0.011268284171819687,-0.022769512608647346,-0.3870115280151367,0.4993404746055603,-0.7400530576705933,-9.724878311157227
1745653916.6072114,-0.015313458628952503,-0.03191428631544113,-0.3869478702545166,0.6333317756652832,-0.8745067715644836,-9.781999588012695
1745653916.6395404,-0.012992029078304768,-0.025630492717027664,-0.3852272629737854,0.4117264747619629,-0.7151250839233398,-9.817084312438965
1745653916.6428928,-0.019984398037195206,-0.021471304818987846,-0.3854704797267914,0.6475107073783875,-0.8901811838150024,-9.616751670837402
1745653916.6461,-0.009498477913439274,-0.029917782172560692,-0.3830583989620209,0.5933316946029663,-0.6104894876480103,-9.559399604797363
1745653916.6494489,-0.015807049348950386,-0.01959930919110775,-0.3860377371311188,0.5513104200363159,-0.715943455696106,-9.794496536254883
1745653916.6845,-0.01680493913590908,-0.024758240208029747,-0.38716450333595276,0.623007595539093,-0.7993863821029663,-9.866971969604492
1745653916.6846378,-0.007391360588371754,-0.017023196443915367,-0.3838125765323639,0.43464794754981995,-0.7449443936347961,-9.685709953308105
1745653916.6853561,-0.02055543102324009,-0.025154778733849525,-0.3813422620296478,0.6379988789558411,-0.875452995300293,-9.664631843566895
1745653916.6899483,-0.005136861465871334,-0.024691510945558548,-0.3828475773334503,0.4715443551540375,-0.6007664203643799,-9.8760404586792
1745653916.6899996,-0.015470045618712902,-0.020802069455385208,-0.3832336962223053,0.5821135640144348,-0.8334448933601379,-9.813366889953613
1745653916.7268615,-0.004130250308662653,-0.024984190240502357,-0.380805104970932,0.5711078643798828,-0.6275634765625,-9.622300148010254
1745653916.726899,-0.011381988413631916,-0.022532446309924126,-0.3827301859855652,0.5825769305229187,-0.7944290041923523,-9.6522855758667
1745653916.7303352,0.0018387853633612394,-0.017029669135808945,-0.3777444064617157,0.4500236511230469,-0.6814142465591431,-9.502799987792969
1745653916.733946,-0.005018744617700577,-0.028117910027503967,-0.3767050802707672,0.694502055644989,-0.8473817706108093,-9.726176261901855
1745653916.771894,0.0012879130663350224,-0.021767448633909225,-0.37672165036201477,0.41209086775779724,-0.6700934171676636,-10.009164810180664
1745653916.7810812,-0.0032398656476289034,-0.017631318420171738,-0.3754209876060486,0.6112894415855408,-0.9137523770332336,-9.810643196105957
1745653916.781205,-0.0024705377873033285,-0.02688029035925865,-0.3749088943004608,0.44531750679016113,-0.6027955412864685,-9.480215072631836
1745653916.785191,-0.010930093005299568,-0.021783411502838135,-0.3757201135158539,0.5919946432113647,-0.8233770132064819,-9.692021369934082
1745653916.7925193,-0.00019645951397251338,-0.02480499818921089,-0.37282630801200867,0.6125432848930359,-0.6833917498588562,-9.90483570098877
1745653916.81251,0.0028350118082016706,-0.016006506979465485,-0.37527984380722046,0.410838782787323,-0.6706651449203491,-9.747270584106445
1745653916.8166337,-0.0063645923510193825,-0.019689826294779778,-0.3745095431804657,0.6983348727226257,-0.8065258860588074,-9.506124496459961
1745653916.8242424,0.007869432680308819,-0.022347910329699516,-0.372673898935318,0.41484585404396057,-0.6102563738822937,-9.726194381713867
1745653916.8243349,-0.0021993189584463835,-0.019865119829773903,-0.3724629878997803,0.6263638734817505,-0.7781416177749634,-10.012353897094727
1745653916.8569312,0.012467995285987854,-0.02297033742070198,-0.37347525358200073,0.5315650701522827,-0.6593092679977417,-9.816329956054688
1745653916.8605142,0.006871200166642666,-0.019359877333045006,-0.37047821283340454,0.521012008190155,-0.8066034317016602,-9.623147964477539
1745653916.871985,0.003527827560901642,-0.028110777959227562,-0.37105992436408997,0.6045106649398804,-0.7344509959220886,-9.641101837158203
1745653916.8730814,0.0023142185527831316,-0.021448452025651932,-0.36306264996528625,0.5656198263168335,-0.8642541766166687,-9.678752899169922
1745653916.8977852,0.007117770612239838,-0.025833148509263992,-0.35939323902130127,0.5309546589851379,-0.6606732606887817,-9.749555587768555
1745653916.9021206,0.0007977255736477673,-0.016704590991139412,-0.36055439710617065,0.45078521966934204,-0.8055981397628784,-9.849169731140137
1745653916.902382,0.005483321379870176,-0.022656839340925217,-0.360259473323822,0.5977388620376587,-0.7232605218887329,-9.707517623901367
1745653916.91299,-0.005927919410169125,-0.02091888152062893,-0.3594839870929718,0.4749722480773926,-0.6240801215171814,-9.725638389587402
1745653916.9543095,-0.0034927476663142443,-0.021998703479766846,-0.36055973172187805,0.6320689916610718,-0.8069370985031128,-9.801466941833496
1745653916.9556236,0.007719515357166529,-0.02167273312807083,-0.36017856001853943,0.41213980317115784,-0.5993887186050415,-9.870617866516113
1745653916.9557054,-0.0035880159121006727,-0.018656838685274124,-0.36146464943885803,0.5297790765762329,-0.7290700078010559,-9.642661094665527
1745653916.9557533,0.004296210594475269,-0.025145674124360085,-0.3579460084438324,0.5602573156356812,-0.715505838394165,-9.55765438079834
1745653916.9558036,0.00337811978533864,-0.017576292157173157,-0.3595770299434662,0.353614866733551,-0.6151449680328369,-9.821128845214844
1745653916.9846954,0.00815177895128727,-0.02050243690609932,-0.36172622442245483,0.6693520545959473,-0.7400234341621399,-9.881317138671875
1745653916.9848123,0.007609690073877573,-0.018811311572790146,-0.3581058084964752,0.39828720688819885,-0.5787627100944519,-9.751935958862305
1745653916.9908435,0.009435082785785198,-0.02134593203663826,-0.3575431704521179,0.6064483523368835,-0.8748769760131836,-9.7245512008667
1745653916.990952,0.0004804180935025215,-0.028615038841962814,-0.35863950848579407,0.505963921546936,-0.6515752673149109,-9.80702018737793
1745653917.0251231,-0.002513737417757511,-0.017099697142839432,-0.357250452041626,0.474100261926651,-0.8737713694572449,-9.835175514221191
1745653917.028469,-0.0001619504764676094,-0.023431140929460526,-0.3574497103691101,0.6342610120773315,-0.7119296789169312,-9.573394775390625
1745653917.0306382,-0.0032341170590370893,-0.021595802158117294,-0.3568617105484009,0.3984220325946808,-0.6094614863395691,-9.669288635253906
1745653917.032387,-0.006134607829153538,-0.01950703002512455,-0.3580528199672699,0.6689441800117493,-0.7516229152679443,-9.892370223999023
1745653917.0371704,0.007282523903995752,-0.019459819421172142,-0.3567383885383606,0.3939293324947357,-0.465444415807724,-9.833490371704102
1745653917.0697947,0.005766390357166529,-0.019827714189887047,-0.35731616616249084,0.4808330535888672,-0.7190072536468506,-9.691790580749512
1745653917.0725224,0.018133442848920822,-0.021329088136553764,-0.358448326587677,0.501594603061676,-0.539655327796936,-9.654934883117676
1745653917.1013954,0.011714614927768707,-0.01886672154068947,-0.3545793294906616,0.3651653528213501,-0.6106966733932495,-9.702799797058105
1745653917.1014621,0.014340931549668312,-0.016444344073534012,-0.3519969582557678,0.586887001991272,-0.7192865014076233,-9.716385841369629
1745653917.1122,0.020479461178183556,-0.016696568578481674,-0.35227838158607483,0.3559202551841736,-0.46733689308166504,-9.71903133392334
1745653917.1156237,0.022673549130558968,-0.015466397628188133,-0.3522408902645111,0.6082963943481445,-0.7596796154975891,-9.712606430053711
1745653917.117022,0.02467886544764042,-0.020810266956686974,-0.3523762822151184,0.5041000843048096,-0.6224955320358276,-9.814290046691895
1745653917.1201894,0.02363327145576477,-0.012098152190446854,-0.35106736421585083,0.4812680184841156,-0.8530052304267883,-9.915019035339355
1745653917.15458,0.0176200270652771,-0.022824333980679512,-0.348725825548172,0.5650995969772339,-0.7497607469558716,-9.706445693969727
1745653917.1593258,0.012464185245335102,-0.016008149832487106,-0.348228394985199,0.3805091381072998,-0.7460533976554871,-9.719579696655273
1745653917.1630461,0.018429476767778397,-0.016475334763526917,-0.35016223788261414,0.6382871866226196,-0.7384620904922485,-9.65739917755127
1745653917.1681,0.015202121809124947,-0.01924656704068184,-0.3489763140678406,0.41561588644981384,-0.567107081413269,-9.722384452819824
1745653917.217773,0.009580465033650398,-0.01681138202548027,-0.3507504165172577,0.615071177482605,-0.7513125538825989,-9.815851211547852
1745653917.2180486,0.018217481672763824,-0.0177234448492527,-0.3488049805164337,0.44857603311538696,-0.6359411478042603,-9.704072952270508
1745653917.2206004,0.017268866300582886,-0.013160862028598785,-0.35082489252090454,0.3383306562900543,-0.6796843409538269,-9.756207466125488
1745653917.2206724,0.022712456062436104,-0.018537094816565514,-0.34914058446884155,0.5834554433822632,-0.6961909532546997,-9.696584701538086
1745653917.2207239,0.02215883508324623,-0.01895059458911419,-0.34627988934516907,0.38583168387413025,-0.6052343845367432,-9.869447708129883
1745653917.2426133,0.008595766499638557,-0.025516197085380554,-0.33809739351272583,0.5027215480804443,-0.5560429692268372,-9.901690483093262
1745653917.2468295,0.0104520870372653,-0.02064555510878563,-0.3384642004966736,0.42675209045410156,-0.7372163534164429,-9.922170639038086
1745653917.2482862,0.011936262249946594,-0.021674469113349915,-0.3370686173439026,0.5393353700637817,-0.6465280652046204,-9.6151762008667
1745653917.252403,0.006958006881177425,-0.024553367868065834,-0.33556026220321655,0.3800952434539795,-0.7619367241859436,-9.60126781463623
1745653917.293348,0.009857025928795338,-0.023405786603689194,-0.33511990308761597,0.6700841188430786,-0.7223315834999084,-9.768268585205078
1745653917.2935143,-2.3151795176090673e-05,-0.025820111855864525,-0.33706092834472656,0.44584256410598755,-0.7185804843902588,-9.991147994995117
1745653917.2983441,0.013059821911156178,-0.017515799030661583,-0.33482831716537476,0.44289764761924744,-0.7718226909637451,-9.777383804321289
1745653917.2984283,-0.004749821498990059,-0.026227543130517006,-0.3347547650337219,0.5117374062538147,-0.6065648794174194,-9.487004280090332
1745653917.2984996,-0.004334398079663515,-0.023739859461784363,-0.3374113440513611,0.43660950660705566,-0.74870365858078,-9.816549301147461
1745653917.3315904,0.006696891039609909,-0.023225102573633194,-0.3345838189125061,0.5974274277687073,-0.698037326335907,-9.986577987670898
1745653917.331735,0.004600232932716608,-0.02254914864897728,-0.3357461988925934,0.32316040992736816,-0.5178878903388977,-9.738397598266602
1745653917.3333855,0.0065320516005158424,-0.022606004029512405,-0.3376111388206482,0.5561679601669312,-0.7873908281326294,-9.450620651245117
1745653917.335209,0.007213375065475702,-0.026391033083200455,-0.3359069228172302,0.42791548371315,-0.49359577894210815,-9.679227828979492
1745653917.3691828,0.010373356752097607,-0.021585609763860703,-0.33659690618515015,0.53938889503479,-0.7478060722351074,-10.055124282836914
1745653917.3741455,0.010947369039058685,-0.023891832679510117,-0.3362119793891907,0.5428630709648132,-0.6088677048683167,-9.814743041992188
1745653917.3823123,0.01244078017771244,-0.021344836801290512,-0.3350748121738434,0.42566829919815063,-0.7397618293762207,-9.602972984313965
1745653917.382742,0.00797059666365385,-0.02933761477470398,-0.3323550820350647,0.6092796325683594,-0.7191594839096069,-9.685503005981445
1745653917.3865693,0.0034393270034343004,-0.027095500379800797,-0.33461838960647583,0.3611520826816559,-0.6750710010528564,-10.009377479553223
1745653917.421714,0.012486058287322521,-0.0180215984582901,-0.3348568081855774,0.5217204093933105,-0.7190209627151489,-9.739761352539062
1745653917.421788,0.009109527803957462,-0.0271954033523798,-0.3348837196826935,0.4163137376308441,-0.5491858720779419,-9.409846305847168
1745653917.4218473,0.004699247889220715,-0.0221320278942585,-0.33773916959762573,0.5213271379470825,-0.6854305267333984,-9.762380599975586
1745653917.4222531,0.004394483752548695,-0.02490653656423092,-0.3358514904975891,0.38685765862464905,-0.622461199760437,-9.931350708007812
1745653917.4607646,0.01222178339958191,-0.020086396485567093,-0.3363078534603119,0.5677408576011658,-0.7384778261184692,-9.935566902160645
1745653917.4608276,0.009761887602508068,-0.02639237977564335,-0.3379489779472351,0.38342517614364624,-0.5350085496902466,-9.717700958251953
1745653917.4620066,0.014651100151240826,-0.020558200776576996,-0.33501386642456055,0.39174821972846985,-0.8140654563903809,-9.583797454833984
1745653917.4658163,0.013324265368282795,-0.02312629297375679,-0.33434993028640747,0.5321353077888489,-0.5521541833877563,-9.655203819274902
1745653917.5052974,0.010005101561546326,-0.022269820794463158,-0.33487668633461,0.44325271248817444,-0.809411883354187,-9.94470500946045
1745653917.5053859,0.0162100400775671,-0.022759122774004936,-0.3324153423309326,0.5663289427757263,-0.6643128395080566,-9.761442184448242
1745653917.505444,0.0045946151949465275,-0.024370795115828514,-0.33425039052963257,0.37482374906539917,-0.73135906457901,-9.715505599975586
1745653917.505482,0.012527386657893658,-0.022769847884774208,-0.33366385102272034,0.5027967691421509,-0.7270404100418091,-9.722024917602539
1745653917.5445623,-0.00962620135396719,-0.02501043677330017,-0.33391499519348145,0.470201313495636,-0.6759575605392456,-9.881377220153809
1745653917.544686,0.0024354662746191025,-0.021338097751140594,-0.3332485556602478,0.454016774892807,-0.8148477673530579,-9.850515365600586
1745653917.5488935,0.003850690321996808,-0.026287008076906204,-0.3338744044303894,0.46483927965164185,-0.6642848253250122,-9.673357963562012
1745653917.5499477,-0.005634439643472433,-0.022117039188742638,-0.33229774236679077,0.39352595806121826,-0.5901840925216675,-9.667624473571777
1745653917.564967,0.007054993417114019,-0.02139953151345253,-0.3338949978351593,0.5701382160186768,-0.6812921762466431,-9.691536903381348
1745653917.5862553,0.0021430407650768757,-0.02231409214437008,-0.33354970812797546,0.32884228229522705,-0.463144451379776,-9.805407524108887
1745653917.5863028,0.016089335083961487,-0.01927214488387108,-0.3305521607398987,0.38599175214767456,-0.5806431770324707,-9.987220764160156
1745653917.5915606,0.013218577019870281,-0.008905040100216866,-0.3311781585216522,0.40223613381385803,-0.6518068909645081,-9.749898910522461
1745653917.591606,0.016990145668387413,-0.015162062831223011,-0.3301801383495331,0.5475538969039917,-0.729773759841919,-9.38192367553711
1745653917.628565,0.014541959390044212,-0.018257329240441322,-0.3303413987159729,0.32883211970329285,-0.6221917867660522,-9.920328140258789
1745653917.6312165,0.021579423919320107,-0.011658928357064724,-0.3289174437522888,0.5512121915817261,-0.7022103071212769,-10.105942726135254
1745653917.635545,0.0185218695551157,-0.012698953971266747,-0.3272513449192047,0.4171285629272461,-0.6374977827072144,-9.725645065307617
1745653917.6397862,0.027610966935753822,-0.014860332012176514,-0.32703128457069397,0.46998852491378784,-0.7415196895599365,-9.43303108215332
1745653917.640541,0.006357182748615742,-0.023582469671964645,-0.32872092723846436,0.5429632067680359,-0.6731788516044617,-9.791929244995117
1745653917.671026,0.022695457562804222,-0.012045003473758698,-0.3246609568595886,0.2972085177898407,-0.7648889422416687,-10.131757736206055
1745653917.674008,0.01800142228603363,-0.011204667389392853,-0.32730400562286377,0.535178005695343,-0.6429631114006042,-9.56883430480957
1745653917.676156,0.005565227475017309,-0.018667876720428467,-0.3280101716518402,0.3620634377002716,-0.6295424699783325,-9.431314468383789
1745653917.678999,0.014473426155745983,-0.015922067686915398,-0.330645889043808,0.5110107660293579,-0.7179275751113892,-9.855712890625
1745653917.7140105,0.013529243879020214,-0.01747807115316391,-0.32797420024871826,0.4190646708011627,-0.5087888836860657,-10.13071346282959
1745653917.7142837,0.019549990072846413,-0.010324767790734768,-0.32910066843032837,0.3733716905117035,-0.7274910807609558,-9.689562797546387
1745653917.7164466,0.021505331620573997,-0.016059061512351036,-0.3280777931213379,0.5344156622886658,-0.6082975268363953,-9.339625358581543
1745653917.7209053,0.019903428852558136,-0.01897282339632511,-0.32602840662002563,0.3843677043914795,-0.6953353881835938,-9.827432632446289
1745653917.7232814,0.025946106761693954,-0.012840730138123035,-0.3245393633842468,0.5313534736633301,-0.6485754251480103,-10.043177604675293
1745653917.765385,0.021919339895248413,-0.012690640985965729,-0.3265707194805145,0.3658628761768341,-0.6259521245956421,-9.670306205749512
1745653917.7654834,0.030590331181883812,-0.014125826768577099,-0.3249131441116333,0.4204464554786682,-0.693838894367218,-9.461878776550293
1745653917.7663999,0.018266431987285614,-0.02146979607641697,-0.32412269711494446,0.4691236615180969,-0.5646039247512817,-9.81216049194336
1745653917.7664602,0.025339150801301003,-0.009003478102385998,-0.3267296850681305,0.35668301582336426,-0.6933186650276184,-10.07126235961914
1745653917.821429,0.017253005877137184,-0.01653485931456089,-0.322974294424057,0.33191853761672974,-0.6765258312225342,-9.691487312316895
1745653917.8215556,0.024691171944141388,-0.01802203431725502,-0.3232291638851166,0.554610550403595,-0.6919392943382263,-9.608108520507812
1745653917.8216014,0.017070334404706955,-0.022307999432086945,-0.3234006464481354,0.41839855909347534,-0.6231589913368225,-9.791257858276367
1745653917.8216445,0.016834747046232224,-0.014246875420212746,-0.3204646408557892,0.4884316325187683,-0.7844805717468262,-9.92857551574707
1745653917.8504598,0.02125842310488224,-0.01857636868953705,-0.32223206758499146,0.498269259929657,-0.6464858055114746,-9.659975051879883
1745653917.8539133,0.020845666527748108,-0.017997369170188904,-0.3203023076057434,0.31888824701309204,-0.6662217378616333,-9.732234001159668
1745653917.854073,0.02791217528283596,-0.017740638926625252,-0.31962090730667114,0.5877532958984375,-0.596007227897644,-9.752713203430176
1745653917.8541605,0.025253072381019592,-0.01981382444500923,-0.3201971650123596,0.3791099190711975,-0.6022488474845886,-9.835708618164062
1745653917.8952487,0.03367524594068527,-0.01724310591816902,-0.31910887360572815,0.4703071117401123,-0.7567911148071289,-9.68761920928955
1745653917.8978312,0.019046107307076454,-0.02119511179625988,-0.3200017809867859,0.4086441099643707,-0.7109530568122864,-9.658952713012695
1745653917.905682,0.030628491193056107,-0.014445243403315544,-0.3186442255973816,0.34484609961509705,-0.7714872360229492,-9.817255020141602
1745653917.905749,0.02052459493279457,-0.016939332708716393,-0.3203872740268707,0.5620482563972473,-0.6213959455490112,-9.659323692321777
1745653917.9070132,0.017832042649388313,-0.016530249267816544,-0.31867653131484985,0.4177635610103607,-0.6871238946914673,-9.796842575073242
1745653917.9330432,0.022332241758704185,-0.01694660261273384,-0.3188202977180481,0.5612713694572449,-0.7843928337097168,-9.84400463104248
1745653917.933374,0.021194320172071457,-0.02068893238902092,-0.3211730718612671,0.3682376444339752,-0.6180055737495422,-9.788579940795898
1745653917.9371173,0.011109281331300735,-0.024346504360437393,-0.3079640567302704,0.46774858236312866,-0.6485466957092285,-9.784089088439941
1745653917.943059,0.010133648291230202,-0.020453019067645073,-0.306610643863678,0.37624692916870117,-0.7678931951522827,-9.766144752502441
1745653917.9719694,0.01387966237962246,-0.020911894738674164,-0.3067534863948822,0.486280620098114,-0.7676849365234375,-9.729476928710938
1745653917.9739435,0.012559497728943825,-0.020869748666882515,-0.305091917514801,0.2958436608314514,-0.5821501612663269,-9.778508186340332
1745653917.9764965,0.01731918752193451,-0.01983007788658142,-0.30618947744369507,0.49590691924095154,-0.7618528008460999,-9.6787748336792
1745653917.9793942,0.016504287719726562,-0.017748979851603508,-0.3076176941394806,0.3843061029911041,-0.4798702597618103,-9.66253662109375
1745653917.9813347,0.018581485375761986,-0.019013646990060806,-0.3076479434967041,0.4970938563346863,-0.810249924659729,-9.751815795898438
1745653918.017177,0.017791038379073143,-0.022574609145522118,-0.3051278591156006,0.4760514199733734,-0.6597298979759216,-9.804597854614258
1745653918.0216222,0.0156853049993515,-0.015771470963954926,-0.304511159658432,0.34315305948257446,-0.8604184985160828,-9.951217651367188
1745653918.021687,0.01463026087731123,-0.02237819693982601,-0.30089420080184937,0.48493146896362305,-0.742307186126709,-9.696344375610352
1745653918.02173,0.005001508630812168,-0.021912625059485435,-0.30210140347480774,0.3075184226036072,-0.6386675238609314,-9.696840286254883
1745653918.0575278,0.015728509053587914,-0.0182633213698864,-0.30161502957344055,0.5250537991523743,-0.7069780230522156,-9.737717628479004
1745653918.0626533,0.021021272987127304,-0.02227417565882206,-0.30697888135910034,0.35511744022369385,-0.5039800405502319,-9.7769193649292
1745653918.076193,0.014640231616795063,-0.015476085245609283,-0.30573755502700806,0.4777485728263855,-0.693529486656189,-9.792709350585938
1745653918.076292,0.01747865602374077,-0.02258140780031681,-0.30426254868507385,0.5293567180633545,-0.7835220694541931,-9.680315971374512
1745653918.0763457,0.026179010048508644,-0.02181847020983696,-0.29678937792778015,0.2743094861507416,-0.8141492009162903,-9.772541999816895
1745653918.11793,0.027080124244093895,-0.023389386013150215,-0.2860056757926941,0.08080355823040009,-0.9707530736923218,-9.929903984069824
1745653918.1180027,0.021481793373823166,-0.01569114625453949,-0.27596789598464966,-0.3214672803878784,-0.8912882804870605,-9.704927444458008
1745653918.1184108,-0.003960396163165569,-0.0464666411280632,-0.2686545252799988,0.007300561759620905,-1.3949368000030518,-9.569966316223145
1745653918.1185048,-0.03856862708926201,-0.02658114954829216,-0.2615360915660858,-0.6510542631149292,-0.5981348752975464,-9.986954689025879
1745653918.145092,-0.06682057678699493,-0.025341760367155075,-0.27045631408691406,-0.5097523331642151,-1.0177730321884155,-9.667675971984863
1745653918.1513329,-0.022000974044203758,-0.06630493700504303,-0.22548425197601318,-0.31670212745666504,-0.8338021039962769,-8.506604194641113
1745653918.1647182,0.0030491803772747517,-0.06367754191160202,-0.22395405173301697,0.17130044102668762,-0.955865204334259,-9.521505355834961
1745653918.1647964,-0.09218086302280426,-0.06130140274763107,-0.21506266295909882,-0.16463713347911835,-1.1357829570770264,-11.077232360839844
1745653918.1877706,-0.024445686489343643,-0.036780860275030136,-0.20843584835529327,0.29901155829429626,-1.383580207824707,-9.901118278503418
1745653918.226902,-0.11730735003948212,-0.05760561674833298,-0.1987280547618866,0.2872973382472992,-0.7714646458625793,-8.471748352050781
1745653918.2270396,-0.10681979358196259,-0.07943379133939743,-0.19193287193775177,0.189361110329628,-1.317337989807129,-9.881528854370117
1745653918.2272685,-0.09675189107656479,-0.06051715463399887,-0.18996669352054596,0.1935444474220276,-0.08906695246696472,-10.684423446655273
1745653918.227361,-0.12033013999462128,-0.046153005212545395,-0.18955479562282562,-0.5024498105049133,-0.72330242395401,-10.085779190063477
1745653918.2334523,-0.062011294066905975,-0.052795737981796265,-0.18842068314552307,-0.07754939794540405,-0.3485650420188904,-8.525739669799805
1745653918.2372262,-0.1165819764137268,-0.07976342737674713,-0.18228751420974731,-0.1423163115978241,-0.29669174551963806,-9.599235534667969
1745653918.237313,-0.0543736107647419,-0.0577847883105278,-0.18184500932693481,-0.13568927347660065,-0.5715183019638062,-10.921923637390137
1745653918.2415595,-0.0688798800110817,-0.04636755958199501,-0.17985045909881592,0.03823637217283249,-0.1733972281217575,-9.611893653869629
1745653918.281573,-0.06552918255329132,-0.05974891781806946,-0.17664086818695068,0.08528625965118408,-0.7674511075019836,-8.895212173461914
1745653918.2823136,-0.06557337939739227,-0.07631916552782059,-0.17464935779571533,0.4827161431312561,-0.4484788477420807,-9.770378112792969
1745653918.2851098,-0.08545473217964172,-0.07526589184999466,-0.1778377741575241,0.08886873722076416,-0.6809881925582886,-11.184778213500977
1745653918.2867663,-0.11760270595550537,0.00798781681805849,-0.034981582313776016,0.3911232352256775,-0.07256771624088287,-10.16308307647705
1745653918.324555,-0.1359286606311798,0.008848963305354118,-0.028608208522200584,0.5640383958816528,-0.3145374059677124,-8.852350234985352
1745653918.330909,-0.1168251484632492,-0.005297372583299875,-0.01998540200293064,0.58379065990448,0.22797003388404846,-9.44379711151123
1745653918.3309648,-0.10905172675848007,0.008226729929447174,-0.01506841741502285,0.7101511359214783,-0.0024576038122177124,-10.671052932739258
1745653918.3310068,-0.06880240142345428,0.02089427039027214,-0.011277848854660988,0.4101504385471344,0.28727269172668457,-10.212225914001465
1745653918.3739738,-0.061834968626499176,0.02463715337216854,-0.00703457510098815,0.2818545997142792,-0.028434526175260544,-9.066370010375977
1745653918.3752303,-0.0484912283718586,0.011268180795013905,0.0007252906216308475,0.5090736746788025,-0.22009341418743134,-9.323531150817871
1745653918.3753035,-0.04220991209149361,0.023337578400969505,0.010024392046034336,0.24571117758750916,-0.27394479513168335,-10.4508638381958
1745653918.3753557,-0.05395110696554184,0.04044715315103531,0.015340184792876244,0.25406381487846375,-0.7539657950401306,-10.241401672363281
1745653918.3753996,-0.06644107401371002,0.04241331294178963,0.02363244630396366,0.17795437574386597,-0.5721842050552368,-9.024190902709961
1745653918.405569,-0.10585255920886993,0.03894198685884476,0.026940729469060898,0.4682188630104065,-0.8340010643005371,-9.238359451293945
1745653918.4060032,-0.12950900197029114,0.030811438336968422,0.03328116983175278,0.6185228824615479,-0.8325831294059753,-10.37159538269043
1745653918.424183,-0.15652179718017578,0.055025506764650345,0.03597993403673172,0.4277927279472351,-0.811093807220459,-10.447397232055664
1745653918.4254794,-0.18793177604675293,0.050157200545072556,0.04430580511689186,0.5038052797317505,-0.7246732711791992,-9.350021362304688
1745653918.4452395,-0.20398874580860138,0.04000838100910187,0.05109572410583496,0.3301974833011627,-0.4816567897796631,-9.217721939086914
1745653918.4480197,-0.206523135304451,0.05093040317296982,0.06020922213792801,0.5371765494346619,-0.3294314444065094,-10.037832260131836
1745653918.4516234,-0.1943756341934204,0.056432969868183136,0.06682179123163223,0.3706825375556946,0.2105673849582672,-10.272601127624512
1745653918.45171,-0.1693001240491867,0.06017446517944336,0.0674402266740799,0.3592241406440735,0.3529728055000305,-9.54356861114502
1745653918.4525926,-0.14370371401309967,0.04711591452360153,0.07102452218532562,0.514962911605835,0.42340707778930664,-9.355451583862305
1745653918.490544,-0.12108812481164932,0.052314914762973785,0.07312417030334473,0.3252023458480835,0.40967321395874023,-10.096736907958984
1745653918.4919972,-0.10303764045238495,0.05674285441637039,0.07606763392686844,0.5097312331199646,0.04968612641096115,-10.181024551391602
1745653918.4949899,-0.08692853152751923,0.06019769236445427,0.08191864937543869,0.3725925087928772,0.10837193578481674,-9.497896194458008
1745653918.49815,-0.15402904152870178,0.06049392372369766,0.11624597012996674,0.33915942907333374,-0.2227574586868286,-9.99108600616455
1745653918.5355716,-0.16316232085227966,0.06975612789392471,0.12039808183908463,0.3129001557826996,-0.3111206889152527,-9.70519733428955
1745653918.53619,-0.16385667026042938,0.06251340359449387,0.12748286128044128,0.41891708970069885,-0.08485458046197891,-9.31847095489502
1745653918.5362778,-0.16249826550483704,0.06552683562040329,0.13043740391731262,0.43802762031555176,-0.013979424722492695,-9.65964412689209
1745653918.5396976,-0.16125456988811493,0.06081283092498779,0.13332274556159973,0.6441721320152283,0.015743309631943703,-10.152175903320312
1745653918.5436323,-0.15293678641319275,0.06601647287607193,0.1348229944705963,0.3782883286476135,0.17050835490226746,-9.977765083312988
1745653918.5833385,-0.1519359052181244,0.06398376822471619,0.14091210067272186,0.5441049337387085,-0.1034073606133461,-9.33698844909668
1745653918.583432,-0.1502528190612793,0.05758854001760483,0.1454174816608429,0.46445679664611816,0.1486215591430664,-9.420147895812988
1745653918.5839107,-0.14578929543495178,0.05940553545951843,0.14756742119789124,0.549172580242157,0.09192830324172974,-10.071813583374023
1745653918.5840933,-0.13729070127010345,0.05711493641138077,0.1504843533039093,0.6148160099983215,0.27453604340553284,-9.961297988891602
1745653918.6279597,-0.12371987104415894,0.06063087657094002,0.15372444689273834,0.3968580365180969,0.21575942635536194,-9.56124210357666
1745653918.6280189,-0.12711985409259796,0.05238167569041252,0.15612463653087616,0.568593442440033,0.1512085497379303,-9.520814895629883
1745653918.6284606,-0.11653079837560654,0.04877976328134537,0.1581798493862152,0.4217512607574463,0.03131768852472305,-9.947097778320312
1745653918.6285179,-0.11638923734426498,0.05914825201034546,0.1649879366159439,0.5277565121650696,-0.10144798457622528,-9.90806770324707
1745653918.6683507,-0.15620753169059753,-0.014270204119384289,0.24548642337322235,0.5933372974395752,0.3403172492980957,-9.824350357055664
1745653918.668396,-0.14776261150836945,-0.003743513021618128,0.24573460221290588,0.5341219305992126,0.18050068616867065,-10.02343463897705
1745653918.670655,-0.1586723029613495,-0.006125361658632755,0.25054147839546204,0.4823048710823059,0.32442706823349,-9.654744148254395
1745653918.6758332,-0.15698155760765076,-0.010233143344521523,0.2544601559638977,0.36925411224365234,0.27423182129859924,-9.511785507202148
1745653918.704631,-0.15337491035461426,-0.015371287241578102,0.255494087934494,0.6735022664070129,0.40450310707092285,-9.664719581604004
1745653918.7239017,-0.1542336642742157,-0.014104655012488365,0.25622454285621643,0.4105827212333679,0.5088634490966797,-10.07259464263916
1745653918.7240036,-0.14940688014030457,-0.009878261014819145,0.2570754885673523,0.43902963399887085,0.36150923371315,-9.87720012664795
1745653918.7243822,-0.15068328380584717,-0.02045932039618492,0.2572367787361145,0.48557060956954956,0.38813990354537964,-9.470422744750977
1745653918.7480195,-0.15505146980285645,-0.014608608558773994,0.26023679971694946,0.477130651473999,0.33487623929977417,-9.603826522827148
1745653918.7592263,-0.16442406177520752,-0.023803697898983955,0.26385974884033203,0.6212340593338013,0.294085830450058,-10.033968925476074
1745653918.7592564,-0.1555403769016266,-0.0200913455337286,0.2649202048778534,0.46043115854263306,0.4642499089241028,-9.97459602355957
1745653918.7592828,-0.15982195734977722,-0.01895526424050331,0.266329288482666,0.6215101480484009,0.4287150502204895,-9.525063514709473
1745653918.759308,-0.16173811256885529,-0.026839613914489746,0.26850852370262146,0.38584083318710327,0.47959059476852417,-9.625155448913574
1745653918.7897348,-0.15171948075294495,-0.025671472772955894,0.2717490792274475,0.5298675298690796,0.4464294910430908,-9.947015762329102
1745653918.793689,-0.1619987189769745,-0.027743171900510788,0.2700421214103699,0.5461381673812866,0.5716655254364014,-9.869132995605469
1745653918.795885,-0.14583249390125275,-0.020940175279974937,0.2715544104576111,0.36841335892677307,0.4941446781158447,-9.639719009399414
1745653918.7975633,-0.15312175452709198,-0.03403788059949875,0.2751774191856384,0.5278096199035645,0.517672061920166,-9.639280319213867
1745653918.833409,-0.14456847310066223,-0.03004557453095913,0.2752242982387543,0.41220325231552124,0.509943425655365,-9.977912902832031
1745653918.8393252,-0.14658334851264954,-0.0255360659211874,0.2768532335758209,0.5641761422157288,0.45367154479026794,-9.790461540222168
1745653918.8393674,-0.15462127327919006,-0.035058945417404175,0.27695322036743164,0.45151716470718384,0.4626246392726898,-9.669111251831055
1745653918.8402164,-0.14915694296360016,-0.03313826769590378,0.28000545501708984,0.5351243019104004,0.46996235847473145,-9.761802673339844
1745653918.892302,-0.15482531487941742,-0.03658869117498398,0.28074342012405396,0.5715152025222778,0.49532550573349,-9.915290832519531
1745653918.8923476,-0.150325208902359,-0.04204603284597397,0.28647422790527344,0.4272986054420471,0.6147317290306091,-9.94576644897461
1745653918.8923788,-0.13724157214164734,-0.03332081809639931,0.29132360219955444,0.37864047288894653,0.5432440042495728,-9.64563274383545
1745653918.89396,-0.15272340178489685,-0.0386505126953125,0.2913326323032379,0.5498942136764526,0.5601872205734253,-9.529298782348633
1745653918.8939886,-0.148829847574234,-0.04151555523276329,0.2925550937652588,0.38584843277931213,0.49544110894203186,-9.962888717651367
1745653918.9460144,-0.14360643923282623,-0.03722413256764412,0.29499027132987976,0.6148649454116821,0.6121164560317993,-9.962411880493164
1745653918.9460585,-0.14569367468357086,-0.03762376680970192,0.296785444021225,0.3488156497478485,0.6549533605575562,-9.742396354675293
1745653918.9460945,-0.1429612934589386,-0.03427368775010109,0.2958579361438751,0.3989048898220062,0.5408565998077393,-9.54539966583252
1745653918.94613,-0.14176835119724274,-0.04693238064646721,0.3003544807434082,0.5532735586166382,0.6541457772254944,-9.77978801727295
1745653918.9646206,-0.14615969359874725,-0.035690635442733765,0.2989685535430908,0.40902796387672424,0.6051347851753235,-10.10838794708252
1745653918.9669867,-0.1413634568452835,-0.0396280512213707,0.2998228967189789,0.5023552179336548,0.5804160833358765,-9.774394035339355
1745653918.968853,-0.14254657924175262,-0.03930308669805527,0.30233335494995117,0.30394285917282104,0.6859157681465149,-9.534318923950195
1745653918.9707158,-0.1414915919303894,-0.042400676757097244,0.30426663160324097,0.5684942007064819,0.6125324964523315,-9.783513069152832
1745653918.9781735,-0.14201074838638306,-0.04085922986268997,0.3021923005580902,0.42089763283729553,0.7216269373893738,-10.038743019104004
1745653919.032182,-0.1406877487897873,-0.034084782004356384,0.3030862808227539,0.38698896765708923,0.5594751834869385,-9.815176963806152
1745653919.03225,-0.1289181411266327,-0.022374000400304794,0.3307650685310364,0.30418330430984497,0.8446013331413269,-9.570536613464355
1745653919.0336611,-0.13201755285263062,-0.03200240060687065,0.33368879556655884,0.5132279396057129,0.8914676904678345,-9.484884262084961
1745653919.0337098,-0.130239337682724,-0.026180356740951538,0.3349088132381439,0.35949015617370605,0.9557598233222961,-9.971338272094727
1745653919.0489893,-0.11910732090473175,-0.024360904470086098,0.3347035348415375,0.5195757150650024,0.9436239004135132,-9.930291175842285
1745653919.0521305,-0.12355619668960571,-0.029377292841672897,0.3332013785839081,0.2967897057533264,1.0065839290618896,-9.655633926391602
1745653919.0565946,-0.1123584508895874,-0.02589578367769718,0.3341004550457001,0.3976499140262604,0.8870736360549927,-9.589435577392578
1745653919.0573702,-0.12368903309106827,-0.02883748710155487,0.3332539498806,0.4690215587615967,0.9832911491394043,-9.788206100463867
1745653919.058632,-0.11741187423467636,-0.02559589222073555,0.3323742151260376,0.39301154017448425,0.8108083605766296,-9.918238639831543
1745653919.1016307,-0.11843042075634003,-0.028872916474938393,0.33244428038597107,0.5926765203475952,0.9796905517578125,-9.636452674865723
1745653919.1024501,-0.12087184190750122,-0.026448508724570274,0.33449050784111023,0.28727129101753235,0.9597374200820923,-9.7369966506958
1745653919.102539,-0.1232280358672142,-0.02355121448636055,0.3357929587364197,0.4468677043914795,0.8229743242263794,-9.753070831298828
1745653919.1025772,-0.11300269514322281,-0.029202530160546303,0.3350869119167328,0.4178340435028076,1.0275180339813232,-9.659316062927246
1745653919.140297,-0.1202755942940712,-0.02123725414276123,0.33623868227005005,0.4364597201347351,0.9528977274894714,-9.757071495056152
1745653919.14127,-0.11039469391107559,-0.03045007213950157,0.3362245559692383,0.43604621291160583,1.0560728311538696,-9.779012680053711
1745653919.168039,-0.10512329638004303,-0.02530628815293312,0.3346591889858246,0.29002612829208374,1.0101948976516724,-9.77582836151123
1745653919.1706479,-0.1020020991563797,-0.024996791034936905,0.3375755250453949,0.5070199966430664,0.9785582423210144,-9.650715827941895
1745653919.1775753,-0.10879909992218018,-0.02406718209385872,0.3346875309944153,0.30948513746261597,1.0443028211593628,-9.723827362060547
1745653919.1822555,-0.10234940052032471,-0.027004370465874672,0.3377557098865509,0.4915389120578766,0.8355194926261902,-9.730846405029297
1745653919.1902113,-0.10499974340200424,-0.029204467311501503,0.3356270492076874,0.47277212142944336,1.0730674266815186,-9.693867683410645
1745653919.198265,-0.10695880651473999,-0.020697813481092453,0.3375355303287506,0.3853580355644226,0.9456575512886047,-9.846651077270508
1745653919.1984627,-0.10810112953186035,-0.027851635590195656,0.3373379111289978,0.464388370513916,0.9456955790519714,-9.697861671447754
1745653919.2434533,-0.0970291718840599,-0.02746983803808689,0.33777981996536255,0.3673393726348877,1.0165765285491943,-9.607229232788086
1745653919.2525573,-0.11305012553930283,-0.023361772298812866,0.3395922780036926,0.5329939126968384,0.9669370651245117,-9.748727798461914
1745653919.255052,-0.09217800199985504,-0.021206343546509743,0.3392138183116913,0.3592347502708435,1.0697081089019775,-9.76936149597168
1745653919.2551203,-0.08585329353809357,-0.02925935946404934,0.3396376967430115,0.5180778503417969,0.9761911630630493,-9.713868141174316
1745653919.2686484,-0.0836394727230072,-0.02607625164091587,0.3385083079338074,0.37909793853759766,1.1812057495117188,-9.662919998168945
1745653919.2687201,-0.08873061090707779,-0.02575654163956642,0.3398204743862152,0.5092369318008423,0.9537883996963501,-9.763628005981445
1745653919.2702987,-0.07643405348062515,-0.024408401921391487,0.34001195430755615,0.31585952639579773,1.1104967594146729,-9.739295959472656
1745653919.2743433,-0.08051447570323944,-0.024447107687592506,0.3403204381465912,0.45100387930870056,0.991805911064148,-9.593328475952148
1745653919.3070698,-0.086931511759758,-0.029887020587921143,0.3420313000679016,0.4670446813106537,1.024548888206482,-9.663795471191406
1745653919.3091488,-0.07020703703165054,-0.022602558135986328,0.3421390652656555,0.37982210516929626,1.0935983657836914,-9.818612098693848
1745653919.3091955,-0.0817398875951767,-0.030975598841905594,0.3426550030708313,0.4888435900211334,1.029023289680481,-9.766443252563477
1745653919.3117845,-0.0674198642373085,-0.025234946981072426,0.34100860357284546,0.3103427290916443,1.1160995960235596,-9.705587387084961
1745653919.3150046,-0.0787791982293129,-0.0260380320250988,0.3403252065181732,0.5074262619018555,1.0908915996551514,-9.60423755645752
1745653919.3541875,-0.07563439756631851,-0.034470751881599426,0.3401309847831726,0.3989720940589905,1.0588271617889404,-9.788507461547852
1745653919.3550057,-0.06565989553928375,-0.02732909843325615,0.34106898307800293,0.440163791179657,1.0357625484466553,-9.792669296264648
1745653919.3561916,-0.02710479497909546,-0.0336395800113678,0.3416414260864258,0.41887205839157104,1.1336640119552612,-9.692634582519531
1745653919.3562539,-0.04795901104807854,-0.03492887318134308,0.34182101488113403,0.4504343569278717,1.1331952810287476,-9.720230102539062
1745653919.410248,-0.026148635894060135,-0.032387956976890564,0.34105902910232544,0.2939651608467102,1.180164098739624,-9.724851608276367
1745653919.4122584,-0.033884305506944656,-0.03549861162900925,0.3404510021209717,0.5169354677200317,1.1688470840454102,-9.643013000488281
1745653919.4123256,-0.031122049316763878,-0.035153549164533615,0.3377191126346588,0.33665698766708374,1.2730176448822021,-9.814364433288574
1745653919.4123616,-0.03076171875,-0.030672475695610046,0.33775514364242554,0.4174613952636719,1.1252542734146118,-9.756002426147461
1745653919.4129806,-0.025127461180090904,-0.04032859951257706,0.3378320336341858,0.4179442822933197,1.1302239894866943,-9.618341445922852
1745653919.447245,-0.024152353405952454,-0.029523620381951332,0.33867257833480835,0.3909227252006531,1.173969030380249,-9.665287971496582
1745653919.4473708,-0.031107017770409584,-0.03412686288356781,0.33957475423812866,0.45141205191612244,1.1019980907440186,-9.8383207321167
1745653919.4474277,-0.018367240205407143,-0.031749606132507324,0.3384667932987213,0.2936919331550598,1.1751476526260376,-9.753637313842773
1745653919.447474,-0.021591832861304283,-0.033827394247055054,0.33766862750053406,0.5424303412437439,1.1673481464385986,-9.500142097473145
1745653919.4799123,-0.028650928288698196,-0.03241289034485817,0.3399212658405304,0.35232895612716675,1.1884610652923584,-9.784687042236328
1745653919.4833446,-0.01352936215698719,-0.02981356903910637,0.33724331855773926,0.4281923174858093,1.1152596473693848,-9.865029335021973
1745653919.493899,-0.028961410745978355,-0.03528277203440666,0.33820420503616333,0.40916529297828674,1.1421725749969482,-9.670912742614746
1745653919.495299,-0.015935596078634262,-0.02928035892546177,0.3358883857727051,0.298017680644989,1.1380305290222168,-9.61945915222168
1745653919.5202246,-0.030452851206064224,-0.03300388902425766,0.33746978640556335,0.4863037168979645,1.1550382375717163,-9.673919677734375
1745653919.5382779,-0.02294819988310337,-0.03443487733602524,0.3362293839454651,0.2968073785305023,1.1318455934524536,-9.864274024963379
1745653919.543777,-0.01881459914147854,-0.029994893819093704,0.3343800902366638,0.5330590009689331,1.1662451028823853,-9.699246406555176
1745653919.5438297,-0.02471061423420906,-0.03293667733669281,0.33679506182670593,0.33661526441574097,1.223211646080017,-9.708276748657227
1745653919.5438907,-0.014052698388695717,-0.027706239372491837,0.3341808319091797,0.3558289408683777,1.0970416069030762,-9.739154815673828
1745653919.566317,-0.01725558564066887,-0.034297436475753784,0.33544307947158813,0.4950612187385559,1.242746114730835,-9.636238098144531
1745653919.5691307,-0.01358157116919756,-0.027600403875112534,0.3367122709751129,0.3208044171333313,1.174945592880249,-9.810895919799805
1745653919.573023,-0.011079716496169567,-0.030585166066884995,0.33586278557777405,0.4836932122707367,1.2022117376327515,-9.736440658569336
1745653919.5781348,-0.02076343074440956,-0.032601289451122284,0.32968294620513916,0.39883700013160706,1.2148011922836304,-9.811897277832031
1745653919.6144016,-0.0069859749637544155,-0.028080066666007042,0.332979291677475,0.35891908407211304,1.0146702527999878,-9.807974815368652
1745653919.6147645,-0.01234421320259571,-0.033682357519865036,0.3325362503528595,0.5474197268486023,1.1684061288833618,-9.546043395996094
1745653919.614848,-0.015800198540091515,-0.02699965238571167,0.33091992139816284,0.282066285610199,1.1109230518341064,-9.786474227905273
1745653919.614918,-0.015774903818964958,-0.031048163771629333,0.3342352509498596,0.46970897912979126,1.0375182628631592,-9.831472396850586
1745653919.6527364,-0.004439948126673698,-0.03453948721289635,0.3331630825996399,0.35545802116394043,1.2661243677139282,-9.651961326599121
1745653919.6542115,-0.01275513507425785,-0.021840283647179604,0.33512943983078003,0.4138375222682953,1.1295368671417236,-9.673624038696289
1745653919.6606562,-0.002969332505017519,-0.03484966233372688,0.3342585265636444,0.41286715865135193,1.2371184825897217,-9.8065767288208
1745653919.6616976,0.0015878526028245687,-0.028301408514380455,0.3309705853462219,0.30575674772262573,1.171470284461975,-9.823389053344727
1745653919.6646833,-0.002216844353824854,-0.02980782464146614,0.33306819200515747,0.48308005928993225,1.1349600553512573,-9.67026138305664
1745653919.6934571,-0.006582130677998066,-0.02616756781935692,0.3320545554161072,0.29786887764930725,1.1843698024749756,-9.670272827148438
1745653919.6957965,-0.00413396256044507,-0.03050750494003296,0.33188632130622864,0.5076667666435242,0.9778109788894653,-9.733591079711914
1745653919.7020802,-0.005391348153352737,-0.031031381338834763,0.33103764057159424,0.4354769289493561,1.2219544649124146,-9.768692016601562
1745653919.7023132,0.019310755655169487,-0.02339364029467106,0.3264235556125641,0.24913063645362854,1.0713541507720947,-9.738617897033691
1745653919.7369502,0.016196012496948242,-0.02541414275765419,0.3292672038078308,0.5229653120040894,1.0837526321411133,-9.47689151763916
1745653919.7421484,0.011427892372012138,-0.028547246009111404,0.3275652825832367,0.3326896131038666,1.149423360824585,-9.729683876037598
1745653919.742215,0.016097040846943855,-0.025452110916376114,0.327223002910614,0.47832155227661133,0.9800206422805786,-9.90174388885498
1745653919.7484434,0.016496237367391586,-0.03147140145301819,0.32620924711227417,0.44155484437942505,1.2189218997955322,-9.699868202209473
1745653919.7817602,0.018526531755924225,-0.021224161610007286,0.3237176835536957,0.3713013529777527,1.0953044891357422,-9.680927276611328
1745653919.7826405,0.01596469059586525,-0.03161279112100601,0.3287833631038666,0.42025870084762573,1.104602575302124,-9.698030471801758
1745653919.7866664,0.02930528298020363,-0.03052951768040657,0.3272172808647156,0.3255956768989563,1.1834341287612915,-9.715283393859863
1745653919.791093,0.021020133048295975,-0.025224287062883377,0.3261215090751648,0.4995625615119934,1.0775829553604126,-9.681151390075684
1745653919.7944198,0.034081678837537766,-0.028629932552576065,0.3259736895561218,0.3449174761772156,1.2320448160171509,-9.699810981750488
1745653919.8239381,0.029971256852149963,-0.03031362220644951,0.32669171690940857,0.426297664642334,1.0826555490493774,-9.765091896057129
1745653919.825396,0.04077818989753723,-0.0316290482878685,0.3248136043548584,0.42016249895095825,1.194187879562378,-9.765707015991211
1745653919.8387609,0.03286386653780937,-0.022554898634552956,0.32430848479270935,0.3225868344306946,1.0787798166275024,-9.674768447875977
1745653919.8388288,0.030339151620864868,-0.034665171056985855,0.3249943256378174,0.4984661936759949,0.9176381826400757,-9.595865249633789
1745653919.869313,0.04020185396075249,-0.031154796481132507,0.32636770606040955,0.37895628809928894,1.1111268997192383,-9.748603820800781
1745653919.874049,0.02483680099248886,-0.026662996038794518,0.32728663086891174,0.47623223066329956,0.9681693911552429,-9.871862411499023
1745653919.87651,0.032828934490680695,-0.031169507652521133,0.32605358958244324,0.30895164608955383,1.0649006366729736,-9.697012901306152
1745653919.8799615,0.03619246557354927,-0.028942083939909935,0.32581403851509094,0.4679911136627197,1.1151121854782104,-9.495088577270508
1745653919.914539,0.02067876234650612,-0.034244198352098465,0.32591161131858826,0.42927780747413635,1.0745470523834229,-9.82977294921875
1745653919.9150257,0.042382799088954926,-0.02676890790462494,0.3266853988170624,0.33457133173942566,1.0619771480560303,-9.920751571655273
1745653919.9150898,0.02915765345096588,-0.03341478854417801,0.3257712721824646,0.4403676986694336,1.029995322227478,-9.587129592895508
1745653919.9155178,0.03909590467810631,-0.03127124160528183,0.32613128423690796,0.2815006673336029,1.1245577335357666,-9.56755542755127
1745653919.9155788,0.02963317558169365,-0.028684381395578384,0.3268129229545593,0.49156779050827026,1.033566951751709,-9.769110679626465
1745653919.9534218,0.04056742414832115,-0.034102629870176315,0.32611075043678284,0.3912345767021179,1.0928261280059814,-9.853299140930176
1745653919.9547129,0.0443861149251461,-0.02876652218401432,0.3269435167312622,0.4702053666114807,1.1419193744659424,-9.661206245422363
1745653919.960617,0.03663567081093788,-0.036012306809425354,0.3258039057254791,0.4097992479801178,1.0735242366790771,-9.70242977142334
1745653919.960663,0.0493248775601387,-0.03055753745138645,0.32652753591537476,0.2803473472595215,1.0302770137786865,-9.795835494995117
1745653919.9954882,0.043999262154102325,-0.03421695902943611,0.3290445804595947,0.5040150284767151,1.009853482246399,-9.605241775512695
1745653919.9999146,0.042471714317798615,-0.03248932585120201,0.3277962803840637,0.32168081402778625,1.0588908195495605,-9.71829605102539
1745653920.0004683,0.04854956641793251,-0.03206055238842964,0.32785704731941223,0.4928340017795563,1.0258469581604004,-9.76463794708252
1745653920.001588,0.041796158999204636,-0.037595707923173904,0.32763198018074036,0.36380162835121155,1.1202123165130615,-9.817590713500977
1745653920.0035203,0.05428502708673477,-0.031122814863920212,0.3244174122810364,0.3887938857078552,0.992190957069397,-9.739297866821289
1745653920.061605,0.037999339401721954,-0.03355562314391136,0.3248710036277771,0.4446120858192444,1.03358793258667,-9.632347106933594
1745653920.061757,0.041984181851148605,-0.034328557550907135,0.3254925012588501,0.2723143994808197,0.900741696357727,-9.733662605285645
1745653920.06183,0.04129986837506294,-0.036875784397125244,0.3261987268924713,0.5537046790122986,0.9795219302177429,-9.67462158203125
1745653920.0619128,0.039539363235235214,-0.031938232481479645,0.32816046476364136,0.2903163433074951,1.0547943115234375,-9.835270881652832
1745653920.0879788,0.025619059801101685,-0.020403236150741577,0.3285161554813385,0.40572628378868103,0.9945874214172363,-9.744043350219727
1745653920.0880418,0.012409280054271221,-0.02585543319582939,0.3291222155094147,0.4444904327392578,0.9405786395072937,-9.863661766052246
1745653920.088106,0.02352631650865078,-0.02125844918191433,0.3291756808757782,0.23779726028442383,0.8293495178222656,-9.763996124267578
1745653920.0881734,0.014149499125778675,-0.02216193452477455,0.32978710532188416,0.5204164385795593,0.8752059936523438,-9.500595092773438
1745653920.1245315,0.012755995616316795,-0.022641781717538834,0.3316898047924042,0.31628480553627014,0.9402744174003601,-9.807638168334961
1745653920.1253285,0.017687804996967316,-0.020784612745046616,0.3310433030128479,0.4096156060695648,0.874912440776825,-9.932201385498047
1745653920.1272173,0.017659038305282593,-0.026307012885808945,0.3309451639652252,0.3935379981994629,1.0436464548110962,-9.66254997253418
1745653920.1299825,0.014730794355273247,-0.016867749392986298,0.3308444321155548,0.34403324127197266,0.875188946723938,-9.6488676071167
1745653920.1657245,0.01745259389281273,-0.024451009929180145,0.330897718667984,0.4718438684940338,0.926723837852478,-9.728028297424316
1745653920.1674705,0.01611877977848053,-0.02301996387541294,0.33163928985595703,0.2196696549654007,0.9297553896903992,-9.910677909851074
1745653920.1716902,0.018636932596564293,-0.020836297422647476,0.33231690526008606,0.46097531914711,0.8246294260025024,-9.705312728881836
1745653920.1737032,0.011884679086506367,-0.02229234203696251,0.3316456377506256,0.28814697265625,1.021813154220581,-9.59162712097168
1745653920.1771297,0.008045722730457783,-0.01991964504122734,0.33168280124664307,0.43747425079345703,0.7595911026000977,-9.754045486450195
1745653920.2089832,0.01006791926920414,-0.027391623705625534,0.33124393224716187,0.4931272566318512,0.9684220552444458,-9.847625732421875
1745653920.212956,0.010118762031197548,-0.0151072321459651,0.33272022008895874,0.3416791260242462,0.8683130145072937,-9.850236892700195
1745653920.2130318,0.0037213885225355625,-0.020724747329950333,0.33366280794143677,0.38577479124069214,0.8188245892524719,-9.588894844055176
1745653920.213185,0.013611191883683205,-0.023390691727399826,0.3348672091960907,0.3068203032016754,0.9269084930419922,-9.56238079071045
1745653920.2525625,-0.0009833615040406585,-0.018716029822826385,0.3356568217277527,0.513325572013855,0.884895920753479,-9.85178279876709
1745653920.2600255,0.013945003971457481,-0.022023629397153854,0.3364063501358032,0.35454311966896057,1.0709174871444702,-9.945310592651367
1745653920.2601233,0.011166432872414589,-0.01964065432548523,0.33221328258514404,0.3521862328052521,0.9374097585678101,-9.691305160522461
1745653920.2697206,0.013668869622051716,-0.025760244578123093,0.33331426978111267,0.39990440011024475,0.96612948179245,-9.566274642944336
1745653920.2697978,0.010437769815325737,-0.01736615225672722,0.3326997458934784,0.3408937454223633,0.8882623910903931,-9.771993637084961
1745653920.2968328,0.0027686269022524357,-0.024204740300774574,0.33429965376853943,0.45903927087783813,0.753282904624939,-9.856501579284668
1745653920.3011942,0.0011838625650852919,-0.019127313047647476,0.33530890941619873,0.5268206596374512,0.8569363355636597,-9.646078109741211
1745653920.3023462,0.003175109624862671,-0.025118699297308922,0.33700352907180786,0.2962339520454407,0.928998589515686,-9.83231258392334
1745653920.3028421,0.01445095520466566,-0.022805839776992798,0.33495935797691345,0.43583184480667114,0.9114543199539185,-9.761408805847168
1745653920.3508463,0.003546276595443487,-0.024489615112543106,0.33458614349365234,0.42322951555252075,0.9385108947753906,-9.711504936218262
1745653920.3514752,0.012480662204325199,-0.019565051421523094,0.33488360047340393,0.2917233407497406,0.900665283203125,-9.733907699584961
1745653920.3515263,0.0011900051031261683,-0.02897481620311737,0.3346821665763855,0.42123299837112427,0.8148161172866821,-9.727921485900879
1745653920.351569,0.013625110499560833,-0.023257527500391006,0.33503422141075134,0.31881967186927795,0.9630545377731323,-9.793577194213867
1745653920.386755,-0.004404059145599604,-0.020574901252985,0.3344690799713135,0.4901624321937561,0.8273038864135742,-9.75133228302002
1745653920.3896868,0.00040817781700752676,-0.029147248715162277,0.3315927982330322,0.3566747307777405,0.8685815930366516,-9.725744247436523
1745653920.3912945,0.002014258410781622,-0.0240971390157938,0.3340514004230499,0.5000521540641785,0.8574323654174805,-9.694082260131836
1745653920.3922179,-0.005423948168754578,-0.027497172355651855,0.3343718647956848,0.44248881936073303,0.8901517987251282,-9.842004776000977
1745653920.4263237,0.000474628439405933,-0.020370176061987877,0.33616122603416443,0.241163969039917,0.852805495262146,-9.804153442382812
1745653920.426727,-0.0003348842146806419,-0.026613330468535423,0.3414589464664459,0.2625855803489685,0.9138385653495789,-9.630938529968262
1745653920.4290237,-0.01137128472328186,-0.02459130808711052,0.34119001030921936,0.5027365684509277,0.8695635795593262,-9.721652030944824
1745653920.4311457,-0.007923359051346779,-0.02874327264726162,0.3421739935874939,0.32417964935302734,0.8875690698623657,-9.878920555114746
1745653920.471935,-0.005033830646425486,-0.024221140891313553,0.3426213562488556,0.475502073764801,0.8131639361381531,-9.75007438659668
1745653920.4719825,-0.011474544182419777,-0.0292951799929142,0.3427629768848419,0.38238006830215454,0.9266842603683472,-9.72373104095459
1745653920.4737668,-0.005995480809360743,-0.023750465363264084,0.3438968360424042,0.30044159293174744,0.79067063331604,-9.760619163513184
1745653920.52035,-0.009074957109987736,-0.032380230724811554,0.3456876873970032,0.4805026054382324,0.8989057540893555,-9.641263961791992
1745653920.5205228,-0.00884864293038845,-0.025649214163422585,0.34534507989883423,0.3106558918952942,0.9248164296150208,-9.813464164733887
1745653920.5206268,-0.008264516480267048,-0.025479454547166824,0.34646615386009216,0.42941251397132874,0.9138656854629517,-9.79399585723877
1745653920.5207036,-0.011207916773855686,-0.02932874858379364,0.34349972009658813,0.23129992187023163,0.9518095850944519,-9.718562126159668
1745653920.5208383,0.001737381680868566,-0.025492588058114052,0.3425358831882477,0.4569167196750641,0.8715727925300598,-9.655156135559082
1745653920.5209112,-0.014771616086363792,-0.02939307689666748,0.3438541889190674,0.3940647840499878,1.0090768337249756,-9.777708053588867
1745653920.5570095,-0.004085873253643513,-0.026656240224838257,0.34350866079330444,0.2968279719352722,0.7453364133834839,-9.885641098022461
1745653920.5606933,-0.006408127956092358,-0.02789630927145481,0.344613254070282,0.4822806417942047,0.934052586555481,-9.577313423156738
1745653920.5675747,-0.009543832391500473,-0.021946590393781662,0.34383606910705566,0.2770242989063263,0.8897337913513184,-9.680428504943848
1745653920.567667,-0.010079266503453255,-0.02523081563413143,0.3482823073863983,0.41957196593284607,0.7862592339515686,-9.77570629119873
1745653920.5692322,0.0013737219851464033,-0.030067339539527893,0.3465580940246582,0.3450653553009033,1.024317979812622,-9.747438430786133
1745653920.5978227,-0.010055755265057087,-0.01863047108054161,0.3455985188484192,0.4188957214355469,0.887681782245636,-9.77859115600586
1745653920.600397,-0.0004598820523824543,-0.02849791944026947,0.3454071581363678,0.37487292289733887,0.9701412320137024,-9.728864669799805
1745653920.601828,4.534993786364794e-05,-0.025403086096048355,0.34527939558029175,0.3035522997379303,0.8970999717712402,-9.763670921325684
1745653920.6036696,-0.003016458125784993,-0.02871575951576233,0.3444908559322357,0.45380234718322754,0.8341618776321411,-9.749588966369629
1745653920.6588295,-0.0022954887244850397,-0.020290786400437355,0.34657996892929077,0.3082554340362549,0.9321696162223816,-9.708330154418945
1745653920.6590128,-0.011397781781852245,-0.028359372168779373,0.3459991216659546,0.49265050888061523,0.7587491869926453,-9.719622611999512
1745653920.6591322,-0.006752762943506241,-0.02024655044078827,0.34683844447135925,0.4053557813167572,0.8213022947311401,-9.847219467163086
1745653920.6592035,-0.009052788838744164,-0.02744000218808651,0.3460497260093689,0.3201214671134949,0.8965721130371094,-9.611371040344238
1745653920.7205398,0.000875090598128736,-0.028082698583602905,0.34744614362716675,0.35373252630233765,0.8410223722457886,-9.60018253326416
1745653920.7206018,-0.012781189754605293,-0.0290205217897892,0.35032954812049866,0.4796983599662781,0.8656692504882812,-9.853215217590332
1745653920.720652,0.0017209664219990373,-0.021790197119116783,0.3478485643863678,0.27334359288215637,0.9507668614387512,-9.905572891235352
1745653920.720695,-0.008649157360196114,-0.025939255952835083,0.3484126925468445,0.4185776114463806,0.8243182301521301,-9.606738090515137
1745653920.748694,-0.001343078096397221,-0.028554007411003113,0.34727901220321655,0.3340354561805725,0.954947292804718,-9.626255989074707
1745653920.7487593,-0.014184038154780865,-0.022024940699338913,0.34623369574546814,0.422557532787323,0.8125235438346863,-9.871469497680664
1745653920.7488062,-0.011417008005082607,-0.028288230299949646,0.3470919728279114,0.41167107224464417,0.7849165797233582,-9.804226875305176
1745653920.7488487,-0.011159549467265606,-0.022113677114248276,0.3502153158187866,0.3657847046852112,0.864950954914093,-9.600472450256348
1745653920.7489033,-0.022717785090208054,-0.026464873924851418,0.34829360246658325,0.47062188386917114,0.7764804363250732,-9.724279403686523
1745653920.772204,-0.01136422622948885,-0.022534344345331192,0.3521325886249542,0.2688415050506592,0.9405683279037476,-9.837311744689941
1745653920.7722585,-0.012636418454349041,-0.02545304037630558,0.3503481447696686,0.5035241842269897,0.8969312906265259,-9.662453651428223
1745653920.7774792,-0.008105168119072914,-0.03072490729391575,0.3527272343635559,0.2978504002094269,0.8195514678955078,-9.81522274017334
1745653920.7781067,-0.0009261546656489372,-0.02667737379670143,0.35338476300239563,0.4327177107334137,0.8048499822616577,-9.676127433776855
1745653920.816985,-0.015026098117232323,-0.02655572071671486,0.3523549437522888,0.4437943398952484,0.8562167882919312,-9.71095085144043
1745653920.8186474,-0.00854516215622425,-0.023154105991125107,0.3547711670398712,0.20437940955162048,0.8206803202629089,-9.772931098937988
1745653920.8205624,-0.004859934560954571,-0.02956194058060646,0.35630500316619873,0.47243815660476685,0.836668848991394,-9.660353660583496
1745653920.8273046,-0.011814000084996223,-0.023779122158885002,0.3549313545227051,0.3148331642150879,0.9884092211723328,-9.754389762878418
1745653920.8550007,-0.0049796863459050655,-0.023481804877519608,0.3551214337348938,0.44362324476242065,0.8011164665222168,-9.835710525512695
1745653920.8594546,-0.006630872376263142,-0.029943445697426796,0.35486969351768494,0.2632746696472168,0.9477716684341431,-9.783803939819336
1745653920.8595016,-0.0022298148833215237,-0.021178875118494034,0.35574597120285034,0.3454371988773346,0.7546789050102234,-9.681266784667969
1745653920.8653836,-0.017077144235372543,-0.024290986359119415,0.3550656735897064,0.4186326861381531,0.9008186459541321,-9.618179321289062
1745653920.8654284,-0.016397330909967422,-0.02701651118695736,0.3553253412246704,0.31239914894104004,0.7927113175392151,-9.832674026489258
1745653920.9047196,-0.016699958592653275,-0.027291739359498024,0.35391998291015625,0.5663014650344849,0.8598459959030151,-9.80606746673584
1745653920.9047587,-0.015307803638279438,-0.020026538521051407,0.3562377095222473,0.29478541016578674,1.0033280849456787,-9.816917419433594
1745653920.907425,-0.017118405550718307,-0.02063927799463272,0.3548981845378876,0.3604052662849426,0.7930366396903992,-9.62872314453125
1745653920.9089885,-0.004151960369199514,-0.03080512024462223,0.35776054859161377,0.34880203008651733,0.9691523313522339,-9.619736671447754
1745653920.9432952,-0.011978350579738617,-0.019492385908961296,0.3569715619087219,0.3884853422641754,0.925922691822052,-9.83122730255127
1745653920.946356,-0.0011709397658705711,-0.02531907521188259,0.35891053080558777,0.3897833526134491,0.9439762830734253,-9.852399826049805
1745653920.9468904,0.006577279418706894,-0.019161075353622437,0.3559888005256653,0.22288377583026886,1.018742322921753,-9.689441680908203
1745653920.948237,0.0006494428962469101,-0.02351468801498413,0.3557254672050476,0.48730945587158203,0.8262699842453003,-9.637880325317383
1745653920.9849799,0.000356526201358065,-0.024504229426383972,0.3550654649734497,0.3040252923965454,0.9297602772712708,-9.838760375976562
1745653920.9852178,-0.0047025009989738464,-0.023127419874072075,0.3556743562221527,0.4111061096191406,0.6762689352035522,-9.865569114685059
1745653920.9952903,-0.00891345925629139,-0.026194056496024132,0.3552687168121338,0.39089325070381165,0.8520504832267761,-9.668729782104492
1745653920.9954388,-0.014338282868266106,-0.01793658174574375,0.35665932297706604,0.36103519797325134,0.7290434837341309,-9.670363426208496
1745653920.995532,-0.018973764032125473,-0.02284090220928192,0.3580133318901062,0.41011419892311096,0.8614903688430786,-9.744514465332031
1745653921.0322008,-0.009828638285398483,-0.02372853271663189,0.35703030228614807,0.33094844222068787,0.9048559069633484,-9.84978199005127
1745653921.0322483,-0.020676840096712112,-0.022875528782606125,0.356010764837265,0.49682387709617615,0.9181049466133118,-9.741886138916016
1745653921.0353262,-0.00387064041569829,-0.02358022704720497,0.35596102476119995,0.23357649147510529,0.9991469383239746,-9.72608470916748
1745653921.0353796,-0.011331571266055107,-0.022041689604520798,0.3562515377998352,0.3263236880302429,0.9191631078720093,-9.724032402038574
1745653921.0724556,-2.9804743462591432e-05,-0.025717124342918396,0.3555883765220642,0.36313503980636597,0.9313246607780457,-9.765912055969238
1745653921.0725486,0.0012050762306898832,-0.017576556652784348,0.35608091950416565,0.33730578422546387,0.9685044288635254,-9.768467903137207
1745653921.079228,-0.010644466616213322,-0.02696947753429413,0.3545212149620056,0.3858400881290436,0.8233433961868286,-9.753324508666992
1745653921.0793207,0.008734744042158127,-0.024344172328710556,0.35693302750587463,0.3675616383552551,0.933751106262207,-9.722147941589355
1745653921.0794575,-0.006680797785520554,-0.02117629535496235,0.35646873712539673,0.5102739334106445,0.7846862077713013,-9.768392562866211
1745653921.1160085,-0.004254787694662809,-0.019105566665530205,0.35753369331359863,0.2598531246185303,0.8329312205314636,-9.8056001663208
1745653921.1161954,-0.00350179523229599,-0.024796834215521812,0.35863131284713745,0.44667473435401917,0.7229224443435669,-9.656645774841309
1745653921.1182063,-0.014695324003696442,-0.0272197462618351,0.35788631439208984,0.42716044187545776,0.9213546514511108,-9.732351303100586
1745653921.1217544,-0.03194122761487961,-0.02829517424106598,0.3538992702960968,0.3743155896663666,0.8040105700492859,-9.88787841796875
1745653921.161539,-0.03594810515642166,-0.02600720524787903,0.3528442680835724,0.49414825439453125,0.8560976982116699,-9.794196128845215
1745653921.161697,-0.03802142292261124,-0.021426305174827576,0.35298895835876465,0.18247519433498383,0.9303547143936157,-9.665915489196777
1745653921.190744,-0.026408832520246506,-0.02927754446864128,0.35463401675224304,0.43203026056289673,0.8054668307304382,-9.577669143676758
1745653921.1908116,-0.030253371223807335,-0.03258133307099342,0.35546138882637024,0.40534234046936035,1.096186876296997,-9.806485176086426
1745653921.2042074,-0.019274877384305,-0.019861560314893723,0.3530697822570801,0.37307700514793396,0.9037810564041138,-9.951875686645508
1745653921.2042556,-0.024731002748012543,-0.031330931931734085,0.35338038206100464,0.3448971211910248,1.0049723386764526,-9.675248146057129
1745653921.2057767,-0.010915329679846764,-0.027801746502518654,0.35174494981765747,0.3087674677371979,0.872429370880127,-9.613502502441406
1745653921.2131574,-0.025037799030542374,-0.028896361589431763,0.351788729429245,0.5022367238998413,0.8672401309013367,-9.732973098754883
1745653921.2514286,-0.027729028835892677,-0.026698952540755272,0.3514699339866638,0.25710955262184143,0.7950602173805237,-9.944573402404785
1745653921.2515254,-0.02732645347714424,-0.02826172113418579,0.3536638021469116,0.5172520875930786,0.7523547410964966,-9.668774604797363
1745653921.2515771,-0.03640824928879738,-0.029443984851241112,0.3516849875450134,0.3460017740726471,0.9032660722732544,-9.5785493850708
1745653921.2516258,-0.03886895999312401,-0.023268328979611397,0.3518070578575134,0.323039710521698,0.7761678695678711,-9.783915519714355
1745653921.251998,-0.03643474355340004,-0.031790927052497864,0.352470338344574,0.4380455017089844,0.8601163029670715,-9.777435302734375
1745653921.3003557,-0.032756321132183075,-0.026679540053009987,0.3519193232059479,0.3339335322380066,0.9889861941337585,-9.713861465454102
1745653921.3004777,-0.03520740568637848,-0.026638265699148178,0.35366904735565186,0.45585328340530396,0.8646916151046753,-9.686396598815918
1745653921.3006208,-0.02661077119410038,-0.029333006590604782,0.35329848527908325,0.2196318358182907,1.0120856761932373,-9.8106050491333
1745653921.3007095,-0.02884473279118538,-0.026571819558739662,0.35310259461402893,0.42875784635543823,0.7861703038215637,-9.729930877685547
1745653921.3314576,-0.029330750927329063,-0.02811574377119541,0.3537781834602356,0.3753448724746704,0.9981635808944702,-9.620843887329102
1745653921.3315997,-0.03482803702354431,-0.024747787043452263,0.35318723320961,0.3654400706291199,0.7907209396362305,-9.781746864318848
1745653921.3316631,-0.03322640806436539,-0.03452529385685921,0.35265859961509705,0.5375169515609741,0.890404999256134,-9.804113388061523
1745653921.3350968,-0.03176123648881912,-0.02657305635511875,0.35176998376846313,0.3489148020744324,0.8860266804695129,-9.80970573425293
1745653921.3430424,-0.04237205535173416,-0.02545902691781521,0.3527604639530182,0.43936625123023987,0.8183059692382812,-9.611735343933105
1745653921.4056013,-0.0387435220181942,-0.02905375137925148,0.3553420305252075,0.506919264793396,0.8977978825569153,-9.770330429077148
1745653921.4086607,-0.03520344942808151,-0.031477272510528564,0.35395753383636475,0.33867737650871277,1.037348985671997,-9.852084159851074
1745653921.4087007,-0.03047875501215458,-0.022657930850982666,0.3537629544734955,0.22759024798870087,0.9335482716560364,-9.731596946716309
1745653921.4101584,-0.02962028980255127,-0.032848283648490906,0.352733314037323,0.4123934209346771,0.9030647277832031,-9.564848899841309
1745653921.4170225,-0.024225259199738503,-0.02756066620349884,0.3536185324192047,0.3217553198337555,1.003235101699829,-9.71660041809082
1745653921.4191623,-0.04040026664733887,-0.027769949287176132,0.35346072912216187,0.4369763731956482,0.7333394289016724,-9.904797554016113
1745653921.4234445,-0.028028901666402817,-0.032317351549863815,0.35276442766189575,0.3330783545970917,0.8770567774772644,-9.738749504089355
1745653921.4251623,-0.039691124111413956,-0.026061903685331345,0.3543201684951782,0.44288960099220276,0.7760833501815796,-9.538351058959961
1745653921.4577117,-0.04600006714463234,-0.030267704278230667,0.35621896386146545,0.368403822183609,0.9302715063095093,-9.715030670166016
1745653921.4592419,-0.03480051830410957,-0.030325407162308693,0.35519030690193176,0.3775734305381775,0.8318907022476196,-9.941911697387695
1745653921.460747,-0.044794827699661255,-0.029227588325738907,0.3555102050304413,0.4607548117637634,1.021877408027649,-9.723188400268555
1745653921.4620428,-0.03321342170238495,-0.027911564335227013,0.3531144857406616,0.25820451974868774,0.9762304425239563,-9.621745109558105
1745653921.5022054,-0.03837277740240097,-0.031145449727773666,0.35479599237442017,0.39743345975875854,0.9738550186157227,-9.717277526855469
1745653921.504029,-0.018428701907396317,-0.026609763503074646,0.3531021177768707,0.32435888051986694,1.0011752843856812,-9.76142692565918
1745653921.5060976,-0.02585711143910885,-0.021487239748239517,0.3529621958732605,0.4499151110649109,0.951339602470398,-9.637088775634766
1745653921.5099297,-0.02034583128988743,-0.022195810452103615,0.3555454611778259,0.2388290911912918,1.0740792751312256,-9.70989990234375
1745653921.511727,-0.012516665272414684,-0.021324601024389267,0.3536241352558136,0.3850863575935364,0.8912733793258667,-9.747976303100586
1745653921.5533006,-0.015367875806987286,-0.025540079921483994,0.3545309901237488,0.38956281542778015,1.1266547441482544,-9.746870040893555
1745653921.553387,-0.007109846919775009,-0.019946996122598648,0.3515166938304901,0.3033052384853363,0.9601534008979797,-9.77021312713623
1745653921.5536847,-0.014662285335361958,-0.02446720190346241,0.35093116760253906,0.3526724576950073,0.9656288027763367,-9.725239753723145
1745653921.5543036,-0.00797389354556799,-0.021169256418943405,0.3535671830177307,0.30744513869285583,0.9059664011001587,-9.73638916015625
1745653921.5941246,-0.019161824136972427,-0.023541515693068504,0.34956780076026917,0.5185758471488953,0.8856595158576965,-9.7006196975708
1745653921.5942051,-0.02635784074664116,-0.023179300129413605,0.3505747318267822,0.27080297470092773,0.9476228952407837,-9.84022331237793
1745653921.594265,-0.01972789503633976,-0.024362917989492416,0.3522612452507019,0.44790118932724,0.8373657464981079,-9.760272979736328
1745653921.5943148,-0.023453883826732635,-0.027308380231261253,0.35184431076049805,0.3881792724132538,1.0259660482406616,-9.672517776489258
1745653921.5943623,-0.022275792434811592,-0.0165761299431324,0.35267287492752075,0.28250852227211,0.9093955755233765,-9.762299537658691
1745653921.6297717,-0.018813693895936012,-0.025806769728660583,0.352637380361557,0.4002222418785095,0.9307634234428406,-9.725530624389648
1745653921.631739,-0.012756546027958393,-0.0246092788875103,0.35333627462387085,0.27100706100463867,1.106142282485962,-9.70024585723877
1745653921.6335015,-0.012248155660927296,-0.021783988922834396,0.3519189655780792,0.4747878909111023,0.9758082628250122,-9.705926895141602
1745653921.6360435,-0.012221943587064743,-0.025145594030618668,0.3520829677581787,0.24608969688415527,1.078313946723938,-9.870107650756836
1745653921.6741621,-0.004520425107330084,-0.021287385374307632,0.34963512420654297,0.40090274810791016,0.8360954523086548,-9.767276763916016
1745653921.6820621,-0.01129169575870037,-0.02624107524752617,0.3515515923500061,0.3944050669670105,1.0407601594924927,-9.572306632995605
1745653921.6826618,-0.01608598604798317,-0.021406065672636032,0.3499675691127777,0.3036578893661499,0.8233272433280945,-9.77044677734375
1745653921.6827374,-0.018452992662787437,-0.02902780845761299,0.3515278398990631,0.48004764318466187,0.8865252733230591,-9.830301284790039
1745653921.6827917,-0.010958331637084484,-0.021502595394849777,0.35135024785995483,0.3018984794616699,0.9902974963188171,-9.755812644958496
1745653921.718161,-0.02042829990386963,-0.017941556870937347,0.3521077632904053,0.43814021348953247,0.9038863182067871,-9.624457359313965
1745653921.7206368,-0.012625202536582947,-0.02448515221476555,0.35300320386886597,0.3467417359352112,0.9740461111068726,-9.758180618286133
1745653921.7258008,-0.010557973757386208,-0.01879556104540825,0.352938711643219,0.22827939689159393,0.9316921234130859,-9.665505409240723
1745653921.729072,-0.017419755458831787,-0.028542954474687576,0.35177081823349,0.45982736349105835,0.8785756230354309,-9.630937576293945
1745653921.7665596,-0.007524668239057064,-0.0241166353225708,0.350688636302948,0.3435283303260803,1.0186762809753418,-9.836235046386719
1745653921.7666657,-0.025648538023233414,-0.021716022863984108,0.3518035411834717,0.43954163789749146,0.8634344339370728,-9.874353408813477
1745653921.7667413,-0.012639242224395275,-0.028585270047187805,0.35017305612564087,0.3315351605415344,0.9739043116569519,-9.682015419006348
1745653921.7668,-0.01798451878130436,-0.02082500234246254,0.3509880602359772,0.41391047835350037,0.9220539331436157,-9.559457778930664
1745653921.8022592,-0.026617879047989845,-0.024792103096842766,0.3516155183315277,0.3735607862472534,0.9573990106582642,-9.74010944366455
1745653921.8048418,-0.006454973481595516,-0.023286398500204086,0.354466050863266,0.32407042384147644,0.9134193658828735,-9.891677856445312
1745653921.8053868,-0.0188056081533432,-0.025060588493943214,0.35224437713623047,0.42056703567504883,1.1019054651260376,-9.640730857849121
1745653921.8120387,-0.0038153263740241528,-0.02521735429763794,0.3498258888721466,0.28531932830810547,1.028337836265564,-9.6749267578125
1745653921.8454835,-0.012877294793725014,-0.02503536269068718,0.35098710656166077,0.44624024629592896,0.9851435422897339,-9.794286727905273
1745653921.8520813,-0.0037643923424184322,-0.029318490996956825,0.35065120458602905,0.4835505485534668,0.8952687382698059,-9.651247024536133
1745653921.8522038,-0.010755141265690327,-0.025219732895493507,0.3543652892112732,0.267288476228714,0.9324637651443481,-9.802897453308105
1745653921.8626866,0.003588292049244046,-0.025921519845724106,0.3546465039253235,0.4197666645050049,0.7864799499511719,-9.765935897827148
1745653921.892111,0.0068635232746601105,-0.03781332075595856,0.35108762979507446,0.3899056613445282,1.4428592920303345,-9.63755989074707
1745653921.8926218,0.013759428635239601,-0.03492042422294617,0.34042829275131226,-0.025668064132332802,1.2472983598709106,-10.123907089233398
1745653921.8992171,0.031079310923814774,-0.038215555250644684,0.33059486746788025,-0.028357286006212234,1.380991816520691,-9.700508117675781
1745653921.8992896,0.05627099797129631,-0.04011281579732895,0.32099494338035583,-0.21872404217720032,1.1954631805419922,-9.43397045135498
1745653921.9318101,0.046753402799367905,-0.040459536015987396,0.31719833612442017,-0.1939520388841629,1.0707337856292725,-9.747843742370605
1745653921.9319813,0.06437201052904129,-0.04323715344071388,0.31694087386131287,-0.2957989573478699,0.6054595708847046,-9.972444534301758
1745653921.9336452,0.06988967955112457,-0.030852094292640686,0.3175142705440521,0.11507205665111542,0.34277239441871643,-9.40935230255127
1745653921.9352233,0.024958182126283646,-0.04053044691681862,0.31778597831726074,0.05880267173051834,0.5659275650978088,-9.524797439575195
1745653921.9365191,0.02366335690021515,-0.050915349274873734,0.31585854291915894,0.2656558156013489,0.13016802072525024,-10.248564720153809
1745653921.9786136,0.0007127587450668216,-0.042226217687129974,0.3146708607673645,0.3349214196205139,0.5036063194274902,-10.071869850158691
1745653921.9790492,-0.031027138233184814,-0.03887217491865158,0.30772778391838074,-0.005279106087982655,0.6235946416854858,-9.448163986206055
1745653921.9850786,-0.054976750165224075,-0.057578157633543015,0.3038703203201294,0.12373070418834686,0.5452104806900024,-9.440787315368652
1745653921.9851384,-0.0533570758998394,-0.055654413998126984,0.2995034158229828,-0.024184031412005424,1.1264653205871582,-9.946496963500977
1745653922.0180306,-0.04358880966901779,-0.047209206968545914,0.2917872965335846,0.16223084926605225,1.2089223861694336,-9.963010787963867
1745653922.021821,-0.043121349066495895,-0.05696440488100052,0.2867702841758728,0.026190420612692833,1.4258798360824585,-9.58952808380127
1745653922.0302677,0.021800795570015907,-0.06065580993890762,0.2822395861148834,0.1770903766155243,1.3884977102279663,-9.668474197387695
1745653922.0316393,0.026691460981965065,-0.059232693165540695,0.28244882822036743,0.23273725807666779,1.633030891418457,-10.027556419372559
1745653922.03174,0.0706363320350647,-0.05740652233362198,0.2814294397830963,-0.012207727879285812,1.0440160036087036,-10.049420356750488
1745653922.0657413,0.10115985572338104,-0.05989004299044609,0.2812536656856537,0.16760775446891785,1.2076057195663452,-9.279291152954102
1745653922.0681598,0.08268778026103973,-0.0608057864010334,0.277949720621109,-3.6567448660207447e-06,1.0160971879959106,-9.563484191894531
1745653922.0713336,0.07951142638921738,-0.05399684980511665,0.2589559257030487,0.05970761924982071,0.6140275597572327,-9.351301193237305
1745653922.0757709,0.05509509891271591,-0.07016672939062119,0.2544894814491272,0.01594877988100052,0.5091562867164612,-9.451457977294922
1745653922.1105533,0.01648881286382675,-0.07074038684368134,0.2523801624774933,-0.14349426329135895,0.15819516777992249,-10.216219902038574
1745653922.1118531,0.019616514444351196,-0.052954502403736115,0.2503480315208435,-0.10504820197820663,0.43162354826927185,-9.851502418518066
1745653922.1120443,-0.025907406583428383,-0.05827301740646362,0.24695491790771484,-0.03170059993863106,0.6233198642730713,-9.260964393615723
1745653922.117543,-0.002232027007266879,-0.06997090578079224,0.2460608184337616,0.4147814214229584,0.641480565071106,-9.674641609191895
1745653922.1497471,0.009364302270114422,-0.06734821945428848,0.2425658255815506,0.17150458693504333,1.4042227268218994,-10.468513488769531
1745653922.150839,0.038414400070905685,-0.05822957307100296,0.23920032382011414,0.2021263837814331,1.0576791763305664,-10.029903411865234
1745653922.1512125,0.08341485261917114,-0.060553472489118576,0.23789267241954803,0.09179829061031342,1.3068300485610962,-9.156051635742188
1745653922.1530797,0.051169075071811676,-0.07232246547937393,0.23404774069786072,-0.08350996673107147,1.1337318420410156,-9.559370994567871
1745653922.1950748,0.12682482600212097,-0.06406046450138092,0.2289852648973465,0.21234428882598877,1.1409876346588135,-10.034629821777344
1745653922.2003436,0.07315496355295181,-0.051719535142183304,0.2165290117263794,-0.09576286375522614,1.4405112266540527,-9.936387062072754
1745653922.2004066,0.12780500948429108,-0.05924277752637863,0.20667608082294464,0.3845808506011963,0.6514822244644165,-9.438397407531738
1745653922.200466,0.13952124118804932,-0.005618251860141754,0.15983062982559204,0.12974485754966736,0.7904112935066223,-9.76072883605957
1745653922.2070062,0.12075859308242798,-0.0011951966444030404,0.1571330428123474,0.06081874296069145,0.1424102932214737,-10.000899314880371
1745653922.2349231,0.11880344152450562,-0.006347967777401209,0.1607944816350937,0.1700068563222885,0.15418356657028198,-9.721121788024902
1745653922.2350981,0.10599460452795029,0.0019340894650667906,0.1630331575870514,0.018737327307462692,0.3069608211517334,-9.536222457885742
1745653922.2371862,0.08344125747680664,0.005742961075156927,0.16215594112873077,0.19403409957885742,0.15722410380840302,-9.7262544631958
1745653922.2400708,0.08698074519634247,-0.004162442870438099,0.1600176990032196,0.13073484599590302,0.5172874331474304,-9.901251792907715
1745653922.276218,0.08580813556909561,0.006703140679746866,0.15758250653743744,0.07753948867321014,0.49178236722946167,-9.935784339904785
1745653922.2776651,0.07357321679592133,0.0035636157263070345,0.1528424322605133,0.013248088769614697,0.6456207633018494,-9.66231918334961
1745653922.2799199,0.09181685000658035,0.007650093641132116,0.15155062079429626,-0.05282004922628403,0.4845278263092041,-9.596609115600586
1745653922.2817922,0.08235512673854828,0.004930099938064814,0.15172125399112701,0.1733790934085846,0.6237653493881226,-9.72563648223877
1745653922.2830918,0.08653328567743301,0.007720219902694225,0.14707835018634796,0.06355266273021698,0.5955674052238464,-9.96965217590332
1745653922.3224719,0.10124830901622772,0.013781145215034485,0.14848805963993073,0.31500697135925293,0.6265549659729004,-9.709412574768066
1745653922.3225257,0.09814174473285675,0.004674429539591074,0.14459872245788574,0.18123722076416016,0.7915031313896179,-9.686800956726074
1745653922.3225799,0.1141580194234848,0.008190875872969627,0.1374635398387909,0.5331036448478699,0.5839024782180786,-9.824646949768066
1745653922.3226259,0.11698168516159058,-0.0018398298416286707,0.13313725590705872,0.5849336981773376,0.9559421539306641,-10.013910293579102
1745653922.3634038,0.13686218857765198,0.02733094058930874,0.1188570037484169,-0.11364028602838516,0.996431827545166,-10.009468078613281
1745653922.3643212,0.14732979238033295,0.006964528001844883,0.10506351292133331,0.6970725059509277,0.7340993881225586,-8.962303161621094
1745653922.367854,0.18352797627449036,0.006393709685653448,0.10066499561071396,0.4992688298225403,0.8562987446784973,-9.696130752563477
1745653922.3695638,0.16168372333049774,0.01919742301106453,0.09255808591842651,0.24272827804088593,0.22593554854393005,-10.669512748718262
1745653922.3751235,0.1940789520740509,0.023742496967315674,0.09338857978582382,0.06118275970220566,-0.03765875846147537,-9.681474685668945
1745653922.4132128,0.17421740293502808,0.037884075194597244,0.09203780442476273,0.23318085074424744,0.2387143075466156,-8.625911712646484
1745653922.413378,0.10882826149463654,0.019409585744142532,0.08399540930986404,0.41081270575523376,-0.3999045491218567,-9.89933967590332
1745653922.4134395,0.15816910564899445,0.03100564517080784,0.07666078209877014,0.38590294122695923,0.5016226172447205,-10.604487419128418
1745653922.4178011,0.09042544662952423,0.042347945272922516,0.0618310272693634,0.33695951104164124,0.052889633923769,-9.90064811706543
1745653922.4480798,0.0973842591047287,0.03670772910118103,0.05727338045835495,0.2630125880241394,0.25992825627326965,-8.97475814819336
1745653922.4501438,0.06147245690226555,0.02437708154320717,0.049984682351350784,0.6553694605827332,0.19471319019794464,-9.61402702331543
1745653922.4536233,0.08867014944553375,0.026820939034223557,0.047327786684036255,0.41102784872055054,0.3388691544532776,-10.576290130615234
1745653922.4581428,0.0772228017449379,0.0529189333319664,0.046131689101457596,0.15821930766105652,0.8933899998664856,-9.981508255004883
1745653922.493316,0.10995229333639145,0.03255734592676163,0.04078630730509758,0.4755973815917969,0.40785908699035645,-9.023554801940918
1745653922.4934433,0.1632254719734192,0.02596113458275795,0.03459882363677025,0.24820199608802795,1.565882682800293,-9.419400215148926
1745653922.5067532,0.1500750631093979,0.03516479581594467,0.02720748260617256,0.40690237283706665,0.7017324566841125,-10.693258285522461
1745653922.506936,0.2441043108701706,0.0429157018661499,0.016965631395578384,0.13355550169944763,1.0527185201644897,-9.962189674377441
1745653922.5070121,0.20438341796398163,0.041851893067359924,0.01002754271030426,0.23218271136283875,0.45179644227027893,-8.985527038574219
1745653922.5370471,0.21932289004325867,0.025046199560165405,0.005713354796171188,0.43463459610939026,0.27884525060653687,-9.453786849975586
1745653922.5399065,0.20182962715625763,0.0396256148815155,0.0022749947383999825,0.47944173216819763,0.03496510535478592,-10.407369613647461
1745653922.5423567,0.19517962634563446,0.05056003853678703,-0.005556428339332342,0.5348093509674072,-0.01345398835837841,-9.955556869506836
1745653922.545536,0.13091391324996948,0.01149552222341299,-0.1148175373673439,0.5609595775604248,-0.4031788408756256,-9.687302589416504
1745653922.5801249,0.12335394322872162,0.015591648407280445,-0.11365469545125961,0.36328262090682983,-0.45898813009262085,-9.754692077636719
1745653922.581439,0.11329984664916992,0.013564663007855415,-0.11383441835641861,0.49396878480911255,-0.1803484857082367,-9.723857879638672
1745653922.5845115,0.10377265512943268,0.010141009464859962,-0.11731056869029999,0.2668914198875427,-0.16435791552066803,-9.781976699829102
1745653922.5873554,0.1288931667804718,0.014948612079024315,-0.1175568550825119,0.33123937249183655,-0.03323904797434807,-9.638385772705078
1745653922.6233459,0.11554817110300064,0.008233031257987022,-0.12218227237462997,0.32696494460105896,0.20796899497509003,-9.638091087341309
1745653922.623481,0.1438142955303192,0.016101324930787086,-0.12224777042865753,0.2912290692329407,-0.030099406838417053,-9.808930397033691
1745653922.623559,0.13543018698692322,0.008687389083206654,-0.12612827122211456,0.42002859711647034,0.10700657218694687,-9.798803329467773
1745653922.6241393,0.15185798704624176,0.007650254759937525,-0.12959381937980652,0.4067399501800537,-0.12678593397140503,-9.792981147766113
1745653922.6324198,0.1474420726299286,0.00996461696922779,-0.1269773542881012,0.6035085916519165,-0.11309198290109634,-9.692750930786133
1745653922.6717505,0.13973848521709442,0.0012169508263468742,-0.1312095820903778,0.4769100248813629,-0.2317945510149002,-9.819138526916504
1745653922.6756854,0.13600076735019684,0.0023934985511004925,-0.1342466175556183,0.5345295667648315,-0.27317899465560913,-9.776619911193848
1745653922.6757512,0.11175008863210678,-0.0020536889787763357,-0.13348305225372314,0.4238561689853668,-0.302881121635437,-9.78779411315918
1745653922.6822486,0.13216641545295715,0.005375144071877003,-0.13686154782772064,0.3240164816379547,-0.16822533309459686,-9.73061466217041
1745653922.7069795,0.10447341203689575,-0.0057245963253080845,-0.14047697186470032,0.43247509002685547,-0.1602550745010376,-9.703219413757324
1745653922.7402868,0.120357945561409,-0.0031206030398607254,-0.14289718866348267,0.28490540385246277,-0.24821393191814423,-9.85704517364502
1745653922.740347,0.12090709060430527,-0.0011624062899500132,-0.14301717281341553,0.4235178530216217,-0.16243486106395721,-9.732770919799805
1745653922.7404122,0.11121312528848648,-0.005500508472323418,-0.1441347450017929,0.26074057817459106,-0.24603024125099182,-9.706955909729004
1745653922.7535276,0.12111945450305939,0.0018948132637888193,-0.14483577013015747,0.3935397267341614,-0.3771578371524811,-9.7230806350708
1745653922.7535915,0.10315635055303574,-0.010379008948802948,-0.1449224054813385,0.43420401215553284,-0.3392767906188965,-9.78415584564209
1745653922.7597723,0.11557517945766449,-0.0022363602183759212,-0.14730796217918396,0.4183530807495117,-0.27306675910949707,-9.884866714477539
1745653922.7648962,0.0935441106557846,-0.00478010019287467,-0.14844755828380585,0.5002247095108032,-0.2326509654521942,-9.733530044555664
1745653922.7703397,0.09989218413829803,-0.004610476084053516,-0.15286706387996674,0.3222307562828064,-0.23566870391368866,-9.69948959350586
1745653922.792094,0.07946966588497162,-0.01223429013043642,-0.16058573126792908,0.4803926348686218,-0.2347746640443802,-9.980001449584961
1745653922.7937045,0.10056339204311371,0.004203955642879009,-0.1640036255121231,0.4660477638244629,0.02608416974544525,-9.80301570892334
1745653922.7956991,0.09276960045099258,-0.010918663814663887,-0.16845396161079407,0.6145033240318298,-0.08026658743619919,-9.482275009155273
1745653922.7998366,0.12256650626659393,-0.007812331430613995,-0.16830164194107056,0.5731593370437622,-0.09771141409873962,-9.806833267211914
1745653922.8366833,0.11454440653324127,-0.006757605820894241,-0.16957958042621613,0.5999664068222046,-0.216207355260849,-10.084753036499023
1745653922.8418372,0.14236940443515778,-0.0021496019326150417,-0.1719319224357605,0.2731136679649353,-0.1817554533481598,-9.836692810058594
1745653922.856164,0.12907347083091736,0.0003110930265393108,-0.17162463068962097,0.4738229811191559,-0.3575265407562256,-9.331964492797852
1745653922.857345,0.12914371490478516,-0.006828001234680414,-0.17989671230316162,0.4148971140384674,-0.27079668641090393,-9.701033592224121
1745653922.884273,0.11652721464633942,-0.002283393871039152,-0.1820313036441803,0.5315669775009155,-0.3543475270271301,-10.14950942993164
1745653922.9155934,0.10256920754909515,-0.0029950872994959354,-0.18890540301799774,0.5462636351585388,-0.4710802435874939,-9.952329635620117
1745653922.929287,0.10051344335079193,-0.00017419825599063188,-0.19021755456924438,0.46275821328163147,-0.5968950986862183,-9.537613868713379
1745653922.929471,0.07134807854890823,-0.010586710646748543,-0.19150792062282562,0.6448467969894409,-0.5968126654624939,-9.719491958618164
1745653922.9295375,0.07270505279302597,-0.00548517145216465,-0.1914636790752411,0.44198912382125854,-0.3804371953010559,-10.11833381652832
1745653922.9295866,0.07721903175115585,-0.0038704783655703068,-0.24864010512828827,0.5317251682281494,-0.5482562780380249,-9.530643463134766
1745653922.9296348,0.08778009563684464,-0.00971931777894497,-0.24895207583904266,0.43847641348838806,-0.24733705818653107,-9.598347663879395
1745653922.9298098,0.08878381550312042,-0.005505765322595835,-0.24922342598438263,0.46044406294822693,-0.5652309656143188,-10.017341613769531
1745653922.936693,0.09871768951416016,-0.00624932162463665,-0.24692435562610626,0.48621708154678345,-0.3481578826904297,-9.86656665802002
1745653922.9721467,0.09783614426851273,-0.0033939480781555176,-0.24910330772399902,0.3833748698234558,-0.5864042043685913,-9.622968673706055
1745653922.9735081,0.10099063068628311,-0.010239684022963047,-0.25087717175483704,0.5681197643280029,-0.520901083946228,-9.624322891235352
1745653922.9764018,0.08684448152780533,-0.00948411412537098,-0.254616916179657,0.4338441789150238,-0.4695618748664856,-9.992561340332031
1745653922.976502,0.08051545917987823,-0.00546653289347887,-0.2562355399131775,0.5927875638008118,-0.7770916223526001,-9.890107154846191
1745653923.0104787,0.08034876734018326,-0.010335469618439674,-0.25687214732170105,0.44586730003356934,-0.546822190284729,-9.580587387084961
1745653923.0147665,0.06559130549430847,-0.010985977947711945,-0.2581923007965088,0.5411360859870911,-0.6468610167503357,-9.654706954956055
1745653923.0148594,0.07072538882493973,-0.010586334392428398,-0.2585010826587677,0.5377465486526489,-0.5446426272392273,-9.869677543640137
1745653923.014933,0.07222305238246918,-0.0049006203189492226,-0.2567993402481079,0.324116975069046,-0.4638144373893738,-9.860589981079102
1745653923.018416,0.0769437924027443,-0.012034574523568153,-0.25834527611732483,0.5964258313179016,-0.5668542385101318,-9.64589786529541
1745653923.052215,0.08729799091815948,-0.01315549947321415,-0.2566746175289154,0.2849530577659607,-0.30953773856163025,-9.741829872131348
1745653923.0565023,0.09065701067447662,-0.008270069025456905,-0.2589747905731201,0.5110728740692139,-0.5694878697395325,-9.920161247253418
1745653923.056613,0.09330631792545319,-0.01320949662476778,-0.26246291399002075,0.4211520254611969,-0.3562771677970886,-9.7172212600708
1745653923.0608385,0.08772356063127518,-0.010347934439778328,-0.26146578788757324,0.5021093487739563,-0.7238104939460754,-9.654627799987793
1745653923.0964081,0.08988045156002045,-0.017469028010964394,-0.26419979333877563,0.6004025340080261,-0.5693517923355103,-9.654119491577148
1745653923.0965369,0.0827207937836647,-0.012231636792421341,-0.26467424631118774,0.4421306252479553,-0.663436770439148,-9.932685852050781
1745653923.0984447,0.07235559076070786,-0.01043744571506977,-0.2639208436012268,0.6286784410476685,-0.7350814342498779,-9.814638137817383
1745653923.1166654,0.08043037354946136,-0.012162948027253151,-0.264370322227478,0.370324969291687,-0.4794054627418518,-9.644993782043457
1745653923.1170936,0.06908528506755829,-0.016296502202749252,-0.2655574679374695,0.5151011347770691,-0.6521189212799072,-9.776708602905273
1745653923.1417723,0.08521589636802673,-0.015129344537854195,-0.2654741108417511,0.42494410276412964,-0.35312095284461975,-9.8126802444458
1745653923.1425922,0.08039309084415436,-0.011874423362314701,-0.2668289542198181,0.36605411767959595,-0.6062530875205994,-9.759831428527832
1745653923.1449957,0.09081952273845673,-0.015343797393143177,-0.2670413851737976,0.482163667678833,-0.46370166540145874,-9.556905746459961
1745653923.1481786,0.0862254947423935,-0.013111157342791557,-0.26836109161376953,0.3805791437625885,-0.6279363632202148,-9.751152038574219
1745653923.183268,0.09303842484951019,-0.014240607619285583,-0.2673998177051544,0.5777812004089355,-0.6715124249458313,-9.905705451965332
1745653923.1833472,0.09249170869588852,-0.01254318654537201,-0.26790088415145874,0.4682234227657318,-0.4924490451812744,-9.738642692565918
1745653923.1833987,0.08207017183303833,-0.013894282281398773,-0.26899436116218567,0.5602245330810547,-0.7813705205917358,-9.691934585571289
1745653923.1864214,0.09289972484111786,-0.015588035807013512,-0.26896369457244873,0.4390661120414734,-0.5411738753318787,-9.761316299438477
1745653923.1864924,0.08446400612592697,-0.011669643223285675,-0.27050477266311646,0.47266167402267456,-0.5935139656066895,-9.773064613342285
1745653923.2311962,0.08174658566713333,-0.017654499039053917,-0.2724848985671997,0.5306228995323181,-0.6160297989845276,-9.691200256347656
1745653923.2312942,0.08849823474884033,-0.010771258734166622,-0.2755495309829712,0.3470417857170105,-0.4641517102718353,-9.702620506286621
1745653923.231467,0.07849448174238205,-0.01888999715447426,-0.27513226866722107,0.5964981913566589,-0.7970725297927856,-9.728245735168457
1745653923.231967,0.08914588391780853,-0.01601170375943184,-0.27479177713394165,0.3909413814544678,-0.578599750995636,-9.845598220825195
1745653923.2682135,0.07796742767095566,-0.016289953142404556,-0.2722780108451843,0.589170515537262,-0.8895123600959778,-9.879669189453125
1745653923.2769697,0.05311185121536255,-0.02281237207353115,-0.28107956051826477,0.4722680151462555,-0.7485787272453308,-9.563961029052734
1745653923.2803905,0.04695893079042435,-0.026334580034017563,-0.2820555567741394,0.49485960602760315,-0.702526867389679,-9.731462478637695
1745653923.2835767,0.059993259608745575,-0.020244142040610313,-0.28288236260414124,0.44949284195899963,-0.7958472967147827,-9.94413948059082
1745653923.3096297,0.04889833927154541,-0.027516240254044533,-0.2818520963191986,0.4908265173435211,-0.7564651370048523,-9.858494758605957
1745653923.3116803,0.06178585812449455,-0.02189081534743309,-0.2831161618232727,0.3859984874725342,-0.7332956194877625,-9.695237159729004
1745653923.3125775,0.047084905207157135,-0.02605237066745758,-0.2826833724975586,0.5401901602745056,-0.8559083938598633,-9.671915054321289
1745653923.317329,0.057689227163791656,-0.026969000697135925,-0.2800772786140442,0.38716694712638855,-0.7224313020706177,-9.795792579650879
1745653923.351546,0.0427616611123085,-0.020637786015868187,-0.28227096796035767,0.49164754152297974,-0.903032660484314,-9.75878620147705
1745653923.3536024,0.04927435144782066,-0.027518291026353836,-0.28411000967025757,0.40102019906044006,-0.7533940076828003,-9.705001831054688
1745653923.367222,0.04653332382440567,-0.01659185253083706,-0.2821369767189026,0.418825626373291,-0.7328611612319946,-9.669889450073242
1745653923.3672884,0.032492492347955704,-0.027340028434991837,-0.28629571199417114,0.5366897583007812,-0.8079317808151245,-9.811291694641113
1745653923.367881,0.051110416650772095,-0.01751200295984745,-0.28406620025634766,0.3641320765018463,-0.8622913360595703,-9.917969703674316
1745653923.3965945,0.038718316704034805,-0.022182973101735115,-0.28444692492485046,0.5183407664299011,-0.7898797988891602,-9.677263259887695
1745653923.399241,0.03985435515642166,-0.022525448352098465,-0.283606618642807,0.34037333726882935,-0.8471502065658569,-9.636819839477539
1745653923.4019186,0.046812523156404495,-0.017729688435792923,-0.28254419565200806,0.46657100319862366,-0.7148181200027466,-9.709182739257812
1745653923.407248,0.037361547350883484,-0.022327397018671036,-0.2845221757888794,0.44607409834861755,-0.7616972923278809,-9.793656349182129
1745653923.4424057,0.04791153222322464,-0.01559875626116991,-0.2824103832244873,0.4245888292789459,-0.7808148860931396,-9.78465747833252
1745653923.442555,0.03217357397079468,-0.023525554686784744,-0.2857913672924042,0.5369566679000854,-0.85053551197052,-9.752889633178711
1745653923.4431217,0.03886352479457855,-0.01893836446106434,-0.2867268919944763,0.354457288980484,-0.8059543371200562,-9.85755443572998
1745653923.4501772,0.02080029621720314,-0.020298434421420097,-0.28355440497398376,0.5144236087799072,-0.9313554763793945,-9.794857025146484
1745653923.4506211,0.030465494841337204,-0.0185181125998497,-0.2855052947998047,0.39420056343078613,-0.8399405479431152,-9.716205596923828
1745653923.4831376,0.03069276548922062,-0.017377709969878197,-0.28340455889701843,0.4740632474422455,-0.8350282907485962,-9.639993667602539
1745653923.4886432,0.020646218210458755,-0.02326640486717224,-0.2856118679046631,0.5526166558265686,-0.6926372647285461,-9.79429817199707
1745653923.491393,0.025416534394025803,-0.019566958770155907,-0.28652459383010864,0.4421244263648987,-0.7304412126541138,-9.724827766418457
1745653923.5248258,0.037166349589824677,-0.017860963940620422,-0.2849288880825043,0.39248308539390564,-0.8269528150558472,-9.715190887451172
1745653923.525797,0.02410099282860756,-0.019048986956477165,-0.28618481755256653,0.5075780749320984,-0.8169022798538208,-9.831216812133789
1745653923.5390139,0.03215080872178078,-0.021486038342118263,-0.2838868498802185,0.38404381275177,-0.8213114738464355,-9.888005256652832
1745653923.5440648,0.02057356759905815,-0.016298402100801468,-0.28619685769081116,0.48718851804733276,-0.9111668467521667,-9.664183616638184
1745653923.5442028,0.01857217773795128,-0.019678134471178055,-0.28324395418167114,0.44600194692611694,-0.8491736650466919,-9.63231086730957
1745653923.5696883,0.02330642193555832,-0.01559247076511383,-0.28615957498550415,0.5184611678123474,-0.7907541990280151,-9.72363567352295
1745653923.5726194,0.010132175870239735,-0.021627742797136307,-0.2867242693901062,0.5235203504562378,-0.7846663594245911,-9.836756706237793
1745653923.574606,0.01671529747545719,-0.012665783055126667,-0.28561514616012573,0.3403697609901428,-0.836464524269104,-9.897066116333008
1745653923.5765734,0.015445237047970295,-0.01761307567358017,-0.28453367948532104,0.476317822933197,-0.7723325490951538,-9.63722038269043
1745653923.6107638,0.01742146536707878,-0.020169716328382492,-0.28341978788375854,0.35228651762008667,-0.7854016423225403,-9.713427543640137
1745653923.613489,0.026812588796019554,-0.01310151256620884,-0.28469547629356384,0.49088215827941895,-0.7429696321487427,-9.84482192993164
1745653923.6156209,0.01764260232448578,-0.019994348287582397,-0.2850070595741272,0.4559400677680969,-0.7523809671401978,-9.780295372009277
1745653923.6185763,0.018560072407126427,-0.0229124017059803,-0.288291871547699,0.384808212518692,-0.9222304224967957,-9.73010540008545
1745653923.6322675,0.011796234175562859,-0.019643601030111313,-0.2861199378967285,0.5218328237533569,-0.9203914403915405,-9.839925765991211
1745653923.6561434,0.003767767222598195,-0.02193191833794117,-0.28694313764572144,0.43629035353660583,-0.7959873676300049,-9.748377799987793
1745653923.6603575,0.009224268607795238,-0.016620192676782608,-0.28414228558540344,0.540334165096283,-0.9598536491394043,-9.567842483520508
1745653923.6763678,0.0029204802121967077,-0.02406252920627594,-0.28373491764068604,0.38200414180755615,-0.7027310132980347,-9.686388969421387
1745653923.6765206,0.012794996611773968,-0.018578719347715378,-0.2855038046836853,0.48047447204589844,-0.856386661529541,-9.966794967651367
1745653923.7070763,0.011081332340836525,-0.021843615919351578,-0.281946063041687,0.4360043406486511,-0.6646263003349304,-9.882057189941406
1745653923.7072186,0.02233516052365303,-0.02034110389649868,-0.2845267057418823,0.2883618474006653,-0.7408314943313599,-9.676200866699219
1745653923.707405,0.012662762776017189,-0.02559310756623745,-0.2839335501194,0.4982650876045227,-0.8006176948547363,-9.570918083190918
1745653923.7075262,0.016447527334094048,-0.025355065241456032,-0.28329241275787354,0.37607190012931824,-0.7853739857673645,-9.813400268554688
1745653923.743356,0.021057678386569023,-0.015598041005432606,-0.284586101770401,0.5568471550941467,-0.8859983682632446,-9.735000610351562
1745653923.7434223,0.007010508328676224,-0.02571091428399086,-0.28444400429725647,0.4471589922904968,-0.7733381986618042,-9.587361335754395
1745653923.7438881,0.011269444599747658,-0.017224539071321487,-0.285250186920166,0.46904411911964417,-0.9679158926010132,-9.78675651550293
1745653923.751132,0.009636485017836094,-0.02256843075156212,-0.28096500039100647,0.4896434247493744,-0.7276922464370728,-9.85133171081543
1745653923.7833104,0.014845496043562889,-0.018525447696447372,-0.2821407914161682,0.30006474256515503,-0.7876531481742859,-9.86388111114502
1745653923.7871048,0.02029813453555107,-0.01837889477610588,-0.28390437364578247,0.4877889156341553,-0.7296122312545776,-9.59196949005127
1745653923.7903867,0.012581202201545238,-0.023509759455919266,-0.28276482224464417,0.2781786322593689,-0.7305601239204407,-9.627751350402832
1745653923.794566,0.02539026364684105,-0.017546333372592926,-0.28414517641067505,0.4615885615348816,-0.8143469095230103,-9.768693923950195
1745653923.796782,0.00985889695584774,-0.022750873118638992,-0.28308597207069397,0.4885525703430176,-0.8319466710090637,-9.810117721557617
1745653923.828257,0.025296619161963463,-0.01783822476863861,-0.28060024976730347,0.3531138598918915,-0.9088630676269531,-9.830767631530762
1745653923.828794,0.009725365787744522,-0.02005254104733467,-0.2802925705909729,0.5340837240219116,-0.7808623909950256,-9.638107299804688
1745653923.8291354,0.009708510711789131,-0.020525887608528137,-0.2794228196144104,0.3633281886577606,-0.8678938746452332,-9.78454875946045
1745653923.8332036,0.017247643321752548,-0.018846683204174042,-0.2783156931400299,0.5822487473487854,-0.864323616027832,-9.828994750976562
1745653923.8763711,0.01158850360661745,-0.024447893723845482,-0.2810584604740143,0.3903657793998718,-0.6386752128601074,-9.737339973449707
1745653923.877319,0.019824475049972534,-0.01738857291638851,-0.28087013959884644,0.4236508309841156,-0.8802698850631714,-9.646810531616211
1745653923.8773775,0.015139451250433922,-0.020206768065690994,-0.2812604010105133,0.3930393159389496,-0.6088695526123047,-9.610376358032227
1745653923.8776486,0.018855581060051918,-0.020261399447917938,-0.28192001581192017,0.4092150330543518,-0.8428781628608704,-9.845197677612305
1745653923.877722,0.020381493493914604,-0.018772318959236145,-0.2802555561065674,0.5302760004997253,-0.8243058323860168,-9.859779357910156
1745653923.9117653,0.01967349648475647,-0.0208648219704628,-0.27848944067955017,0.36897626519203186,-0.8852864503860474,-9.788912773132324
1745653923.9126635,0.014231754466891289,-0.020468462258577347,-0.2776666581630707,0.4620189666748047,-0.9122238159179688,-9.631852149963379
1745653923.913673,0.007293130271136761,-0.023822879418730736,-0.2774680554866791,0.3843785524368286,-0.7851252555847168,-9.718877792358398
1745653923.9157772,0.018121980130672455,-0.014341520145535469,-0.2779058516025543,0.44986623525619507,-0.8315237760543823,-9.791206359863281
1745653923.9560559,0.012670238502323627,-0.023067565634846687,-0.27824610471725464,0.4622122347354889,-0.7309622168540955,-9.640838623046875
1745653923.9647317,0.006671637296676636,-0.0179092176258564,-0.28213945031166077,0.3941391110420227,-0.7923128008842468,-9.729074478149414
1745653923.964797,0.011839242652058601,-0.014781950041651726,-0.28016388416290283,0.4922636151313782,-0.8231722712516785,-9.721162796020508
1745653923.9699697,0.00644064974039793,-0.02013743668794632,-0.28187716007232666,0.2984722852706909,-0.7235382199287415,-9.82170295715332
1745653923.9741428,0.00527049507945776,-0.007245641201734543,-0.280617892742157,0.43056827783584595,-0.8561912775039673,-9.915377616882324
1745653924.0061016,-0.004087901208549738,-0.015681622549891472,-0.27987828850746155,0.5056396722793579,-0.6867621541023254,-9.510621070861816
1745653924.0063007,-0.008282561786472797,-0.015967510640621185,-0.2801741063594818,0.3932802081108093,-0.8568550944328308,-9.741918563842773
1745653924.0064054,-0.00515808304771781,-0.015599420294165611,-0.27745017409324646,0.5459190607070923,-0.9202880859375,-9.994441032409668
1745653924.0064678,-0.003522561164572835,-0.014885282143950462,-0.2791047990322113,0.28324076533317566,-0.718939483165741,-9.858189582824707
1745653924.042575,-0.006985238753259182,-0.011024192906916142,-0.2762227952480316,0.4396858215332031,-0.931981086730957,-9.511816024780273
1745653924.0498838,-0.0007462299545295537,-0.01792682334780693,-0.27850162982940674,0.396296888589859,-0.5688660740852356,-9.511548042297363
1745653924.0499897,-0.00482114078477025,-0.01463603787124157,-0.2768123149871826,0.4695901870727539,-0.8244724273681641,-9.921005249023438
1745653924.0509474,-0.0011202575406059623,-0.017956603318452835,-0.27873218059539795,0.4520493149757385,-0.6733255982398987,-9.95026969909668
1745653924.0830698,0.00035512360045686364,-0.01093875989317894,-0.2787897288799286,0.3414924144744873,-0.8520037531852722,-9.727787971496582
1745653924.0853856,-0.0062314048409461975,-0.020764272660017014,-0.2776133418083191,0.4784736633300781,-0.86756831407547,-9.600799560546875
1745653924.0877523,-0.014826367609202862,-0.01828176900744438,-0.2753366529941559,0.35155200958251953,-0.7479871511459351,-9.87325382232666
1745653924.0890973,-0.00762583315372467,-0.013087456114590168,-0.27655282616615295,0.4873789846897125,-0.8603523373603821,-9.832048416137695
