timestamp,angular_vel_x,angular_vel_y,angular_vel_z,linear_acc_x,linear_acc_y,linear_acc_z
1745731529.6461253,-0.0058991750702261925,-0.001314971479587257,0.0015356107614934444,0.07896808534860611,0.14626337587833405,-9.750120162963867
1745731529.6461658,0.010621784254908562,0.0005641953321173787,-1.5227636140480172e-05,-0.061601750552654266,0.19380563497543335,-9.811077117919922
1745731529.6462195,-0.003710868302732706,0.0014074514620006084,0.0005832615424878895,0.1021682396531105,0.032781556248664856,-9.818270683288574
1745731529.6462564,0.007998567074537277,-0.0007387638324871659,0.0016984002431854606,-0.047917310148477554,0.263963520526886,-9.752351760864258
1745731529.6462803,0.00015990129031706601,0.0007931431755423546,0.00024188964744098485,0.06129435822367668,-0.010863358154892921,-9.811698913574219
1745731529.655893,0.0015775628853589296,-0.001230988884344697,0.003086969954892993,-0.00864316150546074,0.2775249481201172,-9.748767852783203
1745731529.6559362,0.008791742846369743,0.00213493756018579,0.0022633331827819347,-0.05674544721841812,0.0708506852388382,-9.776830673217773
1745731529.6575737,0.00532290805131197,-0.0028048264794051647,0.0042962851002812386,0.10160350799560547,0.2346876561641693,-9.841184616088867
1745731529.665869,0.01478036493062973,-0.0064475201070308685,-0.0011782380752265453,0.025128047913312912,0.21980252861976624,-9.871559143066406
1745731529.705857,-0.004674988798797131,0.016713712364435196,-0.004485360812395811,-0.22503432631492615,-0.1365552395582199,-9.782120704650879
1745731529.7059472,-0.012970048002898693,0.008744088932871819,0.005363525357097387,0.24885539710521698,0.004303464200347662,-9.189798355102539
1745731529.7059891,-0.010825598612427711,-0.024051830172538757,0.004671514965593815,0.45769429206848145,0.1362762749195099,-9.951749801635742
1745731529.7176852,-0.21535837650299072,0.02733175829052925,0.08737456053495407,0.7902954816818237,-0.2922908663749695,-9.595154762268066
1745731529.7406826,-0.17828944325447083,0.02479211613535881,0.08818954974412918,0.4272856116294861,0.4419179856777191,-9.743754386901855
1745731529.761079,-0.21212473511695862,0.04968324303627014,0.09110385179519653,0.461195170879364,0.577494740486145,-9.786893844604492
1745731529.7665741,-0.18334926664829254,0.05270228907465935,0.09394580870866776,0.18281002342700958,0.9118636846542358,-9.463813781738281
1745731529.7692537,-0.1525469571352005,0.0654195174574852,0.10538475215435028,0.5122873783111572,0.8817079663276672,-9.236224174499512
1745731529.7693257,-0.10723336786031723,0.04987970367074013,0.10729018598794937,0.9345529675483704,1.9484962224960327,-9.961514472961426
1745731529.8408005,-0.03468974679708481,0.030889134854078293,0.09304814785718918,0.45834222435951233,2.152242660522461,-11.023887634277344
1745731529.8484669,0.07207156717777252,0.051558684557676315,0.08524693548679352,0.2586955428123474,2.060246229171753,-10.188421249389648
1745731529.8500865,0.11407653987407684,0.05229060724377632,0.07977132499217987,-0.004977673292160034,1.7360957860946655,-8.80569076538086
1745731529.85156,0.13848944008350372,0.03440672159194946,0.08093337714672089,0.14196133613586426,0.3194294571876526,-9.398747444152832
1745731529.8680146,0.13421133160591125,0.050448227673769,0.09119223058223724,0.2904757857322693,0.17574405670166016,-10.176820755004883
1745731529.900574,0.12401628494262695,0.07667706161737442,0.10014519840478897,0.3458952009677887,-0.6578738689422607,-9.813912391662598
1745731529.9063406,0.07806386798620224,0.06910818070173264,0.10586708784103394,0.29621705412864685,-0.1340998411178589,-8.92009162902832
1745731529.9460056,0.05335018038749695,0.06648890674114227,0.10623059421777725,0.6373564600944519,-0.5751785635948181,-9.600369453430176
1745731529.9814389,0.0068299127742648125,0.07241880893707275,0.111782968044281,0.7932539582252502,-0.0921761766076088,-10.612275123596191
1745731529.9818935,0.02394907921552658,0.08084787428379059,0.11415503174066544,0.3705883026123047,-0.4367970824241638,-10.230520248413086
1745731529.9977887,-0.04243334382772446,0.07412470877170563,0.11823606491088867,0.571078896522522,-0.8112564086914062,-8.80824089050293
1745731530.0075285,-0.11783430725336075,0.046949710696935654,0.12826082110404968,0.5751923322677612,-0.9128387570381165,-9.606222152709961
1745731530.0277054,-0.09981097280979156,0.05667988210916519,0.12581300735473633,0.5008219480514526,0.21547889709472656,-11.015616416931152
1745731530.0277565,-0.16233985126018524,0.050555288791656494,0.11836858838796616,-0.16114114224910736,0.6248000860214233,-10.383615493774414
1745731530.053223,-0.09122643619775772,0.06522180140018463,0.11559055000543594,-0.30824989080429077,0.13743606209754944,-8.867761611938477
1745731530.058946,-0.11688919365406036,0.07333959639072418,0.12179680168628693,0.26661843061447144,0.5729839205741882,-8.482606887817383
1745731530.0629532,-0.10915982723236084,0.1239028126001358,0.1701582968235016,0.7165189981460571,0.07231127470731735,-9.148908615112305
1745731530.0658317,-0.10411114990711212,0.08869733661413193,0.17813651263713837,0.6126219034194946,-0.022897642105817795,-9.277155876159668
1745731530.0822177,-0.14735645055770874,0.09285122156143188,0.1767767369747162,0.544416606426239,0.7065607309341431,-10.429784774780273
1745731530.0850408,-0.1070433035492897,0.10000333935022354,0.17198322713375092,0.23201827704906464,1.2008700370788574,-10.146575927734375
1745731530.0925703,-0.034786906093358994,0.11220566183328629,0.1634335219860077,-0.16986361145973206,2.0512452125549316,-9.10688591003418
1745731530.0926616,-0.012932430021464825,0.08934049308300018,0.15341360867023468,0.5796298384666443,1.0677440166473389,-9.643239974975586
1745731530.0927246,0.0464310459792614,0.08758501708507538,0.15247097611427307,0.19846266508102417,1.48557710647583,-10.480981826782227
1745731530.0946884,0.1020197719335556,0.12811335921287537,0.16166391968727112,-0.02952287159860134,0.2216515988111496,-9.685552597045898
1745731530.0968661,0.11030855029821396,0.1310747265815735,0.18451501429080963,0.3824576735496521,-0.14053761959075928,-8.05085277557373
1745731530.0997355,0.05965503305196762,0.11568854749202728,0.20310235023498535,0.8641939163208008,-0.5567750930786133,-9.497751235961914
1745731530.1016023,0.06662458926439285,0.12268632650375366,0.2122189998626709,1.4891539812088013,-0.564193606376648,-11.064805030822754
1745731530.1066918,-0.009765991941094398,0.1353486329317093,0.2098887413740158,1.1210246086120605,-0.4023466110229492,-10.408842086791992
1745731530.1093254,-0.073147252202034,0.10430355370044708,0.20737294852733612,1.0276280641555786,-0.736492931842804,-9.389532089233398
1745731530.1107683,-0.13098858296871185,0.1012239009141922,0.2034168541431427,0.7058299779891968,-0.5402982831001282,-9.339509963989258
1745731530.117877,-0.04577407240867615,0.11490646749734879,0.3633692264556885,1.0560877323150635,0.6173954606056213,-9.676087379455566
1745731530.1179457,-0.0455993115901947,0.11409882456064224,0.36294111609458923,1.0323371887207031,0.8605650663375854,-9.838274002075195
1745731530.1207366,-0.04791067913174629,0.11715934425592422,0.36364734172821045,0.827802836894989,0.5419744849205017,-9.930377960205078
1745731530.1219785,-0.05432996153831482,0.10789211839437485,0.367096483707428,1.0299152135849,0.6393135786056519,-9.532106399536133
1745731530.1241367,-0.024238696321845055,0.11014707386493683,0.37048497796058655,0.7850806713104248,0.8401753306388855,-9.488931655883789
1745731530.127521,-0.037188563495874405,0.10678942501544952,0.3755071759223938,0.8170236349105835,0.6436958909034729,-9.924878120422363
1745731530.1275988,0.004498067311942577,0.1026996597647667,0.3783279061317444,0.7771145701408386,1.2057363986968994,-9.898687362670898
1745731530.1289837,0.025380292907357216,0.10595071315765381,0.3780025839805603,0.8237919807434082,0.747307300567627,-9.599603652954102
1745731530.131416,0.029593955725431442,0.09749595820903778,0.38209056854248047,0.8353856205940247,0.9636890292167664,-9.59110164642334
1745731530.1684017,0.056936800479888916,0.0914328470826149,0.3831331431865692,0.8202282786369324,0.55412358045578,-10.119860649108887
1745731530.1705453,0.04190772399306297,0.08948464691638947,0.38530468940734863,0.9865700006484985,0.42048826813697815,-9.897905349731445
1745731530.1728003,0.03858799487352371,0.08658221364021301,0.3873395025730133,0.9084016680717468,0.34243273735046387,-9.682060241699219
1745731530.1768544,0.0065078651532530785,0.07432598620653152,0.3895426392555237,1.0503294467926025,0.11238452047109604,-9.802397727966309
1745731530.178686,0.007084215525537729,0.06684370338916779,0.3925037980079651,0.9674088358879089,0.4592793881893158,-9.892217636108398
1745731530.2115948,-0.01901349425315857,0.07072097808122635,0.3921301066875458,1.0948259830474854,0.27036410570144653,-10.016160011291504
1745731530.21338,-0.01549132913351059,0.05580717325210571,0.39481693506240845,0.9682139158248901,0.7109597325325012,-9.83056640625
1745731530.2158427,-0.004947258159518242,0.04871482402086258,0.39736512303352356,0.9491537809371948,0.6135255098342896,-9.73465347290039
1745731530.217516,-0.00024003683938644826,0.046972956508398056,0.40081173181533813,0.9200536012649536,0.8360649347305298,-9.848015785217285
1745731530.2571568,0.03564169257879257,0.05102952569723129,0.40453729033470154,0.7583104968070984,0.8952058553695679,-9.873811721801758
1745731530.2573,0.045550186187028885,0.0406750813126564,0.40744465589523315,0.9703271985054016,0.8876953125,-9.664355278015137
1745731530.25842,0.07580877840518951,0.03467126935720444,0.4093003273010254,0.8643842935562134,1.0486351251602173,-9.705591201782227
1745731530.260187,0.08586979657411575,0.034293532371520996,0.4078737199306488,1.0100250244140625,0.6259700655937195,-9.976737976074219
1745731530.296808,0.08184386789798737,0.031360186636447906,0.4085896611213684,0.9016307592391968,0.7941963076591492,-9.886655807495117
1745731530.297842,0.027105208486318588,0.013453958556056023,0.41674670577049255,1.070338487625122,0.21634869277477264,-9.884748458862305
1745731530.3118331,0.0342533104121685,0.01323786936700344,0.41797494888305664,0.8804283142089844,0.4811950623989105,-9.626547813415527
1745731530.3160248,0.02063176967203617,0.009685719385743141,0.4215153753757477,1.0097025632858276,0.2940755784511566,-9.772245407104492
1745731530.3188632,0.033231381326913834,-0.0010254653170704842,0.4239979386329651,0.8722937703132629,0.6593024730682373,-10.051138877868652
1745731530.3492665,0.037931546568870544,-0.0013619678793475032,0.42616453766822815,0.9279848337173462,0.48028087615966797,-10.014471054077148
1745731530.3503387,0.05026237294077873,-0.007039055228233337,0.42831993103027344,0.9317916631698608,0.7292239665985107,-9.658609390258789
1745731530.353459,0.04904453456401825,-0.011577014811336994,0.4310205578804016,0.8235601186752319,0.5112162828445435,-9.771560668945312
1745731530.3573086,0.048739105463027954,-0.02273658849298954,0.4318007528781891,1.058579683303833,0.5290631055831909,-9.937704086303711
1745731530.3849347,0.06395938247442245,-0.023998985067009926,0.4306665062904358,0.9810541272163391,0.6793826818466187,-9.940393447875977
1745731530.3872569,0.037678200751543045,-0.024332908913493156,0.432842493057251,1.030787467956543,0.3079099655151367,-9.933902740478516
1745731530.3925502,0.05664750188589096,-0.03932757303118706,0.43332844972610474,0.9774783849716187,0.6854231357574463,-9.70715045928955
1745731530.3926237,0.04442838951945305,-0.03864597529172897,0.43532830476760864,1.0535614490509033,0.27675923705101013,-9.869236946105957
1745731530.3926752,0.040504924952983856,-0.036871474236249924,0.4383198618888855,0.8926555514335632,0.5499395132064819,-9.91168212890625
1745731530.4284375,-0.03639905899763107,-0.10096976906061172,0.4674566686153412,0.8736497163772583,0.5030787587165833,-9.850236892700195
1745731530.4332821,-0.024405499920248985,-0.09779582172632217,0.4681547284126282,0.7257012724876404,0.3066757619380951,-9.748351097106934
1745731530.4355433,-0.04581328481435776,-0.10005112737417221,0.4704953134059906,0.7991390228271484,0.3061985373497009,-9.7318696975708
1745731530.439672,-0.04578125476837158,-0.09871906787157059,0.46916714310646057,0.6307110786437988,0.3737764358520508,-9.881340026855469
1745731530.4709508,-0.04509229212999344,-0.09941324591636658,0.470405250787735,0.8152433633804321,0.20854982733726501,-9.78715705871582
1745731530.4738836,-0.06013591215014458,-0.09834793210029602,0.4690433442592621,0.7253907322883606,0.5215233564376831,-9.711526870727539
1745731530.4774256,-0.05500020831823349,-0.0991830825805664,0.47112974524497986,0.6795121431350708,0.21675780415534973,-9.838294982910156
1745731530.48005,-0.06320147216320038,-0.1023738756775856,0.47001662850379944,0.7286258339881897,0.43506139516830444,-9.76350212097168
1745731530.5152912,-0.05746264010667801,-0.09270328283309937,0.473400354385376,0.677042543888092,0.29067784547805786,-9.716470718383789
1745731530.5190995,-0.07385879755020142,-0.09267900884151459,0.4761737883090973,0.750644326210022,0.26291581988334656,-9.722029685974121
1745731530.519259,-0.05976727604866028,-0.09445136040449142,0.47526121139526367,0.5999987721443176,0.579697847366333,-9.738832473754883
1745731530.5210016,-0.07357548177242279,-0.09300531446933746,0.47389453649520874,0.8044037818908691,0.22938188910484314,-9.853452682495117
1745731530.558164,-0.06535699963569641,-0.09111230075359344,0.4726566672325134,0.6476719975471497,0.7267754077911377,-9.76655101776123
1745731530.561381,-0.07695784419775009,-0.08640670776367188,0.47296255826950073,0.6570531129837036,0.2412513792514801,-9.801115036010742
1745731530.5648928,-0.07530149817466736,-0.09629091620445251,0.4714382290840149,0.7215167284011841,0.5527774095535278,-9.630570411682129
1745731530.567771,-0.07771056890487671,-0.08533782511949539,0.4707980751991272,0.6618990898132324,0.310513436794281,-9.85936164855957
1745731530.598094,-0.08649616688489914,-0.08966105431318283,0.4729357659816742,0.7249118089675903,0.3485688269138336,-9.84235668182373
1745731530.6008523,-0.07867114245891571,-0.08925112336874008,0.4754135012626648,0.5342866778373718,0.4416075646877289,-9.693984031677246
1745731530.6039765,-0.09030314534902573,-0.08423886448144913,0.47593623399734497,0.8000563383102417,0.26162809133529663,-9.626680374145508
1745731530.6040218,-0.08947844058275223,-0.08558537065982819,0.4773126542568207,0.6587148308753967,0.561559796333313,-9.852845191955566
1745731530.6061141,-0.08274296671152115,-0.08433391153812408,0.47585010528564453,0.6956890821456909,0.36151498556137085,-9.920164108276367
1745731530.643536,-0.0890379399061203,-0.08850793540477753,0.4766656756401062,0.6823158264160156,0.5743111371994019,-9.71511459350586
1745731530.645624,-0.1064429059624672,-0.07131921499967575,0.4752376973628998,0.5641201734542847,0.321815550327301,-9.694561958312988
1745731530.646166,-0.09611832350492477,-0.07599864900112152,0.4768386483192444,0.6657459139823914,0.6807054281234741,-9.519736289978027
1745731530.6465597,-0.09906730055809021,-0.06484173238277435,0.47709712386131287,0.6062983274459839,0.4126611351966858,-9.860801696777344
1745731530.6866186,-0.09762712568044662,-0.0678880363702774,0.47721511125564575,0.5548444390296936,0.6085130572319031,-9.839524269104004
1745731530.6898081,-0.08871033042669296,-0.06495074927806854,0.47650665044784546,0.47630923986434937,0.5509859919548035,-9.671063423156738
1745731530.6960163,-0.09892474114894867,-0.0632638931274414,0.4760705828666687,0.6573141813278198,0.4835183620452881,-9.632387161254883
1745731530.6998625,-0.09445121139287949,-0.061887215822935104,0.47434502840042114,0.512363851070404,0.6421173810958862,-9.762284278869629
1745731530.7015555,-0.10684044659137726,-0.06216185539960861,0.4741012156009674,0.7044901847839355,0.2227308303117752,-9.896184921264648
1745731530.7286158,-0.1062631830573082,-0.06057304888963699,0.47267764806747437,0.6640263199806213,0.6585100293159485,-9.687328338623047
1745731530.7313693,-0.11141522228717804,-0.05326533317565918,0.476510226726532,0.60584557056427,0.31574925780296326,-9.776110649108887
1745731530.733295,-0.11434409767389297,-0.060433994978666306,0.47592753171920776,0.5975623726844788,0.5742183923721313,-9.736040115356445
1745731530.7390268,-0.10385873168706894,-0.05568184331059456,0.475839763879776,0.5705277323722839,0.5643283128738403,-9.785578727722168
1745731530.7714112,-0.11688496917486191,-0.05377008765935898,0.4767606258392334,0.6822223663330078,0.5961429476737976,-9.726275444030762
1745731530.7739496,-0.0895780399441719,-0.053270578384399414,0.47732013463974,0.4617033898830414,0.8629083633422852,-9.673635482788086
1745731530.7757509,-0.06900700181722641,-0.009210115298628807,0.4653065800666809,0.5672034025192261,0.6340959668159485,-9.802665710449219
1745731530.777145,-0.05869816616177559,-0.012297473847866058,0.46472281217575073,0.43854212760925293,0.8113447427749634,-9.691987991333008
1745731530.8129575,-0.060446083545684814,-0.008133538998663425,0.46378692984580994,0.6066034436225891,0.5471252202987671,-9.660933494567871
1745731530.8173652,-0.06997861713171005,-0.006700874771922827,0.4641779959201813,0.5717246532440186,0.8542265892028809,-9.763463973999023
1745731530.822694,-0.0586417093873024,-0.010957382619380951,0.4595522880554199,0.5232306718826294,0.6622415781021118,-9.863133430480957
1745731530.826529,-0.0684211477637291,-0.011004590429365635,0.46327799558639526,0.627778172492981,0.7583075761795044,-9.691025733947754
1745731530.8296196,-0.05297048017382622,-0.003270556451752782,0.46108293533325195,0.4810972213745117,0.7746807932853699,-9.641569137573242
1745731530.8589687,-0.06601007282733917,-0.005457631312310696,0.46189743280410767,0.5766502618789673,0.6059399843215942,-9.775662422180176
1745731530.8616204,-0.04911532998085022,-0.009720802307128906,0.4607774615287781,0.4845682680606842,0.9842769503593445,-9.736848831176758
1745731530.8655202,-0.05169636011123657,-0.005399563815444708,0.45986324548721313,0.6375136375427246,0.6154618263244629,-9.798039436340332
1745731530.8688114,-0.051854632794857025,-0.0052872407250106335,0.4576813578605652,0.46862301230430603,1.0278648138046265,-9.721293449401855
1745731530.8991988,-0.047734372317790985,-0.0031768325716257095,0.4559226930141449,0.4688474237918854,0.5664157867431641,-9.751180648803711
1745731530.903031,-0.04518762230873108,-0.0071225217543542385,0.4540776312351227,0.6341274976730347,0.8477782011032104,-9.57724380493164
1745731530.9070473,-0.05038129538297653,0.0012253121240064502,0.4532195031642914,0.5001042485237122,0.6548577547073364,-9.832659721374512
1745731530.9104245,-0.053035151213407516,-0.005675711203366518,0.45393070578575134,0.6088539958000183,0.6576617956161499,-9.785323143005371
1745731530.910533,-0.041210658848285675,-0.002181387273594737,0.453125,0.4446779191493988,0.8533488512039185,-9.630739212036133
1745731530.9426093,-0.055162422358989716,-3.128759635728784e-05,0.45580434799194336,0.6494892835617065,0.5872593522071838,-9.655519485473633
1745731530.9450748,-0.043561432510614395,0.00027704675449058414,0.4534286856651306,0.5051788091659546,0.9522293210029602,-9.838079452514648
1745731530.9472864,-0.03847750276327133,-0.001372764934785664,0.4519149661064148,0.5409508347511292,0.7097800374031067,-9.862051963806152
1745731530.9475956,-0.04126163199543953,-0.003716359380632639,0.45092397928237915,0.5758986473083496,0.8907045125961304,-9.629205703735352
1745731530.9853706,-0.031927406787872314,0.0010537884663790464,0.4494702219963074,0.4562288224697113,0.7850138545036316,-9.730544090270996
1745731530.987468,-0.05093829706311226,-0.005419788416475058,0.4468870162963867,0.5874770879745483,0.6811317205429077,-9.815741539001465
1745731530.9932137,-0.025313060730695724,0.00030622706981375813,0.444283664226532,0.47511810064315796,0.6886326670646667,-9.778603553771973
1745731530.9932756,-0.03109227679669857,-0.005248614586889744,0.4432113766670227,0.5605638027191162,0.9448972940444946,-9.702808380126953
1745731531.0287156,-0.01383945345878601,-0.0036281372886151075,0.4418906271457672,0.49684053659439087,0.7796140909194946,-9.809859275817871
1745731531.031944,-0.024714117869734764,-0.00029910629382357,0.4396654963493347,0.6099557280540466,0.7699130177497864,-9.776342391967773
1745731531.0341687,-0.01946950890123844,-0.0033402354456484318,0.43895211815834045,0.4383227229118347,0.8566851615905762,-9.665325164794922
1745731531.0394168,-0.023655753582715988,-0.005472988821566105,0.43684571981430054,0.6631799936294556,0.5387479662895203,-9.677306175231934
1745731531.0434358,-0.027691125869750977,-0.005920478142797947,0.43663209676742554,0.6455480456352234,0.8997786641120911,-9.771883010864258
1745731531.0730793,-0.024527575820684433,-0.003314713016152382,0.436758816242218,0.5102288126945496,0.5730981826782227,-9.942081451416016
1745731531.0748298,-0.031984612345695496,-0.007034803740680218,0.43488582968711853,0.5130853652954102,0.8114151954650879,-9.657098770141602
1745731531.079965,-0.019878972321748734,-0.0031666283030062914,0.434786319732666,0.49294084310531616,0.7704838514328003,-9.520563125610352
1745731531.082174,-0.0337052047252655,-0.004171848297119141,0.43649810552597046,0.6214594841003418,0.6765962839126587,-9.747098922729492
1745731531.1162724,-0.01259344257414341,-0.006577502936124802,0.4345530867576599,0.444556325674057,0.9971844553947449,-9.946880340576172
1745731531.1177,-0.020895222201943398,-0.008901526220142841,0.43188077211380005,0.6373627185821533,0.6228737235069275,-9.843466758728027
1745731531.1217055,-0.007634001784026623,-0.007020822260528803,0.4324609637260437,0.46383723616600037,1.0532974004745483,-9.574552536010742
1745731531.123832,-0.0001698680716799572,-0.015372000634670258,0.42116913199424744,0.6029506325721741,0.5981014966964722,-9.720983505249023
1745731531.1588974,-0.0068329558707773685,-0.021604128181934357,0.42119675874710083,0.5246020555496216,0.7966268658638,-9.905890464782715
1745731531.1618273,0.004531639162451029,-0.019167151302099228,0.41968411207199097,0.5842636823654175,0.6687338948249817,-9.780511856079102
1745731531.165069,-0.017491504549980164,-0.023118067532777786,0.4215855598449707,0.6207756996154785,0.7374256253242493,-9.63947868347168
1745731531.1687207,0.0019913366995751858,-0.01839238591492176,0.42175689339637756,0.43086856603622437,0.8010169863700867,-9.750467300415039
1745731531.1691449,-0.01089043915271759,-0.023379908874630928,0.42401495575904846,0.5757436752319336,0.6421853303909302,-9.861406326293945
1745731531.2089818,0.00040742644341662526,-0.02301764115691185,0.4203050136566162,0.4398716986179352,0.9838992953300476,-9.692258834838867
1745731531.2090936,0.003359586466103792,-0.018975093960762024,0.4230642318725586,0.587979793548584,0.6194314956665039,-9.691301345825195
1745731531.2105575,-0.003568913321942091,-0.02678721770644188,0.42154422402381897,0.4422159790992737,1.0140435695648193,-9.784173965454102
1745731531.2149856,0.005905201192945242,-0.0210728719830513,0.4216369092464447,0.4897952973842621,0.5685040950775146,-9.864251136779785
1745731531.2453444,0.004414974711835384,-0.024261703714728355,0.4195988178253174,0.5981136560440063,0.9517543911933899,-9.586339950561523
1745731531.248529,-6.136529555078596e-05,-0.019511893391609192,0.41983193159103394,0.45817774534225464,0.6732867360115051,-9.802972793579102
1745731531.2507484,-0.005664619617164135,-0.026121189817786217,0.41892895102500916,0.6021424531936646,0.6499344110488892,-9.795201301574707
1745731531.2545853,0.003399893641471863,-0.024726692587137222,0.42074379324913025,0.46553701162338257,0.8364354968070984,-9.683947563171387
1745731531.25836,-0.012592658400535583,-0.01713227853178978,0.4220784604549408,0.6082361936569214,0.5393847227096558,-9.676217079162598
1745731531.286905,-0.0018855307716876268,-0.025523792952299118,0.42342185974121094,0.4602143168449402,0.8680955767631531,-9.784892082214355
1745731531.2894118,0.0007736686384305358,-0.022964242845773697,0.4226665496826172,0.5305054783821106,0.7266641855239868,-9.805440902709961
1745731531.2911224,-0.0035477452911436558,-0.02420296147465706,0.42116937041282654,0.5679088830947876,0.8370238542556763,-9.751535415649414
1745731531.293678,0.0059003932401537895,-0.01827952265739441,0.422116756439209,0.391707181930542,0.7814825177192688,-9.797986030578613
1745731531.3304188,-0.012686856091022491,-0.026829224079847336,0.41957563161849976,0.5301084518432617,0.6634944677352905,-9.698138236999512
1745731531.334369,0.01069391518831253,-0.02536950074136257,0.42236822843551636,0.4668460488319397,0.8279023170471191,-9.64771556854248
1745731531.33752,-0.015001674182713032,-0.021360931918025017,0.42064833641052246,0.6666692495346069,0.5906970500946045,-9.844191551208496
1745731531.3428268,0.014119324274361134,-0.02572529949247837,0.423159122467041,0.44611892104148865,0.804059624671936,-9.844212532043457
1745731531.372414,0.003260333789512515,-0.02393883652985096,0.4229528307914734,0.49946847558021545,0.747411847114563,-9.663209915161133
1745731531.3754456,0.007703018840402365,-0.02834356762468815,0.42199912667274475,0.3917458951473236,0.830025851726532,-9.611459732055664
1745731531.379039,0.006980590522289276,-0.028338436037302017,0.42022475600242615,0.6439802050590515,0.552659809589386,-9.785581588745117
1745731531.3796694,-0.0017992019420489669,-0.026076745241880417,0.4221211373806,0.5742774605751038,0.8816453814506531,-9.916780471801758
1745731531.380679,0.005389020312577486,-0.02424699440598488,0.41876792907714844,0.45815420150756836,0.5665286779403687,-9.831741333007812
1745731531.416995,-0.00871442910283804,-0.03266530483961105,0.4217771887779236,0.49822181463241577,0.7880614995956421,-9.541509628295898
1745731531.4211414,0.009395784698426723,-0.02591821551322937,0.4240623414516449,0.5030863285064697,0.7155774235725403,-9.664599418640137
1745731531.4217122,-0.013546575792133808,-0.02234744466841221,0.42416638135910034,0.5905879735946655,0.6365100145339966,-9.900303840637207
1745731531.4242017,0.012460346333682537,-0.02704351209104061,0.424948126077652,0.39793649315834045,1.0145677328109741,-9.789033889770508
1745731531.461449,-0.001737845130264759,-0.027343058958649635,0.42292293906211853,0.580397367477417,0.5978697538375854,-9.707476615905762
1745731531.4671562,0.012600509449839592,-0.029665973037481308,0.4230603277683258,0.4177117347717285,1.0327686071395874,-9.718055725097656
1745731531.4740357,0.002692426322028041,-0.022128045558929443,0.42146891355514526,0.47979074716567993,0.598088264465332,-9.850358963012695
1745731531.474304,0.0034911870025098324,-0.03279751166701317,0.42057114839553833,0.5305911302566528,0.7496442794799805,-9.653951644897461
1745731531.5037205,0.0019832139369100332,-0.027092009782791138,0.42476025223731995,0.5198919177055359,0.9020875096321106,-9.650114059448242
1745731531.5052137,0.016348347067832947,-0.02731155976653099,0.422113835811615,0.42801040410995483,0.6416374444961548,-9.912153244018555
1745731531.5082517,0.003632333828136325,-0.027938956394791603,0.42331504821777344,0.5359800457954407,0.677397608757019,-9.803427696228027
1745731531.5099154,0.019027013331651688,-0.02031661942601204,0.4242352843284607,0.4516604542732239,0.7168711423873901,-9.576321601867676
1745731531.5127883,-0.00234232097864151,-0.025276541709899902,0.42492350935935974,0.5303703546524048,0.5010748505592346,-9.712764739990234
1745731531.5482757,0.01334186177700758,-0.030209984630346298,0.4250619411468506,0.387515664100647,0.9260085821151733,-9.820680618286133
1745731531.5511758,0.00803525559604168,-0.022985588759183884,0.4235776960849762,0.6195902228355408,0.5014525651931763,-9.88194465637207
1745731531.5527594,0.011528696864843369,-0.02580188773572445,0.42261233925819397,0.4420693516731262,0.9956449270248413,-9.706022262573242
1745731531.5566604,0.010338394902646542,-0.023490065708756447,0.4211565852165222,0.3931177258491516,0.4957490563392639,-9.759127616882324
1745731531.5905967,0.011921664699912071,-0.029779598116874695,0.42300161719322205,0.5532419085502625,0.7764825820922852,-9.629939079284668
1745731531.5924468,0.015173527412116528,-0.020740633830428123,0.4215971529483795,0.48850059509277344,0.7049225568771362,-9.797891616821289
1745731531.5943413,0.0056563070975244045,-0.027582252398133278,0.4234999716281891,0.5304424166679382,0.6054959297180176,-9.90461540222168
1745731531.5965664,0.026258200407028198,-0.02819208800792694,0.42298954725265503,0.3631862699985504,0.9213151931762695,-9.71129035949707
1745731531.636045,0.014066574163734913,-0.02651263400912285,0.4215334951877594,0.5889871716499329,0.600730836391449,-9.627998352050781
1745731531.6397972,0.02490035444498062,-0.02631845697760582,0.4223293662071228,0.4515363276004791,0.8793452978134155,-9.777889251708984
1745731531.639848,0.03051968850195408,-0.025524770841002464,0.4203297197818756,0.46843576431274414,0.6422324180603027,-9.916418075561523
1745731531.63989,0.01894652098417282,-0.033868905156850815,0.42099839448928833,0.5260022282600403,0.6641426086425781,-9.733049392700195
1745731531.6399312,0.039826951920986176,-0.022611437365412712,0.4216122627258301,0.40064114332199097,0.6581202745437622,-9.667898178100586
1745731531.6762075,0.006969495210796595,-0.027228400111198425,0.4214969575405121,0.5419903993606567,0.6033540368080139,-9.731488227844238
1745731531.6794946,0.03540971130132675,-0.033521465957164764,0.4194909632205963,0.43328404426574707,0.6936007738113403,-9.841599464416504
1745731531.6820905,0.015797283500432968,-0.024753578007221222,0.4197837710380554,0.6571955680847168,0.6229544878005981,-9.840102195739746
1745731531.6867738,0.027478212490677834,-0.026374012231826782,0.41887030005455017,0.3703233599662781,0.8364728689193726,-9.79411792755127
1745731531.7189548,0.039724819362163544,-0.027617638930678368,0.41901063919067383,0.4277200698852539,0.858620822429657,-9.846017837524414
1745731531.72372,0.03776222839951515,-0.02496524527668953,0.42352476716041565,0.4171314835548401,0.42505088448524475,-9.790979385375977
1745731531.730188,0.03572436049580574,-0.03881210833787918,0.41940560936927795,0.578325629234314,0.9069503545761108,-9.68078899383545
1745731531.7324378,0.07155399024486542,-0.04735410585999489,0.41136470437049866,0.5061397552490234,1.1258784532546997,-9.832575798034668
1745731531.7363873,0.05866658687591553,-0.038222335278987885,0.38758501410484314,-0.5025322437286377,1.511825442314148,-10.41728401184082
1745731531.7599208,0.10103905200958252,-0.060560233891010284,0.3699195384979248,-0.447166383266449,1.301110863685608,-9.296062469482422
1745731531.761512,0.1260613352060318,-0.055853962898254395,0.35783815383911133,-0.24679270386695862,0.721902072429657,-9.228239059448242
1745731531.7615573,0.137228861451149,-0.03710661083459854,0.34912165999412537,-1.0025795698165894,0.8651537895202637,-10.163759231567383
1745731531.7626028,0.09667394310235977,-0.043522901833057404,0.35032424330711365,-0.5282318592071533,-0.935602068901062,-10.049464225769043
1745731531.8042877,0.15000340342521667,-0.0408833846449852,0.35908910632133484,0.16888946294784546,0.1542201042175293,-8.505064010620117
1745731531.8089974,0.049950093030929565,-0.03937210515141487,0.3576541543006897,0.33588671684265137,-0.466200053691864,-9.914665222167969
1745731531.8141723,0.02284124866127968,-0.07580796629190445,0.3546451926231384,0.3797900974750519,-0.6170886158943176,-11.286483764648438
1745731531.8142893,0.03599593788385391,-0.04352130740880966,0.3470565676689148,0.2579881548881531,0.007058823015540838,-9.853943824768066
1745731531.8157945,-0.09620562940835953,-0.0519869439303875,0.3374675214290619,-0.11182054132223129,0.020190691575407982,-8.712491989135742
1745731531.849429,0.09029791504144669,-0.04463222622871399,0.20864300429821014,0.2265145480632782,1.2422268390655518,-13.0274019241333
1745731531.851435,0.1807599812746048,-0.013254739344120026,0.19079557061195374,-0.18201124668121338,1.2403974533081055,-10.916595458984375
1745731531.852256,0.14690938591957092,-0.037235748022794724,0.178470641374588,-0.26969853043556213,0.44328489899635315,-7.013986110687256
1745731531.8971283,0.13882920145988464,-0.07070273905992508,0.1751345843076706,0.006006741430610418,0.1421070545911789,-8.6572904586792
1745731531.8972063,0.12014186382293701,-0.0333922877907753,0.17478084564208984,0.16746917366981506,-0.16445061564445496,-12.397430419921875
1745731531.8973289,0.11306240409612656,-0.0009305037674494088,0.17943748831748962,0.21110673248767853,-0.08670695871114731,-10.645238876342773
1745731531.8973892,0.09333620220422745,-0.02139163948595524,0.178187295794487,0.6160173416137695,0.2542731463909149,-7.476199150085449
1745731531.8974488,0.054003387689590454,-0.0566951259970665,0.16900190711021423,0.8162954449653625,0.537044882774353,-9.145898818969727
1745731531.9413729,0.10913345962762833,-0.0350683219730854,0.15620136260986328,0.6979085803031921,1.1151982545852661,-12.080705642700195
1745731531.9414272,0.13945265114307404,0.011531754396855831,0.13720203936100006,0.5204991102218628,1.2562146186828613,-10.624780654907227
1745731531.9446552,0.18047399818897247,-0.028973493725061417,0.1303802877664566,0.4180094599723816,1.0668797492980957,-7.6944756507873535
1745731531.9458165,0.20357418060302734,-0.028209427371621132,0.12827591598033905,0.3855993151664734,0.4560008943080902,-9.102888107299805
1745731531.9749746,0.23944368958473206,-0.00823578517884016,0.1284385323524475,0.045843951404094696,0.91633141040802,-11.63062572479248
1745731531.9775474,0.2814369201660156,0.026004230603575706,0.12431614100933075,0.3122125566005707,0.05756441503763199,-10.265607833862305
1745731531.978762,0.25805947184562683,0.018927915021777153,0.11860952526330948,0.1728268414735794,0.2796747386455536,-7.951834201812744
1745731531.9814854,0.2322143316268921,0.00050471315626055,0.1083812490105629,0.5899132490158081,-0.1531728208065033,-9.270015716552734
1745731531.9844534,0.21924102306365967,0.02191084250807762,0.09213320165872574,0.7234958410263062,0.15021072328090668,-11.435439109802246
1745731532.0204525,0.1795264631509781,0.03749756142497063,0.0794711709022522,0.4758342206478119,-0.4881440997123718,-10.612168312072754
1745731532.0227501,0.14273890852928162,0.028930064290761948,0.08082108199596405,0.6071178317070007,-0.6942379474639893,-8.534699440002441
1745731532.026621,0.08509790152311325,0.018505562096834183,0.07911574095487595,0.26865002512931824,-0.15980394184589386,-9.203310012817383
1745731532.0331903,0.10256931930780411,0.03897549957036972,0.07978178560733795,0.4673052728176117,-0.27193477749824524,-10.76520824432373
1745731532.0638468,0.2600366175174713,0.05718693137168884,0.034985072910785675,0.6147682666778564,0.13099132478237152,-10.094369888305664
1745731532.066236,0.24275383353233337,0.06991718709468842,0.02746632695198059,0.7514468431472778,-0.5816344022750854,-10.163171768188477
1745731532.068084,0.20405864715576172,0.05720309168100357,0.020770804956555367,0.6045140624046326,-0.23344449698925018,-9.712519645690918
1745731532.0694695,0.18645349144935608,0.060429614037275314,0.01459862757474184,0.32024770975112915,-0.44001156091690063,-9.745489120483398
1745731532.1062672,0.16536882519721985,0.06543579697608948,0.011389464139938354,0.3243939280509949,-0.2258051186800003,-9.686918258666992
1745731532.1089308,0.17235907912254333,0.07004930078983307,0.011872617527842522,0.17243707180023193,-0.04135778918862343,-9.68118953704834
1745731532.1115353,0.18088319897651672,0.07407687604427338,0.009595436975359917,0.38492313027381897,0.03150232881307602,-9.671682357788086
1745731532.1147468,0.18891219794750214,0.07041060924530029,0.005133156664669514,0.2577575445175171,0.39376744627952576,-9.71139907836914
1745731532.1470046,0.22532454133033752,0.08384981751441956,0.0019408816006034613,0.47686997056007385,0.05198901891708374,-9.833269119262695
1745731532.1508663,0.21062283217906952,0.07080911099910736,-0.003130850614979863,0.5135437846183777,0.4142065942287445,-9.813936233520508
1745731532.153044,0.2393307238817215,0.07490140944719315,-0.008236205205321312,0.5710655450820923,-0.26790982484817505,-10.024893760681152
1745731532.1566646,0.2113238275051117,0.07701502740383148,-0.009801683947443962,0.5766058564186096,-0.054311204701662064,-9.716967582702637
1745731532.1601942,0.20991268754005432,0.0731072723865509,-0.01449253223836422,0.5723215341567993,-0.23221664130687714,-9.551210403442383
1745731532.1910658,0.18519803881645203,0.06709669530391693,-0.019603518769145012,0.7583962678909302,-0.2621697187423706,-9.718101501464844
1745731532.19939,0.14815624058246613,0.02843182161450386,-0.11390542984008789,0.4662246108055115,-0.17155790328979492,-10.136539459228516
1745731532.1994607,0.14448590576648712,0.02649911865592003,-0.11443446576595306,0.6376672983169556,-0.3874613344669342,-9.852740287780762
1745731532.1995125,0.15765805542469025,0.02561332657933235,-0.11837400496006012,0.43393293023109436,-0.2911754846572876,-9.253254890441895
1745731532.2351542,0.1307675540447235,0.019870314747095108,-0.11929728835821152,0.6518131494522095,-0.7559981942176819,-9.463661193847656
1745731532.2374413,0.13662317395210266,0.01915689744055271,-0.1223280280828476,0.6344677805900574,-0.3158634901046753,-9.957008361816406
1745731532.2410405,0.10856262594461441,0.02092263102531433,-0.126213937997818,0.604516327381134,-0.7504125237464905,-9.987284660339355
1745731532.2410984,0.10868795216083527,0.015255777165293694,-0.12819461524486542,0.5958760976791382,-0.389218270778656,-9.468554496765137
1745731532.2776835,0.11058305203914642,0.014453813433647156,-0.13298240303993225,0.4159884452819824,-0.4349644184112549,-9.497919082641602
1745731532.2797945,0.09227751195430756,0.003790742252022028,-0.13576671481132507,0.6210920810699463,-0.5074005126953125,-9.85599422454834
1745731532.2812843,0.12613728642463684,0.01466101873666048,-0.1358431875705719,0.4619407653808594,-0.29999691247940063,-9.92613410949707
1745731532.2851608,0.10232847929000854,0.008607528172433376,-0.13744278252124786,0.527551531791687,-0.6509428024291992,-9.570714950561523
1745731532.3198946,0.12193302065134048,0.0024374541826546192,-0.13562417030334473,0.3824537992477417,-0.3411296010017395,-9.384500503540039
1745731532.321484,0.11149825155735016,0.008237464353442192,-0.13807961344718933,0.538956344127655,-0.7482054829597473,-9.807148933410645
1745731532.3230681,0.10818372666835785,0.004693528171628714,-0.13791534304618835,0.5594436526298523,-0.46154338121414185,-9.920526504516602
1745731532.3246975,0.10933105647563934,0.007921852171421051,-0.14423063397407532,0.5080059170722961,-0.6342571377754211,-9.674448013305664
1745731532.3278868,0.07470126450061798,-0.0008894616621546447,-0.14720407128334045,0.6116629242897034,-0.6443669199943542,-9.526344299316406
1745731532.3671324,0.09337933361530304,0.00046371499774977565,-0.14878937602043152,0.4916459918022156,-0.5706304311752319,-9.719062805175781
1745731532.3714683,0.052384067326784134,-0.0035584717988967896,-0.15178200602531433,0.6218973398208618,-0.7347995042800903,-9.898263931274414
1745731532.3743246,0.06788020581007004,-1.6100053471745923e-05,-0.15433438122272491,0.4465599060058594,-0.5301599502563477,-9.672945022583008
1745731532.3771448,0.05752168968319893,0.00452826265245676,-0.15353931486606598,0.5029118061065674,-0.551406979560852,-9.478403091430664
1745731532.404889,0.05366884544491768,-0.010216019116342068,-0.15386445820331573,0.547183632850647,-0.45908689498901367,-9.637670516967773
1745731532.4095733,0.014664808288216591,-0.016383884474635124,-0.1712174117565155,0.4887557923793793,-0.48122191429138184,-9.953221321105957
1745731532.4136891,0.036213476210832596,-0.007468037307262421,-0.17348487675189972,0.5191479921340942,-0.7159568071365356,-10.051742553710938
1745731532.417755,0.01061960868537426,-0.01122819073498249,-0.17247287929058075,0.5108221173286438,-0.5497857332229614,-9.573529243469238
1745731532.448992,0.03572746738791466,-0.01815926656126976,-0.17674100399017334,0.32872268557548523,-0.4436563551425934,-9.518834114074707
1745731532.4519198,0.014307493343949318,-0.016910705715417862,-0.17739030718803406,0.5088569521903992,-0.5691596865653992,-9.910807609558105
1745731532.4531162,0.03562019765377045,-0.011071266606450081,-0.1803942173719406,0.36186665296554565,-0.3310806155204773,-9.90266227722168
1745731532.4592419,0.035993028432130814,-0.008037802763283253,-0.18171831965446472,0.5292772054672241,-0.7266907691955566,-9.59498119354248
1745731532.4641159,0.02358432114124298,-0.01774270460009575,-0.18278595805168152,0.4768781065940857,-0.446136474609375,-9.54714584350586
1745731532.4931428,0.02541528083384037,-0.011980921030044556,-0.1843433976173401,0.535058856010437,-0.7987643480300903,-9.9872407913208
1745731532.4943714,0.013414767570793629,-0.010640105232596397,-0.1863667070865631,0.547450840473175,-0.5664629936218262,-9.909119606018066
1745731532.4998412,0.009758586063981056,-0.014749688096344471,-0.18773534893989563,0.452462762594223,-0.6647130250930786,-9.684757232666016
1745731532.5020201,-0.0012942722532898188,-0.014149332419037819,-0.18915507197380066,0.6444350481033325,-0.720808744430542,-9.646533966064453
1745731532.536574,-0.0038154921494424343,-0.019566278904676437,-0.18950232863426208,0.3628195822238922,-0.5131053328514099,-9.965576171875
1745731532.5406842,-0.009455865249037743,-0.013492042198777199,-0.18989785015583038,0.5098963975906372,-0.7977248430252075,-9.952913284301758
1745731532.5443444,-0.008902771398425102,-0.01754465326666832,-0.19045332074165344,0.40109744668006897,-0.438731849193573,-9.572869300842285
1745731532.553321,-0.002968069864436984,-0.013144020922482014,-0.22713252902030945,0.4239262044429779,-0.35621458292007446,-9.794398307800293
1745731532.579308,-0.015036160126328468,-0.009176257066428661,-0.227394700050354,0.5490379333496094,-0.7713386416435242,-9.752460479736328
1745731532.582773,-0.023570692166686058,-0.01575109176337719,-0.22947737574577332,0.5050228834152222,-0.45478731393814087,-9.800697326660156
1745731532.5850995,-0.007257641758769751,-0.0059308744966983795,-0.23103158175945282,0.40762418508529663,-0.6072950959205627,-9.909907341003418
1745731532.5862968,-0.03776523470878601,-0.010114549659192562,-0.23015525937080383,0.4998472332954407,-0.48865780234336853,-9.706642150878906
1745731532.5877662,-0.009764638729393482,-0.011886658146977425,-0.23197397589683533,0.46851053833961487,-0.5375906229019165,-9.717340469360352
1745731532.6287806,-0.023960640653967857,-0.012756364420056343,-0.23252534866333008,0.5358163118362427,-0.4749676585197449,-9.9169340133667
1745731532.62997,-0.00526892114430666,-0.015084442682564259,-0.23451712727546692,0.35405972599983215,-0.2882433235645294,-10.034635543823242
1745731532.630023,0.0026775721926242113,-0.004852142184972763,-0.23421046137809753,0.4971274435520172,-0.5111903548240662,-9.681753158569336
1745731532.6343565,-0.008465571328997612,-0.01759820617735386,-0.23648743331432343,0.468132346868515,-0.3742113411426544,-9.532943725585938
1745731532.6664455,0.004096852149814367,-0.01701851189136505,-0.23627671599388123,0.5406814217567444,-0.6709837913513184,-9.889549255371094
1745731532.669091,-0.0116502670571208,-0.015314904972910881,-0.23762694001197815,0.5205592513084412,-0.5197316408157349,-10.039874076843262
1745731532.6726277,0.0023877855855971575,-0.009805063717067242,-0.23708505928516388,0.3811908960342407,-0.6299282908439636,-9.743807792663574
1745731532.675432,-0.018337195739150047,-0.014067813754081726,-0.23876142501831055,0.5500921010971069,-0.5196882486343384,-9.446961402893066
1745731532.708048,-0.011905339546501637,-0.021044503897428513,-0.24009041488170624,0.4464278221130371,-0.3114294111728668,-9.826420783996582
1745731532.7128506,-0.0087265120819211,-0.011248322203755379,-0.2444443702697754,0.513062596321106,-0.5098754167556763,-10.140950202941895
1745731532.7171745,0.002577996114268899,-0.013916341587901115,-0.2451803982257843,0.3402402400970459,-0.1764371693134308,-9.727354049682617
1745731532.7219448,0.004400942008942366,-0.01470040064305067,-0.248089000582695,0.4419178366661072,-0.640029788017273,-9.442728996276855
1745731532.7233186,0.009931199252605438,-0.01520133949816227,-0.24555757641792297,0.44973939657211304,-0.2121972292661667,-9.70469856262207
1745731532.7517815,0.017302514985203743,-0.012392631731927395,-0.24668169021606445,0.44632571935653687,-0.5909901857376099,-10.12120246887207
1745731532.7535508,0.016425933688879013,-0.010171550326049328,-0.24536311626434326,0.5758404731750488,-0.45921429991722107,-9.809629440307617
1745731532.753604,0.029409881681203842,-0.013782140798866749,-0.24794311821460724,0.4012516438961029,-0.4239664077758789,-9.567384719848633
1745731532.7547739,0.03731551021337509,-0.012730276212096214,-0.255856990814209,0.31932926177978516,-0.3737158179283142,-9.777597427368164
1745731532.7939045,0.023519454523921013,-0.0200590118765831,-0.2565843462944031,0.615658700466156,-0.6927508115768433,-9.632821083068848
1745731532.7968233,0.047206491231918335,-0.01935752108693123,-0.25528591871261597,0.3889222741127014,-0.2199932038784027,-9.757460594177246
1745731532.7985032,0.037838999181985855,-0.017205609008669853,-0.2575530409812927,0.5582171678543091,-0.6516255736351013,-10.028823852539062
1745731532.801813,0.047365542501211166,-0.02072269655764103,-0.2573534846305847,0.4234202802181244,-0.2567264437675476,-9.755459785461426
1745731532.8039653,0.041995514184236526,-0.019069364294409752,-0.26100707054138184,0.4433707296848297,-0.6117697954177856,-9.632108688354492
1745731532.8370922,0.04151201993227005,-0.024617904797196388,-0.2608143389225006,0.5306466817855835,-0.4843442440032959,-9.686115264892578
1745731532.839846,0.05411149188876152,-0.018230300396680832,-0.26048222184181213,0.3526530861854553,-0.47332876920700073,-9.834577560424805
1745731532.843139,0.0326603464782238,-0.021654117852449417,-0.26291197538375854,0.6427607536315918,-0.593187689781189,-9.763801574707031
1745731532.8466463,0.059179194271564484,-0.02027822472155094,-0.2638823986053467,0.4457732141017914,-0.3755234479904175,-9.631791114807129
1745731532.8818035,0.04023558646440506,-0.021658530458807945,-0.2625238597393036,0.5236392021179199,-0.6283445358276367,-9.841206550598145
1745731532.8865602,0.06513459980487823,-0.023854676634073257,-0.2630966305732727,0.44056183099746704,-0.3482651710510254,-9.852739334106445
1745731532.88696,0.06114833429455757,-0.017413590103387833,-0.2655206024646759,0.45119819045066833,-0.609134316444397,-9.757291793823242
1745731532.8905706,0.06083708256483078,-0.02793254517018795,-0.26228636503219604,0.4866412281990051,-0.3788148760795593,-9.562365531921387
1745731532.9287448,0.08613691478967667,-0.02298203483223915,-0.278320848941803,0.5530537366867065,-0.8937407732009888,-9.795426368713379
1745731532.9288018,0.09160751104354858,-0.024094264954328537,-0.2765478491783142,0.40580272674560547,-0.36513686180114746,-9.730084419250488
1745731532.9298642,0.09360456466674805,-0.027254661545157433,-0.2780947685241699,0.44831007719039917,-0.8503130078315735,-9.876164436340332
1745731532.930799,0.07996366173028946,-0.027514567598700523,-0.2780277729034424,0.4324524998664856,-0.5820522308349609,-9.752325057983398
1745731532.9654138,0.09035973250865936,-0.0229622982442379,-0.2769802212715149,0.3680846095085144,-0.7155904173851013,-9.672999382019043
1745731532.9662116,0.08069582283496857,-0.02729361690580845,-0.2784193754196167,0.5436478853225708,-0.8187144994735718,-9.648589134216309
1745731532.9704366,0.0899679884314537,-0.024717969819903374,-0.27828311920166016,0.36228424310684204,-0.48976439237594604,-9.756242752075195
1745731532.9724884,0.07904373109340668,-0.021856140345335007,-0.27739545702934265,0.5921820402145386,-0.8403787612915039,-9.795440673828125
1745731532.9737318,0.09616725146770477,-0.02054821513593197,-0.2778880000114441,0.39566880464553833,-0.39741626381874084,-9.634485244750977
1745731533.0092075,0.08790286630392075,-0.024481389671564102,-0.27982643246650696,0.40655750036239624,-0.8288940191268921,-9.840492248535156
1745731533.0103195,0.09928596764802933,-0.025007957592606544,-0.2786638140678406,0.4470756947994232,-0.49343663454055786,-9.79704761505127
1745731533.0134249,0.10010341554880142,-0.016118288040161133,-0.2787976861000061,0.3203010559082031,-0.7398654818534851,-9.769989967346191
1745731533.0172575,0.0891018956899643,-0.027137819677591324,-0.2773723602294922,0.5193270444869995,-0.6996294856071472,-9.576151847839355
1745731533.052011,0.09786356985569,-0.023192662745714188,-0.2790892720222473,0.41486161947250366,-0.7588566541671753,-9.745689392089844
1745731533.055074,0.08286169916391373,-0.021623320877552032,-0.2791152000427246,0.5456990003585815,-0.9175779223442078,-9.933103561401367
1745731533.0576956,0.09883037954568863,-0.020439663901925087,-0.27823305130004883,0.38965409994125366,-0.51142817735672,-9.743699073791504
1745731533.060625,0.07832147181034088,-0.016669252887368202,-0.27766451239585876,0.4659970700740814,-0.9300525784492493,-9.555238723754883
1745731533.064246,0.0825798436999321,-0.024943459779024124,-0.27914610505104065,0.5112553834915161,-0.6177775263786316,-9.65701961517334
1745731533.0953877,0.09373272955417633,-0.017799025401473045,-0.2804490923881531,0.35061782598495483,-0.7260382771492004,-10.019628524780273
1745731533.0976613,0.07698862254619598,-0.02238541841506958,-0.2797670364379883,0.4626156687736511,-0.7023347616195679,-9.839916229248047
1745731533.101468,0.10387752205133438,-0.015774911269545555,-0.28176334500312805,0.329180508852005,-0.6463479995727539,-9.516217231750488
1745731533.1379046,0.08533304184675217,-0.020543966442346573,-0.2804638743400574,0.37598446011543274,-0.6923238039016724,-9.451253890991211
1745731533.1428728,0.07292624562978745,-0.016160421073436737,-0.28054308891296387,0.5025125741958618,-0.8245692253112793,-9.946464538574219
1745731533.144993,0.08500761538743973,-0.019701514393091202,-0.27827709913253784,0.4558229446411133,-0.7353313565254211,-9.994587898254395
1745731533.148852,0.0838848203420639,-0.012422855012118816,-0.27407845854759216,0.4594050347805023,-0.9559033513069153,-9.670852661132812
1745731533.152396,0.07473775744438171,-0.021856233477592468,-0.2743239998817444,0.43956097960472107,-0.7556054592132568,-9.569436073303223
1745731533.1809742,0.08079361915588379,-0.01753600314259529,-0.2751585841178894,0.3711250424385071,-0.8365537524223328,-9.855562210083008
1745731533.182958,0.06358368694782257,-0.016570523381233215,-0.2763221263885498,0.49423351883888245,-0.7158907651901245,-9.919519424438477
1745731533.1844893,0.08745685964822769,-0.017177624627947807,-0.2769370973110199,0.3756713569164276,-0.8084921836853027,-9.654255867004395
1745731533.1874115,0.06561408936977386,-0.017026741057634354,-0.27753695845603943,0.4592302441596985,-0.8487609028816223,-9.539373397827148
1745731533.2240758,0.06623019278049469,-0.019034069031476974,-0.2781148850917816,0.42385515570640564,-0.7568014860153198,-9.854446411132812
1745731533.2279015,0.07351645827293396,-0.011536635458469391,-0.27676135301589966,0.49592941999435425,-1.007648229598999,-9.906805038452148
1745731533.233313,0.057774949818849564,-0.015683304518461227,-0.2752304673194885,0.40324658155441284,-0.6456285715103149,-9.602826118469238
1745731533.236141,0.07507745176553726,-0.015884723514318466,-0.2741129398345947,0.5251922607421875,-1.0294662714004517,-9.731184005737305
1745731533.237078,0.059043847024440765,-0.01820826530456543,-0.27229833602905273,0.45820721983909607,-0.6704570651054382,-9.890666007995605
1745731533.2707896,0.07623010873794556,-0.01651884987950325,-0.2731174826622009,0.3501575291156769,-0.8075946569442749,-9.896159172058105
1745731533.2738574,0.04392750561237335,-0.004920453764498234,-0.25786349177360535,0.3787953555583954,-1.0279524326324463,-9.830400466918945
1745731533.2784593,0.04548870399594307,-0.009941471740603447,-0.2570309042930603,0.5581636428833008,-0.8096791505813599,-9.687562942504883
1745731533.281959,0.04764627665281296,-0.007684851530939341,-0.25574183464050293,0.41041335463523865,-0.9679983854293823,-9.775739669799805
1745731533.310009,0.03517267853021622,-0.013425961136817932,-0.25654250383377075,0.5409667491912842,-0.9496868252754211,-9.81496524810791
1745731533.31594,0.04065920040011406,-0.012180219404399395,-0.25399520993232727,0.36642003059387207,-0.8752676844596863,-9.816827774047852
1745731533.3161345,0.02432609349489212,-0.01008845679461956,-0.25578588247299194,0.5140982270240784,-1.0769586563110352,-9.730818748474121
1745731533.3168585,0.04018471762537956,-0.00998156238347292,-0.25261634588241577,0.42851656675338745,-0.7233356237411499,-9.560891151428223
1745731533.3190987,0.021205993369221687,-0.008976709097623825,-0.25530582666397095,0.5015482902526855,-1.0559442043304443,-9.7570161819458
1745731533.3559854,0.027337810024619102,-0.013206129893660545,-0.253945916891098,0.5279082655906677,-0.745775580406189,-9.800509452819824
1745731533.3598208,0.03697025775909424,-0.005342873744666576,-0.25418999791145325,0.3709859549999237,-0.9127384424209595,-9.823661804199219
1745731533.3628056,0.016835730522871017,-0.013974502682685852,-0.2548874616622925,0.4689168334007263,-0.8600479960441589,-9.701515197753906
1745731533.367402,0.04223649948835373,-0.009663820266723633,-0.25195807218551636,0.4032980501651764,-0.8524004220962524,-9.719304084777832
1745731533.3968468,0.013099094852805138,-0.010170379653573036,-0.2550486922264099,0.5124708414077759,-1.0551071166992188,-9.843101501464844
1745731533.3995132,0.03451703116297722,-0.012961791828274727,-0.25135302543640137,0.3941230773925781,-0.7846046686172485,-9.661970138549805
1745731533.4030674,0.012390966527163982,-0.009542237035930157,-0.2511117458343506,0.5137656927108765,-1.1748344898223877,-9.658041000366211
1745731533.4050412,0.013632667250931263,-0.01356904674321413,-0.25160691142082214,0.4042627811431885,-0.8363307118415833,-9.676885604858398
1745731533.4410605,0.01643037423491478,-0.007275281008332968,-0.2512814402580261,0.49225980043411255,-0.9577980041503906,-9.812732696533203
1745731533.44275,-0.0041571566835045815,-0.012415695004165173,-0.2543030381202698,0.5085023641586304,-0.8095464706420898,-9.746557235717773
1745731533.4441662,0.02048981562256813,-0.006768542341887951,-0.2527744770050049,0.4186648428440094,-0.9227567911148071,-9.733637809753418
1745731533.4455519,-0.0015813028439879417,-0.012681585736572742,-0.25143545866012573,0.49659013748168945,-0.9045389890670776,-9.742246627807617
1745731533.4480908,0.014366130344569683,-0.012092453427612782,-0.2509867250919342,0.35562482476234436,-0.8680488467216492,-9.778478622436523
1745731533.4829557,-0.012997071258723736,-0.013748574070632458,-0.25136518478393555,0.36801111698150635,-0.6975331902503967,-9.714188575744629
1745731533.4851649,-0.013577441684901714,-0.007927837781608105,-0.25028014183044434,0.5569364428520203,-1.040252447128296,-9.652987480163574
1745731533.488855,-0.015960626304149628,-0.014510616660118103,-0.25222334265708923,0.40949946641921997,-0.6239933967590332,-9.680585861206055
1745731533.4909048,-0.004633857402950525,-0.010404346510767937,-0.25064149498939514,0.48831290006637573,-1.0454145669937134,-9.882540702819824
1745731533.5248508,-0.019548330456018448,-0.010303591378033161,-0.2490767240524292,0.46639642119407654,-0.8270629644393921,-9.677482604980469
1745731533.527329,-0.006979384925216436,-0.009202482178807259,-0.2471069097518921,0.40029922127723694,-1.0203899145126343,-9.747586250305176
1745731533.5287955,-0.027150887995958328,-0.014154961332678795,-0.24568453431129456,0.50266033411026,-0.9541906118392944,-9.771623611450195
1745731533.5309289,-0.01774018630385399,-0.011867748573422432,-0.24820168316364288,0.31353870034217834,-0.652049720287323,-9.751574516296387
1745731533.5687757,-0.020111333578824997,-0.007505233399569988,-0.2515503168106079,0.5514717102050781,-0.994590163230896,-9.668110847473145
1745731533.5723133,-0.016521044075489044,-0.01357333641499281,-0.2513253390789032,0.42265424132347107,-0.5823225378990173,-9.593107223510742
1745731533.5767572,-0.025052305310964584,-0.013446411117911339,-0.2526966631412506,0.5633878707885742,-1.1087599992752075,-9.906301498413086
1745731533.5781314,-0.02458946406841278,-0.011635316535830498,-0.25198879837989807,0.47867774963378906,-0.8374120593070984,-9.821232795715332
1745731533.62434,-0.0201321542263031,-0.009300134144723415,-0.246984601020813,0.2938438951969147,-0.9618156552314758,-9.682381629943848
1745731533.62449,-0.030777135863900185,-0.010290284641087055,-0.2470846176147461,0.5352977514266968,-0.9080708622932434,-9.540460586547852
1745731533.6245692,-0.04235322028398514,-0.015852216631174088,-0.2532016336917877,0.38313502073287964,-0.5475486516952515,-9.574191093444824
1745731533.6246634,-0.036308061331510544,-0.011775960214436054,-0.25283974409103394,0.4379630982875824,-0.9605046510696411,-9.667445182800293
1745731533.6564043,-0.04825129359960556,-0.011265737935900688,-0.2518939673900604,0.4554653763771057,-0.5974855422973633,-9.773585319519043
1745731533.6580577,-0.028906086459755898,-0.010172711685299873,-0.25337499380111694,0.4062840938568115,-0.8424273729324341,-9.804086685180664
1745731533.6581402,-0.049542926251888275,-0.01322823017835617,-0.24926869571208954,0.5067179799079895,-0.8328160047531128,-9.676973342895508
1745731533.661186,-0.03232826665043831,-0.014508776366710663,-0.25247064232826233,0.37249794602394104,-0.7189217805862427,-9.763971328735352
1745731533.6633072,-0.04367883503437042,-0.013124099001288414,-0.2495451420545578,0.45718032121658325,-0.9255474209785461,-9.930197715759277
1745731533.7033257,-0.04145430773496628,-0.013693811371922493,-0.24939003586769104,0.3548174500465393,-0.5273779630661011,-9.776900291442871
1745731533.712557,-0.035001933574676514,-0.012509296648204327,-0.249848410487175,0.4675222337245941,-0.9809116125106812,-9.636014938354492
1745731533.7127497,-0.03925492987036705,-0.016232039779424667,-0.24927416443824768,0.4272992014884949,-0.5279073715209961,-9.594915390014648
1745731533.7128282,-0.032236576080322266,-0.013159570284187794,-0.2502826452255249,0.43187180161476135,-0.7985802292823792,-9.921772003173828
1745731533.750559,-0.038690946996212006,-0.010919888503849506,-0.24991264939308167,0.5183433294296265,-0.7948120832443237,-9.75192928314209
1745731533.7506924,-0.02839759923517704,-0.012395499274134636,-0.24973702430725098,0.2623903155326843,-0.5871219038963318,-9.587553024291992
1745731533.7510731,-0.035544149577617645,-0.018147820606827736,-0.2484811246395111,0.5887898206710815,-0.9123882055282593,-9.780438423156738
1745731533.7569563,-0.028575578704476357,-0.016462156549096107,-0.24990510940551758,0.3735514283180237,-0.49379149079322815,-9.94227123260498
1745731533.7586966,-0.025259003043174744,-0.011856451630592346,-0.24783603847026825,0.48158353567123413,-0.924430251121521,-9.884020805358887
1745731533.7836473,-0.032630693167448044,-0.01910887099802494,-0.24865655601024628,0.39253905415534973,-0.5849013328552246,-9.548135757446289
1745731533.7869318,-0.023410771042108536,-0.0156665351241827,-0.24868400394916534,0.39512497186660767,-0.8289284706115723,-9.64056396484375
1745731533.788855,-0.029551725834608078,-0.017017865553498268,-0.25034239888191223,0.5140203237533569,-0.6627353429794312,-9.783029556274414
1745731533.7927036,-0.018894126638770103,-0.012296594679355621,-0.2489214837551117,0.3404233157634735,-0.6419808268547058,-9.869521141052246
1745731533.8297691,-0.031427111476659775,-0.015704436227679253,-0.24821169674396515,0.5970786213874817,-0.8584998250007629,-9.69811725616455
1745731533.8339639,-0.011855348013341427,-0.02055589109659195,-0.24921473860740662,0.37831488251686096,-0.48879313468933105,-9.812651634216309
1745731533.837885,-0.01631588116288185,-0.01413098257035017,-0.25092750787734985,0.39312994480133057,-0.7643281817436218,-9.86772346496582
1745731533.839415,-0.014157327823340893,-0.02246604859828949,-0.25078222155570984,0.42028695344924927,-0.5345718264579773,-9.635696411132812
1745731533.8711286,0.0007154253544285893,-0.011907229200005531,-0.2509290277957916,0.4092082381248474,-0.5976717472076416,-9.720468521118164
1745731533.8717678,-0.01704053208231926,-0.026083383709192276,-0.25204023718833923,0.5572682023048401,-0.8418146371841431,-9.83095645904541
1745731533.882545,0.004741203039884567,-0.02030099928379059,-0.24867837131023407,0.4115282893180847,-0.6851896047592163,-9.841440200805664
1745731533.8827069,-0.02284615859389305,-0.016828924417495728,-0.24962373077869415,0.5115780830383301,-0.9799332618713379,-9.789321899414062
1745731533.914245,-0.003301946446299553,-0.020703108981251717,-0.24770419299602509,0.3259359896183014,-0.5312138795852661,-9.594204902648926
1745731533.9177287,-0.018587885424494743,-0.01729646883904934,-0.24823220074176788,0.4579536020755768,-0.7843677997589111,-9.72712516784668
1745731533.9213452,-0.016367746517062187,-0.02313072793185711,-0.250862181186676,0.4365285038948059,-0.5573974847793579,-9.912389755249023
1745731533.9251132,0.001126116723753512,-0.014915978536009789,-0.25142621994018555,0.370339959859848,-0.6820112466812134,-9.846519470214844
1745731533.9288793,-0.019900266081094742,-0.022335976362228394,-0.2522363066673279,0.41551047563552856,-0.5820780992507935,-9.580984115600586
1745731533.9572153,0.004098151810467243,-0.017681196331977844,-0.25453802943229675,0.38531550765037537,-0.7084149718284607,-9.592168807983398
1745731533.961133,-0.016045548021793365,-0.018349548801779747,-0.25352615118026733,0.5174479484558105,-0.7374202609062195,-9.85466194152832
1745731533.9636152,0.002120774472132325,-0.0200529545545578,-0.2516883313655853,0.4557017385959625,-0.692982017993927,-9.930337905883789
1745731533.9671311,0.0038044676184654236,-0.02162129618227482,-0.2573166489601135,0.4966758191585541,-0.476926326751709,-9.622854232788086
1745731534.0051246,0.00629458436742425,-0.020333509892225266,-0.257475882768631,0.319019615650177,-0.7238700985908508,-10.091696739196777
1745731534.0052636,-0.000669158180244267,-0.017715463414788246,-0.25835707783699036,0.4624360203742981,-0.7323364615440369,-9.855518341064453
1745731534.0053546,0.01652713492512703,-0.01374630443751812,-0.2581964135169983,0.23787498474121094,-0.4417959749698639,-9.445680618286133
1745731534.0054185,-0.0006830258062109351,-0.02040865458548069,-0.25925058126449585,0.5146288275718689,-0.8738150596618652,-9.589658737182617
1745731534.0082448,0.013883471488952637,-0.022089902311563492,-0.25866296887397766,0.39743107557296753,-0.4401531219482422,-9.949766159057617
1745731534.0454462,0.004691523965448141,-0.013015245087444782,-0.25927597284317017,0.5067198872566223,-0.9453891515731812,-10.102800369262695
1745731534.0455408,0.003922278992831707,-0.0208351518958807,-0.2617303431034088,0.37857764959335327,-0.5385864973068237,-9.575845718383789
1745731534.0463533,0.002223225310444832,-0.01751132123172283,-0.25867992639541626,0.34860628843307495,-0.7953589558601379,-9.547076225280762
1745731534.0482473,-0.00139059207867831,-0.02169274166226387,-0.2587796747684479,0.4901517331600189,-0.6775602102279663,-9.812894821166992
1745731534.084483,0.01409379206597805,-0.012458626180887222,-0.2586528956890106,0.27415886521339417,-0.4963088035583496,-9.944454193115234
1745731534.086854,-0.0010216550435870886,-0.01958337426185608,-0.26243582367897034,0.5423277616500854,-0.6846721172332764,-9.659948348999023
1745731534.0913103,0.02085345983505249,-0.016382569447159767,-0.26411667466163635,0.33934852480888367,-0.42617088556289673,-9.470307350158691
1745731534.0953567,0.008092247880995274,-0.014106282964348793,-0.2647292912006378,0.42255401611328125,-0.7694188356399536,-9.844034194946289
1745731534.0990334,0.019791344180703163,-0.017552755773067474,-0.26368728280067444,0.4654901921749115,-0.5486912727355957,-9.943429946899414
1745731534.1306238,0.015070686116814613,-0.013918319717049599,-0.2630847096443176,0.4160464406013489,-0.8732733726501465,-9.821855545043945
1745731534.14319,0.009409686550498009,-0.02060956135392189,-0.2634592652320862,0.44767600297927856,-0.7083504796028137,-9.577954292297363
1745731534.1433384,0.011144408956170082,-0.018198901787400246,-0.2597850561141968,0.32631441950798035,-0.7509795427322388,-9.751157760620117
1745731534.1434305,-0.0067174481227993965,-0.018342897295951843,-0.2630902826786041,0.47618335485458374,-0.7630855441093445,-9.901565551757812
1745731534.1734924,0.019434290006756783,-0.013471144251525402,-0.26403504610061646,0.306918203830719,-0.4825548529624939,-9.700411796569824
1745731534.1772573,-0.0020748793613165617,-0.017387766391038895,-0.2656552195549011,0.4394887387752533,-0.7325823307037354,-9.574189186096191
1745731534.1832256,0.018206339329481125,-0.014319607987999916,-0.2691050171852112,0.45987358689308167,-0.7129591107368469,-9.696162223815918
1745731534.1869218,0.011491222307085991,-0.019827181473374367,-0.2703513205051422,0.4074588716030121,-0.5442007184028625,-9.883549690246582
1745731534.2188742,0.02756085991859436,-0.010785078629851341,-0.2718091607093811,0.4377133250236511,-0.8345266580581665,-9.9221830368042
1745731534.2189682,0.010428411886096,-0.017955806106328964,-0.2710799276828766,0.4489130973815918,-0.6690413355827332,-9.703996658325195
1745731534.2190495,0.029606465250253677,-0.01745731756091118,-0.26860374212265015,0.33318227529525757,-0.6699730157852173,-9.676119804382324
1745731534.2205813,0.017939122393727303,-0.012858813628554344,-0.2692454755306244,0.49792760610580444,-0.6907716393470764,-9.778559684753418
1745731534.2570474,0.0300371702760458,-0.017112167552113533,-0.2702849209308624,0.3152070641517639,-0.5526814460754395,-9.8128662109375
1745731534.259536,0.025354091078042984,-0.013415085151791573,-0.26986825466156006,0.4588206708431244,-0.7236155867576599,-9.66637897491455
1745731534.264425,0.026187440380454063,-0.019756151363253593,-0.2716091275215149,0.35441362857818604,-0.5495074987411499,-9.679039001464844
1745731534.2675328,0.02968113124370575,-0.013128593564033508,-0.2724742293357849,0.3883736729621887,-0.8312615156173706,-9.89210319519043
1745731534.2695906,0.014592336490750313,-0.01615835726261139,-0.2725285589694977,0.4244924485683441,-0.5647331476211548,-9.771780014038086
1745731534.3035104,0.024868493899703026,-0.014940683729946613,-0.2726798951625824,0.4054882526397705,-0.7675230503082275,-9.767105102539062
1745731534.3060122,0.016640547662973404,-0.01638222299516201,-0.27233538031578064,0.5109564065933228,-0.6797952651977539,-9.68167781829834
1745731534.309317,0.03025657869875431,-0.017723554745316505,-0.27203458547592163,0.34169885516166687,-0.5541189908981323,-9.798707962036133
1745731534.312073,0.020929396152496338,-0.015160255134105682,-0.2727944850921631,0.5020297765731812,-0.8316914439201355,-9.809837341308594
1745731534.342397,0.033325351774692535,-0.018054012209177017,-0.27746617794036865,0.4534192979335785,-0.7682193517684937,-9.903313636779785
1745731534.3467402,0.04826543107628822,-0.02328113280236721,-0.2789824306964874,0.32642608880996704,-0.5102888345718384,-9.762656211853027
1745731534.3488538,0.045829497277736664,-0.019025053828954697,-0.27643296122550964,0.5124826431274414,-0.8665170669555664,-9.730598449707031
1745731534.3501153,0.03961784765124321,-0.026464805006980896,-0.27629679441452026,0.3733782172203064,-0.5872159004211426,-9.813812255859375
1745731534.3906827,0.05796027183532715,-0.018183153122663498,-0.2743217349052429,0.371867835521698,-0.7528289556503296,-9.800230026245117
1745731534.3920674,0.040985316038131714,-0.020103897899389267,-0.277225524187088,0.4648993909358978,-0.6778571605682373,-9.619744300842285
1745731534.3921447,0.06166371703147888,-0.0196596197783947,-0.2754945158958435,0.3391211926937103,-0.6988480687141418,-9.664091110229492
1745731534.3946862,0.04422552138566971,-0.02097971923649311,-0.2756110727787018,0.4885469079017639,-0.7134715914726257,-9.821240425109863
1745731534.3965857,0.04700074717402458,-0.021519139409065247,-0.2784528136253357,0.3042648136615753,-0.6682839393615723,-9.902457237243652
1745731534.4311,0.0480758473277092,-0.01663820631802082,-0.27955231070518494,0.4552485942840576,-0.9375678896903992,-9.70393180847168
1745731534.432569,0.04060790687799454,-0.023839471861720085,-0.27947697043418884,0.3364007771015167,-0.5205615162849426,-9.600440979003906
1745731534.4341836,0.041103336960077286,-0.01934805139899254,-0.2790997624397278,0.4150765538215637,-0.949565589427948,-9.858439445495605
1745731534.437138,0.041317589581012726,-0.017331253737211227,-0.2780960500240326,0.43145400285720825,-0.49948030710220337,-9.78254508972168
1745731534.4874628,0.04751347750425339,-0.01842959225177765,-0.27812889218330383,0.3703911006450653,-0.880362331867218,-9.678187370300293
1745731534.4876218,0.03670384734869003,-0.01846996322274208,-0.2771103084087372,0.47764667868614197,-0.7212976217269897,-9.610506057739258
1745731534.4877307,0.051792263984680176,-0.01716456562280655,-0.27762117981910706,0.2810389995574951,-0.6137311458587646,-9.880742073059082
1745731534.4878087,0.04435056075453758,-0.017889345064759254,-0.2783377170562744,0.4162166118621826,-0.7859061360359192,-9.872673988342285
1745731534.4878879,0.050485849380493164,-0.017487971112132072,-0.2778778672218323,0.320678174495697,-0.4438193440437317,-9.571699142456055
1745731534.5182061,0.04929428547620773,-0.018865499645471573,-0.2808409631252289,0.48050037026405334,-0.9921129941940308,-9.73803997039795
1745731534.5228157,0.04941800236701965,-0.02260233834385872,-0.27893903851509094,0.44887644052505493,-0.5998579859733582,-9.89963436126709
1745731534.5288293,0.048701751977205276,-0.017610903829336166,-0.2816305160522461,0.3621569573879242,-0.9082554578781128,-9.893312454223633
1745731534.5303304,0.03493651747703552,-0.017119789496064186,-0.2793397307395935,0.5123941898345947,-0.8744336366653442,-9.4931058883667
1745731534.5595708,0.03390097618103027,-0.01833132468163967,-0.2810186445713043,0.4731358587741852,-0.7676172256469727,-9.751526832580566
1745731534.5619123,0.04673714563250542,-0.015339883975684643,-0.28158077597618103,0.2829883396625519,-0.7164356708526611,-9.654402732849121
1745731534.5642462,0.027235817164182663,-0.0204024501144886,-0.2797987163066864,0.5690403580665588,-0.7760859727859497,-9.70456314086914
1745731534.5653386,0.04928329586982727,-0.015926364809274673,-0.28007620573043823,0.36455971002578735,-0.6350222229957581,-9.78705883026123
1745731534.6039407,0.03361112251877785,-0.01551896519958973,-0.2814536690711975,0.42269057035446167,-0.8901573419570923,-9.853078842163086
1745731534.6072943,0.047519274055957794,-0.018917230889201164,-0.2829834222793579,0.4250105321407318,-0.5651649832725525,-9.705526351928711
1745731534.6099358,0.04001476615667343,-0.01503049861639738,-0.2802220582962036,0.33457618951797485,-0.9059082865715027,-9.792421340942383
1745731534.6181295,0.038352735340595245,-0.020201824605464935,-0.28133389353752136,0.4097903370857239,-0.7080107927322388,-9.737607955932617
1745731534.6219382,0.043347880244255066,-0.016504283994436264,-0.2817033529281616,0.34454163908958435,-0.8804915547370911,-9.834474563598633
1745731534.6441507,0.025083482265472412,-0.02025485597550869,-0.2793569564819336,0.46707281470298767,-0.821546196937561,-9.716368675231934
1745731534.6463902,0.04969271272420883,-0.01379761565476656,-0.2818772792816162,0.3052601218223572,-0.6517678499221802,-9.6517915725708
1745731534.647741,0.025829821825027466,-0.015359269455075264,-0.28280019760131836,0.42925453186035156,-0.8808068037033081,-9.754765510559082
1745731534.6514533,0.037396546453237534,-0.0177913848310709,-0.2822437286376953,0.4349708557128906,-0.5921398401260376,-9.726893424987793
1745731534.6887078,0.0404370054602623,-0.011004844680428505,-0.2838926911354065,0.4513583183288574,-0.8940108418464661,-9.87419605255127
1745731534.6921375,0.017365287989377975,-0.016714109107851982,-0.2826515734195709,0.46647945046424866,-1.031825065612793,-9.85362434387207
1745731534.6922648,0.02300954982638359,-0.0170200876891613,-0.28099510073661804,0.3974388539791107,-0.7359501123428345,-9.643697738647461
1745731534.6930199,0.027873899787664413,-0.011759528890252113,-0.28043168783187866,0.399918794631958,-0.8774137496948242,-9.631084442138672
1745731534.7343202,0.01741211488842964,-0.019509751349687576,-0.280281126499176,0.5625258088111877,-0.7388436198234558,-9.772814750671387
1745731534.7369082,0.03491779789328575,-0.014423862099647522,-0.28201016783714294,0.3283024728298187,-0.7676387429237366,-9.999109268188477
1745731534.7369602,0.018284549936652184,-0.01486300490796566,-0.2811863422393799,0.44744357466697693,-0.8611661791801453,-9.855513572692871
1745731534.7398465,0.03481997922062874,-0.018182428553700447,-0.28127816319465637,0.22988486289978027,-0.697204053401947,-9.53767204284668
1745731534.741042,0.011697361245751381,-0.01811625063419342,-0.2818388044834137,0.4866379201412201,-0.9476882219314575,-9.643038749694824
1745731534.7744768,0.027518516406416893,-0.019853489473462105,-0.2828259766101837,0.4227026402950287,-0.7244023680686951,-9.879053115844727
1745731534.7783632,0.027328288182616234,-0.010809127241373062,-0.28267866373062134,0.4068567156791687,-0.9159941673278809,-9.897078514099121
1745731534.780458,0.015575846657156944,-0.016717618331313133,-0.2848622798919678,0.549525797367096,-0.7381943464279175,-9.560790061950684
1745731534.7828147,0.030553674325346947,-0.016899362206459045,-0.2818078100681305,0.4086969792842865,-0.9381626844406128,-9.626319885253906
1745731534.8194358,0.0071113137528300285,-0.017605934292078018,-0.28211110830307007,0.41325634717941284,-0.8174039125442505,-9.886496543884277
1745731534.8261042,0.036703795194625854,-0.012414761818945408,-0.2797173857688904,0.3662264347076416,-0.7765636444091797,-9.847699165344238
1745731534.8293061,0.01263512670993805,-0.01570173352956772,-0.2802788317203522,0.44116121530532837,-0.933867335319519,-9.655336380004883
1745731534.8293765,0.03150971978902817,-0.02078361250460148,-0.2807326316833496,0.3355715870857239,-0.6746829748153687,-9.66894245147705
1745731534.8613186,0.015749802812933922,-0.019078295677900314,-0.28139129281044006,0.4449964463710785,-0.9949395060539246,-9.9588041305542
1745731534.8625278,0.01712525635957718,-0.019022438675165176,-0.2806812822818756,0.36199951171875,-0.6938270330429077,-9.78320598602295
1745731534.8634617,0.030172597616910934,-0.0124641302973032,-0.2805466055870056,0.3946225345134735,-0.9199264645576477,-9.54672908782959
1745731534.8788967,0.008214104920625687,-0.021676193922758102,-0.2798387408256531,0.47159212827682495,-0.7942615747451782,-9.585165977478027
1745731534.8789952,0.02499770186841488,-0.01666668988764286,-0.2804832458496094,0.4249812662601471,-0.7932323217391968,-9.906526565551758
1745731534.905129,0.008989287540316582,-0.01780829019844532,-0.27853474020957947,0.524095892906189,-0.7876600027084351,-9.910738945007324
1745731534.9072886,0.013993972912430763,-0.016443267464637756,-0.2777358889579773,0.307319700717926,-0.7669629454612732,-9.738275527954102
1745731534.9100213,0.010459386743605137,-0.015555813908576965,-0.27904370427131653,0.5575567483901978,-1.0181105136871338,-9.606903076171875
1745731534.9128263,0.014569973573088646,-0.02098444104194641,-0.2802467942237854,0.3320391774177551,-0.6271716356277466,-9.778993606567383
1745731534.9481697,0.012983197346329689,-0.017907191067934036,-0.27724188566207886,0.42658329010009766,-1.0294784307479858,-9.98566722869873
1745731534.9522996,0.015157324261963367,-0.014663251116871834,-0.2803155481815338,0.41108694672584534,-0.6035751700401306,-9.668990135192871
1745731534.9589946,0.014133979566395283,-0.017650552093982697,-0.2771073877811432,0.3700880706310272,-1.0536255836486816,-9.593934059143066
1745731534.9661891,0.005194719880819321,-0.02246628701686859,-0.27534762024879456,0.518355667591095,-0.7689252495765686,-9.659191131591797
1745731534.9952488,0.013626639731228352,-0.019121836870908737,-0.2760998606681824,0.36273112893104553,-0.8379833102226257,-10.004189491271973
1745731534.995377,0.007076609879732132,-0.015172603540122509,-0.2754461169242859,0.46039605140686035,-0.9311016798019409,-9.793591499328613
1745731534.9954286,0.013472529128193855,-0.020953837782144547,-0.27485010027885437,0.34473735094070435,-0.5935989618301392,-9.4795503616333
1745731534.995477,0.0059028803370893,-0.02162465825676918,-0.27455633878707886,0.48756805062294006,-1.0399333238601685,-9.87836742401123
1745731534.9969678,0.01889154128730297,-0.019753659144043922,-0.2735457718372345,0.37701478600502014,-0.5472396612167358,-9.921335220336914
1745731535.0438182,0.018710611388087273,-0.017786718904972076,-0.2757328450679779,0.32282158732414246,-0.8944093585014343,-9.740565299987793
1745731535.0438974,0.013816768303513527,-0.023868748918175697,-0.27529922127723694,0.4923422336578369,-0.8094922304153442,-9.446648597717285
1745731535.0439389,-0.01340646855533123,-0.019964735954999924,-0.27367234230041504,0.3125985264778137,-0.6424941420555115,-9.663763046264648
1745731535.043981,-0.0042866612784564495,-0.01356198824942112,-0.2738123834133148,0.416677862405777,-0.9071286916732788,-9.708921432495117
1745731535.0762928,-0.010688161477446556,-0.017368793487548828,-0.27501988410949707,0.4110932946205139,-0.5457066297531128,-9.774282455444336
1745731535.0775516,0.005861031357198954,-0.019432412460446358,-0.2754213213920593,0.3731842637062073,-0.7579653859138489,-9.864397048950195
1745731535.0810173,-0.0029177903197705746,-0.017583908513188362,-0.27456027269363403,0.4951953887939453,-0.7040945291519165,-9.748746871948242
1745731535.0834227,0.008369718678295612,-0.019216908141970634,-0.2747446298599243,0.3225959837436676,-0.8995879292488098,-9.704485893249512
1745731535.1217077,-0.006773911416530609,-0.01749100536108017,-0.2738906741142273,0.5047922134399414,-0.945818305015564,-9.63636589050293
1745731535.1315124,-0.00237475149333477,-0.01934342458844185,-0.2711760103702545,0.3757249116897583,-0.729720950126648,-9.781222343444824
1745731535.131608,-0.002608856186270714,-0.011874327436089516,-0.272600919008255,0.4199830889701843,-0.9407063722610474,-9.851479530334473
1745731535.1316974,-0.009871276095509529,-0.018221449106931686,-0.2740662693977356,0.39329296350479126,-0.5282829999923706,-9.616653442382812
1745731535.1317647,-0.006361149251461029,-0.01670505665242672,-0.27348944544792175,0.4276272654533386,-0.9317244291305542,-9.798868179321289
1745731535.162496,-0.008368167094886303,-0.017549283802509308,-0.27626484632492065,0.4348863959312439,-0.6517533659934998,-9.84119987487793
1745731535.1660995,0.0044326866045594215,-0.01425938494503498,-0.2760099172592163,0.23757167160511017,-0.7312840819358826,-9.777551651000977
1745731535.1692164,-0.010263018310070038,-0.013714891858398914,-0.27509722113609314,0.45568886399269104,-0.9265578389167786,-9.524099349975586
1745731535.172491,0.006415446754544973,-0.013116752728819847,-0.2766169309616089,0.3665318787097931,-0.5439686179161072,-9.58637523651123
1745731535.2044837,-0.00409045722335577,-0.01545514166355133,-0.2749713063240051,0.5182381868362427,-1.0139745473861694,-9.976875305175781
1745731535.206512,0.00016137883358169347,-0.015266465954482555,-0.27324897050857544,0.4030682444572449,-0.6211553812026978,-9.852781295776367
1745731535.210177,0.0008611507946625352,-0.01033959910273552,-0.27411529421806335,0.3569793105125427,-1.0039522647857666,-9.720479965209961
1745731535.2124147,-0.007087568286806345,-0.016539115458726883,-0.2733897864818573,0.37582454085350037,-0.6446107625961304,-9.569038391113281
1745731535.2167115,0.0020662329625338316,-0.012111052870750427,-0.27402812242507935,0.3214552104473114,-0.6812618970870972,-9.768200874328613
1745731535.2479312,-0.010636823251843452,-0.01387207955121994,-0.2765442430973053,0.487057626247406,-0.8418804407119751,-9.87962532043457
1745731535.2504253,-0.020431172102689743,-0.013415197841823101,-0.27786946296691895,0.4173574447631836,-0.8725759387016296,-9.669183731079102
1745731535.251967,0.0029893224127590656,-0.019160490483045578,-0.274648517370224,0.3475423753261566,-0.6243176460266113,-9.509891510009766
1745731535.2528002,-0.008008265867829323,-0.014103487133979797,-0.27756375074386597,0.40248245000839233,-0.8946501612663269,-9.779990196228027
1745731535.3035452,-0.010327929630875587,-0.016827234998345375,-0.2758500874042511,0.4977136552333832,-0.6150727272033691,-9.840768814086914
1745731535.3037264,0.0090887900441885,-0.008333602920174599,-0.27491647005081177,0.42368215322494507,-0.8477713465690613,-9.718744277954102
1745731535.3038204,-0.010129032656550407,-0.01690523512661457,-0.2746649980545044,0.41607728600502014,-0.6474593877792358,-9.6140775680542
1745731535.3038945,0.01838819310069084,-0.01641334593296051,-0.27402159571647644,0.35611921548843384,-0.7060551643371582,-9.876594543457031
1745731535.3396,-0.004575900733470917,-0.011451344937086105,-0.2755970060825348,0.4434821605682373,-0.846503734588623,-9.939943313598633
1745731535.3431513,0.017746135592460632,-0.014048786833882332,-0.2758728861808777,0.27777954936027527,-0.5936879515647888,-9.618678092956543
1745731535.3473842,-0.002860038075596094,-0.013277040794491768,-0.27404555678367615,0.41287779808044434,-0.9864369630813599,-9.582198143005371
1745731535.350447,2.723243051150348e-05,-0.017471544444561005,-0.27711114287376404,0.37070411443710327,-0.6487572193145752,-9.718019485473633
1745731535.3528576,0.010326609946787357,-0.008448511362075806,-0.27777495980262756,0.46079954504966736,-0.9085079431533813,-9.860918998718262
1745731535.3778813,-0.01089861523360014,-0.015088552609086037,-0.277299702167511,0.4549018442630768,-0.6821033954620361,-9.738247871398926
1745731535.3817167,0.008536658249795437,-0.010333871468901634,-0.27685198187828064,0.41993004083633423,-0.8593286275863647,-9.726946830749512
1745731535.3856912,-0.007417512591928244,-0.01277984119951725,-0.2748086452484131,0.4884920120239258,-0.7722888588905334,-9.777799606323242
1745731535.3958642,0.011505791917443275,-0.022730639204382896,-0.27474111318588257,0.4129728376865387,-0.6355759501457214,-9.701363563537598
1745731535.4210322,0.02264707162976265,-0.015251124277710915,-0.27780798077583313,0.3074679374694824,-0.7732912302017212,-9.874811172485352
1745731535.4233215,0.0021820678375661373,-0.019722605124115944,-0.27963608503341675,0.5048719048500061,-0.7099465131759644,-9.723421096801758
1745731535.4243643,0.026452308520674706,-0.01596095785498619,-0.2782084345817566,0.3464290201663971,-0.7674216032028198,-9.583036422729492
1745731535.426072,0.0026967190206050873,-0.020654797554016113,-0.27632004022598267,0.4383484721183777,-0.8784758448600769,-9.780863761901855
1745731535.4615805,0.024697814136743546,-0.01925143226981163,-0.27369317412376404,0.35989317297935486,-0.6318029165267944,-9.880571365356445
1745731535.4644744,0.016980763524770737,-0.013919597491621971,-0.2725876569747925,0.43131813406944275,-0.8641141653060913,-9.816682815551758
1745731535.4701822,0.02601769007742405,-0.02346104383468628,-0.27511879801750183,0.389936625957489,-0.5241754651069641,-9.617539405822754
1745731535.4702995,0.02757401205599308,-0.018702225759625435,-0.27281299233436584,0.37110552191734314,-0.8403216600418091,-9.835833549499512
1745731535.4728143,0.021617652848362923,-0.0203743577003479,-0.27624818682670593,0.39588993787765503,-0.6321877241134644,-9.782663345336914
1745731535.5056858,0.04340177774429321,-0.014168022200465202,-0.2762557864189148,0.32758331298828125,-0.8216692805290222,-9.588932037353516
1745731535.5101194,0.010535300709307194,-0.021418575197458267,-0.2753303647041321,0.4754914343357086,-0.8740984201431274,-9.618398666381836
1745731535.5102344,0.02703152969479561,-0.018407918512821198,-0.27505359053611755,0.3649991452693939,-0.7222364544868469,-9.87664794921875
1745731535.5118704,0.017767813056707382,-0.01287805289030075,-0.2738876938819885,0.46242642402648926,-0.9171390533447266,-9.93129825592041
1745731535.5489624,0.017279012128710747,-0.018615512177348137,-0.27548521757125854,0.3477301001548767,-0.567444384098053,-9.617647171020508
1745731535.5511785,0.02420143596827984,-0.016132740303874016,-0.2770884335041046,0.48539966344833374,-0.9123774766921997,-9.657882690429688
1745731535.555025,0.011140810325741768,-0.02375718019902706,-0.27524274587631226,0.4210375249385834,-0.6902933716773987,-9.898516654968262
1745731535.5590558,0.030154597014188766,-0.016378168016672134,-0.2743280529975891,0.3436647355556488,-0.8362401723861694,-9.919575691223145
1745731535.5919344,0.00866625551134348,-0.01778757944703102,-0.2725193202495575,0.44316035509109497,-0.822640597820282,-9.577847480773926
1745731535.5973387,0.03139914572238922,-0.017745401710271835,-0.2743949294090271,0.2936708331108093,-0.7002267837524414,-9.529748916625977
1745731535.602791,0.01729705184698105,-0.016809027642011642,-0.27751094102859497,0.41530996561050415,-0.8990627527236938,-9.926820755004883
1745731535.6028829,0.01961945928633213,-0.022308461368083954,-0.27697044610977173,0.3279358744621277,-0.49631261825561523,-9.541621208190918
1745731535.6362975,0.01770831272006035,-0.02008938416838646,-0.27659329771995544,0.45293450355529785,-1.009641408920288,-9.72724437713623
1745731535.637246,0.02037074789404869,-0.021977445110678673,-0.27658334374427795,0.4132310748100281,-0.5885277390480042,-9.843113899230957
1745731535.6411474,0.028111478313803673,-0.0168998371809721,-0.2779728174209595,0.3021118938922882,-0.7682737112045288,-9.847966194152832
1745731535.6436298,0.018724350258708,-0.018620586022734642,-0.2776726186275482,0.5139869451522827,-0.7933477163314819,-9.501794815063477
1745731535.676468,0.031202655285596848,-0.017282476648688316,-0.27757924795150757,0.33602485060691833,-0.5562564134597778,-9.655508041381836
1745731535.679606,0.022317325696349144,-0.021799933165311813,-0.2794032394886017,0.5648407340049744,-0.9417960047721863,-9.987383842468262
1745731535.6838605,0.0348321869969368,-0.018522152677178383,-0.2764342427253723,0.29788559675216675,-0.5981010794639587,-9.826620101928711
1745731535.685932,0.02652125619351864,-0.016019513830542564,-0.27759721875190735,0.4389442503452301,-1.057689905166626,-9.655564308166504
1745731535.6889532,0.023570461198687553,-0.022512000054121017,-0.2748289406299591,0.3656039237976074,-0.5616306066513062,-9.624797821044922
1745731535.7227666,0.027605628594756126,-0.01906971074640751,-0.27572739124298096,0.323483943939209,-0.8234044313430786,-9.970629692077637
1745731535.7228239,0.02510874904692173,-0.018024632707238197,-0.2760392725467682,0.4754253327846527,-0.7753081321716309,-9.78846549987793
1745731535.7262645,0.040397584438323975,-0.01817387528717518,-0.27843061089515686,0.2791565954685211,-0.6725614070892334,-9.569711685180664
1745731535.730138,0.015746358782052994,-0.021668020635843277,-0.2771363854408264,0.5719250440597534,-0.9166582822799683,-9.723616600036621
1745731535.7659075,0.022140976041555405,-0.019120603799819946,-0.2773229777812958,0.3995820879936218,-1.0111093521118164,-9.746369361877441
1745731535.7669802,0.010673193261027336,-0.02237332984805107,-0.2780393660068512,0.4093637466430664,-0.6480348110198975,-9.816995620727539
1745731535.7693706,0.02244369126856327,-0.018568959087133408,-0.27789050340652466,0.40925565361976624,-0.9195772409439087,-9.880071640014648
1745731535.7707162,0.015316084027290344,-0.020372603088617325,-0.2779518961906433,0.5386694073677063,-0.7621990442276001,-9.628835678100586
1745731535.807405,0.02210472896695137,-0.025395136326551437,-0.277759313583374,0.3345509171485901,-0.6802119016647339,-9.717988014221191
1745731535.8105648,0.011123520322144032,-0.023167993873357773,-0.27848348021507263,0.4499207139015198,-1.0597316026687622,-9.894207954406738
1745731535.827082,0.02022985741496086,-0.017517875880002975,-0.274873286485672,0.2517542541027069,-0.5107879638671875,-9.68928050994873
1745731535.827153,0.016161562874913216,-0.02125343307852745,-0.27638569474220276,0.4531124234199524,-1.0545014142990112,-9.625395774841309
1745731535.8282363,0.017161542549729347,-0.025470340624451637,-0.27395471930503845,0.3837713599205017,-0.5556002259254456,-9.688960075378418
1745731535.8541157,0.020769281312823296,-0.02130996063351631,-0.2760935425758362,0.40550461411476135,-0.9297536611557007,-10.016433715820312
1745731535.8542206,0.010946044698357582,-0.02272500842809677,-0.27549636363983154,0.46184977889060974,-0.7162504196166992,-9.773565292358398
1745731535.8542695,0.01814546063542366,-0.024087393656373024,-0.27706652879714966,0.3545149266719818,-0.807937741279602,-9.61848258972168
1745731535.8572965,0.0058348639868199825,-0.024083752185106277,-0.27429232001304626,0.5021819472312927,-1.0438655614852905,-9.732706069946289
1745731535.8920815,0.021555880084633827,-0.021480852738022804,-0.2744198441505432,0.24805887043476105,-0.5755495429039001,-9.802194595336914
1745731535.894861,0.0021447523031383753,-0.01688939891755581,-0.27595263719558716,0.5267256498336792,-0.9556434750556946,-9.763364791870117
1745731535.8965812,0.019104057922959328,-0.022295888513326645,-0.27566903829574585,0.36910104751586914,-0.5349462628364563,-9.496983528137207
1745731535.8998983,0.01536131463944912,-0.018996894359588623,-0.27690163254737854,0.31354644894599915,-0.8080207705497742,-9.800572395324707
1745731535.9373279,0.016812918707728386,-0.022834932431578636,-0.276685506105423,0.4942827820777893,-0.6830887794494629,-9.885644912719727
1745731535.9463842,0.02652404084801674,-0.01638343371450901,-0.27530637383461,0.2982926070690155,-0.8393489122390747,-9.840367317199707
1745731535.9464242,0.00947555247694254,-0.024447202682495117,-0.27612414956092834,0.4732542037963867,-0.9396528005599976,-9.679647445678711
1745731535.9523015,0.012681948952376842,-0.020292306318879128,-0.276317298412323,0.4449830651283264,-0.9184097051620483,-9.73881721496582
1745731535.9781375,0.015899036079645157,-0.0226695965975523,-0.2765534520149231,0.3801782429218292,-0.6305702328681946,-9.601829528808594
1745731535.978657,0.02464486099779606,-0.01884349249303341,-0.2805235981941223,0.4026033282279968,-0.818041205406189,-9.765057563781738
1745731535.9811778,0.0025568115524947643,-0.022914793342351913,-0.2759409546852112,0.3903389275074005,-0.7941616773605347,-9.796686172485352
1745731535.986976,0.023618701845407486,-0.01627345010638237,-0.27877190709114075,0.3148121237754822,-0.8018566966056824,-9.788034439086914
1745731535.9885669,0.007385152392089367,-0.019426822662353516,-0.2774069309234619,0.4197547435760498,-0.8071735501289368,-9.705415725708008
1745731536.025965,0.024235032498836517,-0.022736597806215286,-0.2780781388282776,0.35507768392562866,-0.5852278470993042,-9.693931579589844
1745731536.0297852,0.018328435719013214,-0.01761976070702076,-0.27934855222702026,0.5085514783859253,-0.8314517736434937,-9.832354545593262
1745731536.0333264,0.024050187319517136,-0.023788509890437126,-0.27705228328704834,0.3630709946155548,-0.6554030179977417,-9.828374862670898
1745731536.0379972,0.02826918661594391,-0.016220346093177795,-0.27744656801223755,0.3710228204727173,-0.9542748332023621,-9.666677474975586
1745731536.0676239,0.015165192075073719,-0.02286730892956257,-0.27442097663879395,0.4036187529563904,-0.7871158719062805,-9.616544723510742
1745731536.0712826,0.028871214017271996,-0.017397837713360786,-0.2743212580680847,0.30124589800834656,-0.8701092600822449,-9.84548568725586
1745731536.0814295,0.007874752394855022,-0.020186584442853928,-0.2760278582572937,0.42130595445632935,-0.7309162020683289,-9.835847854614258
1745731536.0815077,0.02309933304786682,-0.021126341074705124,-0.2782348096370697,0.3556891977787018,-0.6493080854415894,-9.738363265991211
1745731536.1148992,0.014334293082356453,-0.0203443244099617,-0.27942463755607605,0.522948145866394,-0.9006178975105286,-9.707571029663086
1745731536.114979,0.018054578453302383,-0.024689223617315292,-0.2791282534599304,0.32737141847610474,-0.6333386301994324,-9.81121826171875
1745731536.1150377,0.013698955066502094,-0.023181293159723282,-0.27739816904067993,0.42130041122436523,-0.5819780826568604,-9.707433700561523
1745731536.1150954,0.011363332159817219,-0.017049888148903847,-0.2761899530887604,0.3693261742591858,-1.0146937370300293,-9.7190580368042
1745731536.1151423,0.00025713822105899453,-0.02104233391582966,-0.2757655382156372,0.4253769814968109,-0.7840725183486938,-9.685819625854492
1745731536.1527119,0.018424147740006447,-0.015566304326057434,-0.27580538392066956,0.34074535965919495,-0.7229136228561401,-9.750699043273926
1745731536.1549268,-0.010232308879494667,-0.01715315319597721,-0.27626365423202515,0.4932200312614441,-0.9104853868484497,-9.729901313781738
1745731536.1574798,0.014807346276938915,-0.01759827882051468,-0.2763711214065552,0.37754738330841064,-0.6369367837905884,-9.68618106842041
1745731536.1608953,0.0022206774447113276,-0.015854988247156143,-0.27814164757728577,0.4297856390476227,-0.8684502840042114,-9.88145637512207
1745731536.192595,0.0091213034465909,-0.021471183747053146,-0.2768322825431824,0.3595755696296692,-0.6080486178398132,-9.785181045532227
1745731536.1944764,0.015160799026489258,-0.012480935081839561,-0.2786640226840973,0.41294965147972107,-0.8949484825134277,-9.754096984863281
1745731536.196952,-0.0015339066740125418,-0.021629562601447105,-0.27597615122795105,0.4245816171169281,-0.7967095375061035,-9.685487747192383
1745731536.1982582,0.020322827622294426,-0.016964074224233627,-0.275997519493103,0.3419105112552643,-0.801072895526886,-9.717147827148438
1745731536.2015085,-0.006990521214902401,-0.017898647114634514,-0.2743183970451355,0.46965041756629944,-0.8198118209838867,-9.73647689819336
1745731536.2384734,0.020460646599531174,-0.014859845861792564,-0.27579227089881897,0.2811998724937439,-0.654704213142395,-9.725818634033203
1745731536.2419658,0.0003090493264608085,-0.01589629054069519,-0.2784963846206665,0.4592999815940857,-0.776513934135437,-9.734753608703613
1745731536.2428808,0.00880332849919796,-0.017142992466688156,-0.27898961305618286,0.3878186345100403,-0.5984798073768616,-9.818089485168457
1745731536.2461586,0.01718798279762268,-0.011970008723437786,-0.28146713972091675,0.4565509855747223,-0.8984147906303406,-9.85827350616455
1745731536.2805033,0.004322095774114132,-0.018672477453947067,-0.2807382345199585,0.38036221265792847,-0.6468947529792786,-9.680685043334961
1745731536.2844083,0.020174188539385796,-0.015566134825348854,-0.2775307297706604,0.3902461528778076,-0.972392201423645,-9.65678596496582
1745731536.286401,0.0014864467084407806,-0.013288868591189384,-0.279680073261261,0.44733962416648865,-0.6987001895904541,-9.728760719299316
1745731536.288982,0.022348769009113312,-0.01484545785933733,-0.2772928774356842,0.3609830439090729,-0.7988367080688477,-9.81930923461914
1745731536.3225942,0.013636608608067036,-0.019454825669527054,-0.27802833914756775,0.3917607069015503,-0.7160601615905762,-9.520112991333008
1745731536.326816,0.018992768600583076,-0.015636583790183067,-0.2772572934627533,0.35658887028694153,-0.8771570324897766,-9.810172080993652
1745731536.326945,0.010216074995696545,-0.01551008503884077,-0.27871695160865784,0.5465491414070129,-0.8442860841751099,-9.870368957519531
1745731536.3289468,0.02307477593421936,-0.01042999792844057,-0.27759018540382385,0.2949856221675873,-0.6540483236312866,-9.65758991241455
1745731536.3330383,0.001648218953050673,-0.016914833337068558,-0.27814528346061707,0.543175220489502,-0.9669394493103027,-9.617547988891602
1745731536.36825,0.02545079030096531,-0.01583157107234001,-0.2787427306175232,0.34757620096206665,-0.5247974991798401,-9.735818862915039
1745731536.3728254,0.011601983569562435,-0.013609446585178375,-0.2783557176589966,0.40363574028015137,-0.9414507746696472,-9.979454040527344
1745731536.3752255,0.025739451870322227,-0.016416579484939575,-0.2775227427482605,0.4342171549797058,-0.640694797039032,-9.73060131072998
1745731536.3752708,0.01825183443725109,-0.013340124860405922,-0.27724188566207886,0.3385384678840637,-0.9191471934318542,-9.687533378601074
1745731536.4126682,0.01456348318606615,-0.022329574450850487,-0.27724069356918335,0.4520843029022217,-0.7319779992103577,-9.730134963989258
1745731536.4127524,0.02167569473385811,-0.017047444358468056,-0.2779195308685303,0.36752527952194214,-0.7762923240661621,-9.84106731414795
1745731536.4151974,0.004984611179679632,-0.014514608308672905,-0.27750837802886963,0.49979719519615173,-0.9104955792427063,-9.683123588562012
1745731536.4202027,0.026821106672286987,-0.016180463135242462,-0.2789958119392395,0.3803337514400482,-0.5908913016319275,-9.524198532104492
1745731536.4234843,3.058426227653399e-05,-0.01816265843808651,-0.27658194303512573,0.4469129145145416,-1.0311098098754883,-9.842504501342773
1745731536.4544187,0.014873246662318707,-0.015670636668801308,-0.27727776765823364,0.36135134100914,-0.6083407998085022,-9.829780578613281
1745731536.4569025,0.014376923441886902,-0.007536685559898615,-0.27632224559783936,0.3680020868778229,-0.8785554766654968,-9.719758987426758
1745731536.4584236,0.00500054657459259,-0.018984481692314148,-0.27692121267318726,0.4477387070655823,-0.6017600297927856,-9.612844467163086
1745731536.459847,0.014528622850775719,-0.01716100238263607,-0.2771296799182892,0.36249926686286926,-0.9468475580215454,-9.869038581848145
1745731536.497673,-0.0008447251166217029,-0.0193115696310997,-0.27685117721557617,0.40597644448280334,-0.7905777096748352,-9.859892845153809
1745731536.5024872,0.010684463195502758,-0.015819918364286423,-0.2765086591243744,0.28385061025619507,-0.6528252363204956,-9.677006721496582
1745731536.5138667,-0.002169555053114891,-0.018295545130968094,-0.27783647179603577,0.5211057662963867,-0.9865543246269226,-9.637799263000488
1745731536.5140462,0.013118123635649681,-0.02206205204129219,-0.2773316204547882,0.2998711168766022,-0.5324418544769287,-9.779825210571289
1745731536.542253,-0.003598285373300314,-0.015870194882154465,-0.27888137102127075,0.5107389092445374,-0.9909645915031433,-9.925139427185059
1745731536.5441592,0.004741850774735212,-0.01866736076772213,-0.27810361981391907,0.43415623903274536,-0.6854543685913086,-9.584758758544922
1745731536.5442421,0.0023817066103219986,-0.013695579953491688,-0.2765679359436035,0.2900991141796112,-0.8827703595161438,-9.65703296661377
1745731536.5443037,-0.004612516611814499,-0.02120436355471611,-0.2774052023887634,0.5089281797409058,-0.771056056022644,-9.80656623840332
1745731536.5803533,0.010838741436600685,-0.01595132425427437,-0.27500206232070923,0.32227084040641785,-0.7180899977684021,-9.891569137573242
1745731536.5830307,-0.0032217889092862606,-0.019800059497356415,-0.2762937545776367,0.46894747018814087,-0.8424206972122192,-9.709624290466309
1745731536.5867171,0.008926840499043465,-0.02229657582938671,-0.2770302891731262,0.3176427483558655,-0.5594126582145691,-9.656858444213867
1745731536.5896537,-0.0028097531758248806,-0.01846427097916603,-0.2782849669456482,0.44631966948509216,-0.9255982637405396,-9.821004867553711
1745731536.5931063,0.013453295454382896,-0.018243864178657532,-0.27709633111953735,0.42154550552368164,-0.5887036919593811,-9.71812629699707
1745731536.626229,0.006148295011371374,-0.01739136315882206,-0.27865105867385864,0.38260576128959656,-0.9061080813407898,-9.697219848632812
1745731536.6305122,-0.003148746443912387,-0.02284117415547371,-0.27690452337265015,0.4944187104701996,-0.7598053216934204,-9.699262619018555
1745731536.6350648,0.01760326884686947,-0.012912246398627758,-0.2765064835548401,0.3299393057823181,-0.7226141691207886,-9.810530662536621
1745731536.6395516,-0.005194144323468208,-0.018564913421869278,-0.27599912881851196,0.4713281989097595,-0.7884984016418457,-9.739542961120605
1745731536.6708362,0.010595157742500305,-0.017569145187735558,-0.2768908143043518,0.4314982295036316,-0.8413959741592407,-9.708770751953125
1745731536.6723742,-0.0075791338458657265,-0.020203299820423126,-0.27798083424568176,0.484923779964447,-0.7128939628601074,-9.927399635314941
1745731536.6747031,0.013904663734138012,-0.015417734161019325,-0.2780984938144684,0.3390377163887024,-0.8153036236763,-9.832180976867676
1745731536.6765132,-0.007466421462595463,-0.018168872222304344,-0.2779426574707031,0.44855913519859314,-0.7518914341926575,-9.553142547607422
1745731536.7100768,0.0027136679273098707,-0.019772736355662346,-0.27734535932540894,0.38744086027145386,-0.6601530313491821,-9.732388496398926
1745731536.7128668,0.006110416725277901,-0.018986757844686508,-0.2779203951358795,0.4511493146419525,-0.8943217992782593,-9.952054977416992
1745731536.7143636,0.020244747400283813,-0.018610939383506775,-0.2701384425163269,0.23421072959899902,-0.5535866022109985,-9.684165954589844
1745731536.7157552,0.020790696144104004,-0.020205724984407425,-0.26592352986335754,-0.04032396525144577,-1.0026534795761108,-9.689226150512695
1745731536.754975,0.027340417727828026,-0.008676985278725624,-0.25403445959091187,-0.1694696694612503,-0.8316035270690918,-9.567608833312988
1745731536.755038,-0.00786968320608139,-0.05599252134561539,-0.245168536901474,-0.07511405646800995,-1.4914711713790894,-9.801019668579102
1745731536.7598991,-0.03135351091623306,-0.007413913961499929,-0.24068352580070496,-0.6388059854507446,-1.00412118434906,-10.28156566619873
1745731536.7599475,-0.037448544055223465,-0.028280207887291908,-0.24299749732017517,-0.4181808531284332,-0.4946965277194977,-9.181119918823242
1745731536.7604375,-0.06814220547676086,-0.03661855682730675,-0.24102084338665009,0.27402740716934204,-0.9463419914245605,-9.087346076965332
1745731536.7995422,-0.07056133449077606,-0.052880268543958664,-0.24289274215698242,0.21893712878227234,-0.4571809768676758,-10.456957817077637
1745731536.8041577,-0.06467444449663162,-0.05087251588702202,-0.22892406582832336,0.30098044872283936,-1.5494768619537354,-11.020308494567871
1745731536.8074703,-0.05667756870388985,-0.034408725798130035,-0.21497055888175964,-0.3740667402744293,-0.42763465642929077,-9.198349952697754
1745731536.8126192,-0.01967846415936947,-0.045929454267024994,-0.12017041444778442,0.47858619689941406,-0.26283183693885803,-12.451236724853516
1745731536.8426785,-0.05734864994883537,-0.027791282162070274,-0.11989045143127441,-0.12975981831550598,-0.5589290857315063,-9.499044418334961
1745731536.848997,-0.03997441381216049,-0.06829597800970078,-0.11019738018512726,0.053365062922239304,-0.8250910043716431,-7.1262664794921875
1745731536.8523529,-0.08519020676612854,-0.07211975753307343,-0.10095737129449844,0.530896782875061,-1.0105482339859009,-10.1940279006958
1745731536.857213,-0.0893961638212204,-0.04227834939956665,-0.09952686727046967,-0.14154841005802155,-0.5011008977890015,-12.31754207611084
1745731536.8820744,-0.08895254135131836,-0.02296249009668827,-0.10239654779434204,0.07967209070920944,-0.6078401803970337,-9.332077026367188
1745731536.8841412,-0.11051802337169647,-0.06417708098888397,-0.10143333673477173,0.47494739294052124,-0.23761992156505585,-7.379164695739746
1745731536.887027,-0.11844829469919205,-0.06420678645372391,-0.10310635715723038,0.07208561897277832,-0.5112767219543457,-10.665750503540039
1745731536.888191,-0.0980059802532196,-0.04466715455055237,-0.10101890563964844,0.4363327622413635,-0.5481265783309937,-12.073404312133789
1745731536.8907092,-0.07446593046188354,-0.017121419310569763,-0.08788392692804337,0.03365243226289749,-0.6104747653007507,-9.235000610351562
1745731536.9315243,-0.08260589838027954,-0.04548120126128197,-0.07126332819461823,-0.03568224981427193,-0.536819577217102,-7.536580562591553
1745731536.93676,-0.06342725455760956,-0.06740380823612213,-0.06539502739906311,0.04493971914052963,-0.3156920373439789,-10.153356552124023
1745731536.9368486,-0.04162776097655296,-0.018110033124685287,-0.06751339137554169,0.04775024577975273,-0.24143162369728088,-11.88694953918457
1745731536.9384434,-0.04650196433067322,-0.014557154849171638,-0.07368560880422592,0.038808345794677734,-0.12054093182086945,-9.473663330078125
1745731536.9800415,-0.024630550295114517,-0.044677842408418655,-0.07827242463827133,-0.03753603249788284,-0.3859889507293701,-7.957000732421875
1745731536.9801297,-0.0982074961066246,-0.03468703478574753,-0.07171769440174103,0.0695708692073822,-1.29105544090271,-10.055330276489258
1745731536.9802186,-0.08717648684978485,-0.01215186808258295,-0.0546385832130909,0.6802244782447815,-1.456220030784607,-11.072124481201172
1745731536.9802794,-0.13657645881175995,0.0040643541142344475,-0.03859042376279831,0.804731547832489,-1.5016138553619385,-9.806004524230957
1745731536.980312,-0.1831406056880951,-0.0076182326301932335,-0.01973531022667885,0.5790220499038696,-1.0762239694595337,-8.579837799072266
1745731537.012181,-0.192218616604805,-0.024378515779972076,-0.004976317752152681,1.2353203296661377,-0.6860462427139282,-9.704360961914062
1745731537.0150642,-0.18008100986480713,-0.0061281234957277775,-0.00483271898701787,0.8474836349487305,0.37482139468193054,-11.279973030090332
1745731537.0156312,-0.05226115137338638,0.03973616287112236,0.05164705961942673,-0.03184869885444641,-1.3614143133163452,-9.515124320983887
1745731537.0178552,-0.12653802335262299,0.04143683984875679,0.06076624244451523,0.3846990466117859,-1.3077945709228516,-8.917699813842773
1745731537.0548558,-0.14910300076007843,0.038298849016427994,0.06401214003562927,0.3046746551990509,-0.704811692237854,-9.78421688079834
1745731537.0577157,-0.18736909329891205,0.043123263865709305,0.05927308648824692,0.45808881521224976,-0.8522011637687683,-10.705373764038086
1745731537.0596082,-0.192732572555542,0.0486907996237278,0.06480317562818527,0.400519996881485,-0.34488746523857117,-9.912795066833496
1745731537.0630183,-0.1815195083618164,0.05703296139836311,0.07103820145130157,0.3299337327480316,-0.5646297931671143,-9.077399253845215
1745731537.0981634,-0.18535825610160828,0.04314979538321495,0.0861877053976059,0.3370821475982666,-0.13442084193229675,-9.43406867980957
1745731537.1019354,-0.14718660712242126,0.05505775660276413,0.09833701699972153,0.49205678701400757,-0.31575578451156616,-10.539560317993164
1745731537.1046948,-0.13386109471321106,0.06398065388202667,0.10502856969833374,0.4704025685787201,0.2802644371986389,-10.1494722366333
1745731537.1086845,-0.0941617414355278,0.061545539647340775,0.11083672940731049,0.17570170760154724,0.3868764042854309,-9.085321426391602
1745731537.1110284,-0.08937881886959076,0.050686199218034744,0.10662280023097992,0.5676476359367371,0.24751253426074982,-9.379395484924316
1745731537.144214,-0.07359997928142548,0.05210825055837631,0.10393931716680527,0.5504897832870483,0.3340001702308655,-10.570989608764648
1745731537.1479437,-0.06350657343864441,0.06484692543745041,0.10346901416778564,0.5132898092269897,-0.38559597730636597,-10.398673057556152
1745731537.1516798,-0.0902927964925766,0.059008099138736725,0.10990463197231293,0.25573116540908813,-0.35633331537246704,-9.040643692016602
1745731537.1563628,-0.09607674181461334,0.058979760855436325,0.11803589761257172,0.5053288340568542,-0.8973296880722046,-9.099838256835938
1745731537.1841462,-0.14535699784755707,0.03942758962512016,0.22790995240211487,0.5159443020820618,0.387479305267334,-9.211939811706543
1745731537.1865358,-0.14764666557312012,0.04138874635100365,0.22752781212329865,0.6438382863998413,-0.051906079053878784,-10.355145454406738
1745731537.1893752,-0.13336536288261414,0.03795408084988594,0.22816982865333557,0.5660988092422485,0.39986154437065125,-10.14323902130127
1745731537.1904438,-0.12941500544548035,0.042234279215335846,0.22911587357521057,0.41655629873275757,-0.035373326390981674,-9.376708030700684
1745731537.2389374,-0.1474888026714325,0.028124447911977768,0.23171810805797577,0.44530782103538513,0.10541067272424698,-9.269468307495117
1745731537.2390256,-0.14071695506572723,0.0281512551009655,0.23282480239868164,0.3911166787147522,-0.025918882340192795,-10.018533706665039
1745731537.2407713,-0.16036032140254974,0.032037995755672455,0.23515479266643524,0.631924033164978,-0.16990961134433746,-10.069402694702148
1745731537.2448459,-0.15486595034599304,0.029887909069657326,0.2381742000579834,0.4594706892967224,0.16747036576271057,-9.492898941040039
1745731537.2694838,-0.1683005541563034,0.022238722071051598,0.24254700541496277,0.5608125925064087,-0.10565493255853653,-9.428513526916504
1745731537.2704628,-0.1685071438550949,0.01536046527326107,0.24247625470161438,0.4888674318790436,0.15340694785118103,-9.939985275268555
1745731537.2756913,-0.15755845606327057,0.02505805529654026,0.24684934318065643,0.5429881811141968,-0.07284976541996002,-10.051117897033691
1745731537.2791429,-0.17223064601421356,0.02081693708896637,0.25193360447883606,0.4574146270751953,0.18688058853149414,-9.515310287475586
1745731537.282524,-0.15293684601783752,0.016460822895169258,0.2554904520511627,0.2775006890296936,0.20685073733329773,-9.356330871582031
1745731537.3152783,-0.17010954022407532,0.010898584499955177,0.25452643632888794,0.5366745591163635,0.15074041485786438,-9.763448715209961
1745731537.320808,-0.14890147745609283,0.018270548433065414,0.2567589581012726,0.4187104105949402,0.41964441537857056,-10.012598991394043
1745731537.3253813,-0.16432200372219086,0.015238712541759014,0.2545885443687439,0.5755969882011414,0.0259973406791687,-9.706242561340332
1745731537.3370628,-0.15791872143745422,0.0037252057809382677,0.2554616332054138,0.5335515737533569,0.3264496922492981,-9.441615104675293
1745731537.356575,-0.16701188683509827,0.00883637834340334,0.26050543785095215,0.6090861558914185,-0.08832049369812012,-9.837272644042969
1745731537.3613236,-0.16774021089076996,0.0067389048635959625,0.26191097497940063,0.5256431698799133,0.27464431524276733,-9.949588775634766
1745731537.3637612,-0.16371676325798035,0.009968806058168411,0.2674804925918579,0.38639742136001587,0.10570130497217178,-9.677953720092773
1745731537.3681364,-0.16877804696559906,-0.0023033854085952044,0.27127909660339355,0.6003934144973755,0.26033273339271545,-9.394564628601074
1745731537.4025102,-0.17937329411506653,-0.009996543638408184,0.284020334482193,0.504825234413147,0.2743678092956543,-9.616180419921875
1745731537.4056084,-0.16140609979629517,-0.018561765551567078,0.28516343235969543,0.4043327271938324,0.3951428532600403,-9.801809310913086
1745731537.4062314,-0.1703561693429947,-0.011491131968796253,0.2870420813560486,0.575760006904602,0.22240087389945984,-9.863110542297363
1745731537.4090931,-0.16209840774536133,-0.013967630453407764,0.29000455141067505,0.39507976174354553,0.5611847043037415,-9.706294059753418
1745731537.4131036,-0.16267110407352448,-0.01591903530061245,0.29032644629478455,0.40022334456443787,0.2390654981136322,-9.727985382080078
1745731537.4454572,-0.16485175490379333,-0.020177995786070824,0.2897694408893585,0.5344724059104919,0.47983217239379883,-9.720356941223145
1745731537.4492354,-0.14741960167884827,-0.015567201189696789,0.2929650545120239,0.45213380455970764,0.38063523173332214,-9.840576171875
1745731537.4502835,-0.16596749424934387,-0.021126508712768555,0.29707878828048706,0.5165311694145203,0.3754705786705017,-9.860962867736816
1745731537.452838,-0.1388344019651413,-0.031100761145353317,0.29987195134162903,0.5231505632400513,0.4572445750236511,-9.84284782409668
1745731537.4865608,-0.13101930916309357,-0.04181258752942085,0.2918625473976135,0.6524413824081421,0.9242038726806641,-9.740327835083008
1745731537.4898722,-0.11615709215402603,-0.038694046437740326,0.2730327248573303,-0.5816285014152527,1.3084884881973267,-10.41750717163086
1745731537.4925504,-0.09445413202047348,-0.04870164021849632,0.2540562152862549,-0.3777344822883606,0.8166017532348633,-9.391817092895508
1745731537.5049398,-0.06188378483057022,-0.05054866150021553,0.24394254386425018,-0.413430392742157,0.8416506052017212,-9.303119659423828
1745731537.527762,-0.058160074055194855,-0.04412056878209114,0.23337094485759735,-0.9108480215072632,0.3776327669620514,-10.25175666809082
1745731537.532282,-0.08385912328958511,-0.04439111799001694,0.23956911265850067,-0.5251962542533875,-0.9181025624275208,-9.784948348999023
1745731537.536576,-0.06491831690073013,-0.03524262458086014,0.18430152535438538,0.1907448023557663,-0.5200310945510864,-8.324029922485352
1745731537.5420098,-0.11020133644342422,-0.0751476138830185,0.2026968002319336,0.846971333026886,-0.27469414472579956,-7.625058650970459
1745731537.547394,-0.18498070538043976,-0.07862497866153717,0.21821312606334686,1.453870177268982,-0.5903027653694153,-11.388443946838379
1745731537.5735354,-0.18195781111717224,-0.045521270483732224,0.22312907874584198,1.184744954109192,0.47467905282974243,-12.18282413482666
1745731537.577373,-0.18082022666931152,-0.04174094647169113,0.21930423378944397,1.0143063068389893,1.0873626470565796,-8.616735458374023
1745731537.5806563,-0.18833544850349426,-0.08378051221370697,0.22794055938720703,0.9229882955551147,1.3190486431121826,-8.358915328979492
1745731537.582961,-0.1075747162103653,-0.08722904324531555,0.22948524355888367,0.2646130621433258,1.5705950260162354,-11.285061836242676
1745731537.614025,-0.07785579562187195,-0.03471701592206955,0.2336021363735199,-0.1835324466228485,1.2399870157241821,-11.33760929107666
1745731537.6184874,-0.0189877487719059,-0.03063499927520752,0.24190258979797363,-0.387287437915802,1.5912399291992188,-8.012784957885742
1745731537.62058,0.02519291080534458,-0.05937937647104263,0.24539072811603546,0.1831997185945511,1.3623394966125488,-7.880146026611328
1745731537.6250525,0.031002333387732506,-0.049832798540592194,0.2439262866973877,0.3669111132621765,1.2007384300231934,-11.437835693359375
1745731537.6260478,0.08719108253717422,-0.006567792501300573,0.24052390456199646,0.592890739440918,0.4567505717277527,-11.871500015258789
1745731537.669325,0.02431405521929264,-0.011941200122237206,0.24916653335094452,0.6085677742958069,-0.2226538360118866,-8.637825012207031
1745731537.6694107,-0.016167502850294113,-0.04226560518145561,0.2595624029636383,0.45501843094825745,-0.799106240272522,-8.059992790222168
1745731537.6694613,-0.11289216578006744,-0.02803385816514492,0.26888909935951233,0.6353369951248169,-1.0091124773025513,-10.757658004760742
1745731537.673269,-0.14935138821601868,0.0038232277147471905,0.2744864821434021,0.29098784923553467,-0.14577016234397888,-11.331136703491211
1745731537.7027252,-0.18898659944534302,0.003301807912066579,0.27403777837753296,0.4122160077095032,0.057109951972961426,-8.849332809448242
1745731537.705888,-0.21363849937915802,-0.025045951828360558,0.2714538276195526,0.23362866044044495,0.9294536709785461,-8.392457008361816
1745731537.7068806,-0.18947452306747437,-0.015456545166671276,0.27010223269462585,0.20824095606803894,0.9271098971366882,-10.84134578704834
1745731537.7089183,-0.16366294026374817,0.008645366877317429,0.26971474289894104,0.21857476234436035,1.1877470016479492,-11.095823287963867
1745731537.7108245,-0.10909314453601837,0.010416013188660145,0.2781556248664856,0.19416381418704987,1.1227316856384277,-8.98409652709961
1745731537.7463908,-0.1358184516429901,0.006966954562813044,0.3010464012622833,0.5643733739852905,0.346963495016098,-9.9992036819458
1745731537.7493904,-0.10311448574066162,0.02216016687452793,0.30889248847961426,0.37840431928634644,0.9075876474380493,-10.353288650512695
1745731537.7498946,-0.09901991486549377,0.02553916536271572,0.3108099102973938,0.3484855890274048,0.6921699047088623,-9.67609977722168
1745731537.7515674,-0.08717135339975357,0.015548264607787132,0.3144204318523407,0.1673002541065216,0.839968204498291,-9.247562408447266
1745731537.7882018,-0.07964244484901428,0.024886274710297585,0.3157503306865692,0.2223474085330963,0.7327651381492615,-9.626188278198242
1745731537.7909687,-0.09516280889511108,0.026871372014284134,0.31342917680740356,0.47056907415390015,0.6027966737747192,-10.047506332397461
1745731537.792613,-0.08708847314119339,0.02922360599040985,0.31492289900779724,0.3647679090499878,0.8057941198348999,-9.84025764465332
1745731537.795845,-0.12601354718208313,0.023289594799280167,0.31260114908218384,0.5838226675987244,0.4582970142364502,-9.52193832397461
1745731537.8304791,-0.11083902418613434,0.024193961173295975,0.3111910820007324,0.5702481865882874,0.826254665851593,-9.499463081359863
1745731537.8351734,-0.13981027901172638,0.02701687440276146,0.3118543028831482,0.7765164375305176,0.4908464848995209,-10.091984748840332
1745731537.835909,-0.12431223690509796,0.013643559999763966,0.31665104627609253,0.5992041826248169,0.9237657785415649,-10.061509132385254
1745731537.8403354,-0.10341668128967285,0.029022300615906715,0.3230060935020447,0.34329408407211304,0.7230715155601501,-9.650153160095215
1745731537.8735554,-0.10024867951869965,0.02742914855480194,0.3302217721939087,0.34547245502471924,1.118986964225769,-9.217652320861816
1745731537.876715,-0.0647483840584755,0.021880049258470535,0.3291163146495819,0.2945877015590668,1.122363805770874,-9.73719596862793
1745731537.8785846,-0.05191567540168762,0.018528418615460396,0.3284710645675659,0.45661410689353943,1.1499640941619873,-10.10234260559082
1745731537.881,-0.08199316263198853,-0.0014983995351940393,0.3446442186832428,0.49500542879104614,0.8709090948104858,-9.436396598815918
1745731537.8914332,-0.09017620980739594,-0.010050615295767784,0.34709131717681885,0.5820518732070923,1.095288634300232,-9.843171119689941
1745731537.916595,-0.07781665772199631,0.0007076064357534051,0.3461152911186218,0.4982609152793884,0.9060148000717163,-9.995488166809082
1745731537.9179914,-0.08309785276651382,-0.007903452031314373,0.345140278339386,0.5715478658676147,0.9449325799942017,-9.512666702270508
1745731537.9209607,-0.07599899917840958,-0.011974027380347252,0.34803980588912964,0.37189584970474243,0.9608485102653503,-9.546274185180664
1745731537.921022,-0.07850442826747894,-0.012739529833197594,0.3489765226840973,0.5525600910186768,0.7649652361869812,-9.843796730041504
1745731537.9630597,-0.0615287646651268,-0.0074462490156292915,0.35052016377449036,0.4541044235229492,1.1600250005722046,-9.6851224899292
1745731537.963149,-0.07150639593601227,-0.013026612810790539,0.3506484627723694,0.5019725561141968,0.7401025891304016,-9.692611694335938
1745731537.9671783,-0.06558449566364288,-0.027085360139608383,0.3498932421207428,0.48219746351242065,1.1158519983291626,-9.65071964263916
1745731537.9709914,-0.0619460754096508,-0.013421828858554363,0.3524107038974762,0.4773605465888977,0.73419588804245,-9.832748413085938
1745731537.977469,-0.08037538826465607,-0.01985807530581951,0.3518123924732208,0.45638328790664673,0.89665687084198,-9.668618202209473
1745731538.003938,-0.06631804257631302,-0.020927978679537773,0.35218650102615356,0.4326954782009125,0.7188299894332886,-9.571382522583008
1745731538.005755,-0.0901137962937355,-0.02567313238978386,0.35484281182289124,0.6476553082466125,0.9147527813911438,-9.597143173217773
1745731538.0098727,-0.07613982260227203,-0.02530795708298683,0.35360047221183777,0.5039187669754028,0.9700219035148621,-9.913643836975098
1745731538.0144415,-0.08543775230646133,-0.022656461223959923,0.3535231649875641,0.52610182762146,0.8974436521530151,-9.830814361572266
1745731538.0450947,-0.08004501461982727,-0.028954584151506424,0.3540472090244293,0.4021610617637634,1.136760950088501,-9.489559173583984
1745731538.0564294,-0.06767876446247101,-0.028905361890792847,0.3547495901584625,0.47224754095077515,0.9055862426757812,-9.559938430786133
1745731538.0565252,-0.08414813131093979,-0.028453737497329712,0.35440728068351746,0.4274366497993469,1.1077817678451538,-9.87028694152832
1745731538.0565739,-0.05020764470100403,-0.030122244730591774,0.3557497262954712,0.3621250092983246,1.027606725692749,-9.794295310974121
1745731538.0566216,-0.06942068785429001,-0.03241606801748276,0.35743194818496704,0.4701623022556305,0.9854389429092407,-9.468816757202148
1745731538.0888827,-0.04694760963320732,-0.030016537755727768,0.35791677236557007,0.4358777105808258,1.0738489627838135,-9.566288948059082
1745731538.0904808,-0.054984163492918015,-0.04179901257157326,0.35759419202804565,0.30077141523361206,1.2279850244522095,-9.689838409423828
1745731538.1012716,-0.06243409588932991,-0.038810260593891144,0.35862863063812256,0.5922367572784424,0.8393155932426453,-9.592312812805176
1745731538.1013198,-0.05178011581301689,-0.0412859171628952,0.3626992106437683,0.44448286294937134,1.1862504482269287,-9.70511245727539
1745731538.139754,-0.045731671154499054,-0.0407637394964695,0.3603532612323761,0.4092954695224762,0.9886126518249512,-9.917778015136719
1745731538.1440437,-0.0528562068939209,-0.04560299962759018,0.3604308068752289,0.49516791105270386,1.0444295406341553,-9.749738693237305
1745731538.147563,-0.03647329658269882,-0.03981632739305496,0.3596501648426056,0.3880341947078705,1.1395715475082397,-9.64111042022705
