timestamp,angular_vel_x,angular_vel_y,angular_vel_z,linear_acc_x,linear_acc_y,linear_acc_z
1745728279.5345793,-0.08256102353334427,0.006681748665869236,0.29196709394454956,0.787914514541626,0.16048136353492737,-9.963261604309082
1745728279.5374238,-0.1004738062620163,0.010454831644892693,0.2954352796077728,0.9030107259750366,-0.3722776174545288,-9.972434043884277
1745728279.543065,-0.10950350761413574,0.0020124686416238546,0.3007374107837677,0.8302650451660156,-0.10693994909524918,-9.469751358032227
1745728279.5432382,-0.12404201179742813,0.006275545805692673,0.30729857087135315,0.9318994283676147,-0.4731234610080719,-9.561025619506836
1745728279.573513,-0.15663553774356842,0.0033423558343201876,0.31264424324035645,0.9627982974052429,-0.11676378548145294,-9.898503303527832
1745728279.5817482,-0.15443333983421326,0.007025794126093388,0.3127189874649048,0.7891122698783875,-0.15490946173667908,-9.961793899536133
1745728279.5821064,-0.17602737247943878,0.003250430803745985,0.31564581394195557,0.9263852834701538,-0.005789922084659338,-9.452665328979492
1745728279.723271,-0.1729547530412674,0.002487212885171175,0.3197961449623108,0.716702938079834,0.22565166652202606,-9.547029495239258
1745728279.7233613,-0.14891041815280914,-0.024426531046628952,0.40863656997680664,0.800582766532898,0.22802281379699707,-9.877159118652344
1745728279.7234185,-0.16293445229530334,-0.027918076142668724,0.4147857129573822,0.8655505180358887,0.07286876440048218,-9.814654350280762
1745728279.7235088,-0.1639377325773239,-0.028480585664510727,0.41513293981552124,0.7065567970275879,0.38651376962661743,-9.580697059631348
1745728279.723594,-0.17610427737236023,-0.02936549112200737,0.4228231906890869,0.7743004560470581,0.565613865852356,-9.832529067993164
1745728279.7236865,-0.15776947140693665,-0.02840355597436428,0.4218774735927582,0.6755046248435974,0.44314461946487427,-9.82728099822998
1745728279.7237697,-0.16367067396640778,-0.03031006082892418,0.4248470366001129,0.7697393894195557,0.5269479155540466,-9.60434341430664
1745728279.7238252,-0.13834920525550842,-0.026306837797164917,0.42680788040161133,0.5834288597106934,0.6113179326057434,-9.645586967468262
1745728279.723872,-0.15229249000549316,-0.025297218933701515,0.4248412251472473,0.7921879291534424,0.4279683232307434,-9.705317497253418
1745728279.7239115,-0.1318999081850052,-0.029766803607344627,0.42808860540390015,0.7026816606521606,0.598631739616394,-9.755017280578613
1745728279.723953,-0.144500732421875,-0.026424020528793335,0.4285776615142822,0.9044982194900513,0.28350991010665894,-9.813096046447754
1745728279.724001,-0.14216317236423492,-0.028895298019051552,0.43162041902542114,0.7173728346824646,0.504551887512207,-9.743886947631836
1745728279.724039,-0.1427706629037857,-0.025195196270942688,0.4322863519191742,0.6942077279090881,0.20900991559028625,-9.72199535369873
1745728279.724079,-0.1616179645061493,-0.03445953503251076,0.43470287322998047,0.8688185811042786,0.39436158537864685,-9.652783393859863
1745728279.7365563,-0.1493794322013855,-0.026969879865646362,0.43782633543014526,0.7583528161048889,0.3929271101951599,-9.827651023864746
1745728279.738746,-0.16934563219547272,-0.02923424169421196,0.43595561385154724,0.7924111485481262,0.4558785557746887,-9.8222074508667
1745728279.7405162,-0.15429672598838806,-0.036261849105358124,0.4375653862953186,0.6145884990692139,0.5368984937667847,-9.765851974487305
1745728279.7418256,-0.15865425765514374,-0.029831279069185257,0.43880924582481384,0.8030856847763062,0.45644083619117737,-9.685539245605469
1745728279.7787998,-0.159838005900383,-0.03378532826900482,0.4390912652015686,0.6732512712478638,0.7233567237854004,-9.727781295776367
1745728279.7812724,-0.1502440869808197,-0.0335356704890728,0.4404004216194153,0.7151071429252625,0.3594690263271332,-9.874899864196777
1745728279.7824788,-0.15322117507457733,-0.03560418263077736,0.4417746067047119,0.8149563670158386,0.6902408599853516,-9.733518600463867
1745728279.7835727,-0.13817991316318512,-0.02947089448571205,0.4447636604309082,0.6296181082725525,0.5047963857650757,-9.698230743408203
1745728279.8214717,-0.14067399501800537,-0.03544926270842552,0.4479115605354309,0.7259154319763184,0.718328595161438,-9.67668342590332
1745728279.8248112,-0.1397136002779007,-0.026735937222838402,0.44857826828956604,0.665681004524231,0.47642892599105835,-9.860115051269531
1745728279.8286307,-0.14910128712654114,-0.03327368199825287,0.4478251338005066,0.7418822646141052,0.5836743712425232,-9.76939868927002
1745728279.831907,-0.13518795371055603,-0.03250788152217865,0.44916096329689026,0.6376563310623169,0.6867249608039856,-9.704072952270508
1745728279.8319898,-0.14402978122234344,-0.029121985659003258,0.450641393661499,0.7857508659362793,0.4344717860221863,-9.813356399536133
1745728279.9648924,-0.1337764412164688,-0.02805645391345024,0.4532867968082428,0.5732018351554871,0.8250802159309387,-9.766043663024902
1745728279.9650407,-0.13707788288593292,-0.03178148716688156,0.4511409401893616,0.7528617978096008,0.34293198585510254,-9.79109001159668
1745728279.9652522,-0.1357215940952301,-0.03376822918653488,0.4548231065273285,0.7100023627281189,0.9102862477302551,-9.640928268432617
1745728279.9653666,-0.1292722523212433,-0.028318366035819054,0.4519287049770355,0.679302990436554,0.49477624893188477,-9.872291564941406
1745728279.96545,-0.13986404240131378,-0.03477978706359863,0.45285263657569885,0.7401987314224243,0.7332614660263062,-9.861409187316895
1745728279.9655077,-0.12407334893941879,-0.030254840850830078,0.4529109001159668,0.6191653609275818,0.637646496295929,-9.744534492492676
1745728279.9655664,-0.14275558292865753,-0.03235630318522453,0.45316290855407715,0.768242359161377,0.585058867931366,-9.618644714355469
1745728279.9656303,-0.13048525154590607,-0.035155851393938065,0.4514835476875305,0.547490119934082,0.7562955617904663,-9.839364051818848
1745728279.965705,-0.13389375805854797,-0.029920578002929688,0.45234012603759766,0.767674446105957,0.5365500450134277,-9.844743728637695
1745728279.9657495,-0.10308565944433212,-0.028586378321051598,0.4472082555294037,0.7084110975265503,0.9487997889518738,-9.871304512023926
1745728279.9658065,-0.07872673124074936,-0.024609968066215515,0.44699686765670776,0.533687949180603,0.9328157305717468,-9.967814445495605
1745728279.965854,-0.09263458102941513,-0.0291972067207098,0.44578084349632263,0.6591414213180542,0.7988864779472351,-9.69648551940918
1745728279.9658926,-0.06888134777545929,-0.027202293276786804,0.4456031918525696,0.5098352432250977,1.0689475536346436,-9.55066967010498
1745728279.996192,-0.08678184449672699,-0.025304535403847694,0.4460574984550476,0.6835428476333618,0.7298983335494995,-9.77558708190918
1745728280.0018225,-0.0722159817814827,-0.0315147265791893,0.4467041492462158,0.5495796799659729,0.9491693377494812,-9.877501487731934
1745728280.001956,-0.07775700092315674,-0.022545095533132553,0.44353634119033813,0.6830140948295593,0.7250301241874695,-9.793535232543945
1745728280.0050728,-0.08111338317394257,-0.028458615764975548,0.445030152797699,0.6280397176742554,0.905412495136261,-9.618936538696289
1745728280.035902,-0.06962807476520538,-0.0232187919318676,0.446799099445343,0.5336217880249023,0.7970899343490601,-9.695219039916992
1745728280.0372884,-0.08742336183786392,-0.029383648186922073,0.4444531798362732,0.7132573127746582,0.8190153241157532,-9.825055122375488
1745728280.0397158,-0.07251456379890442,-0.02074112370610237,0.44454121589660645,0.5410383939743042,0.932659924030304,-9.786026000976562
1745728280.0410016,-0.07902511209249496,-0.023780103772878647,0.44270116090774536,0.6939167380332947,0.7895137071609497,-9.62804126739502
1745728280.0424032,-0.07271628081798553,-0.03042656183242798,0.44429630041122437,0.5164526700973511,1.0680692195892334,-9.737642288208008
1745728280.213041,-0.07155104726552963,-0.02423856034874916,0.4412708878517151,0.6434879899024963,0.7561689615249634,-9.905906677246094
1745728280.2130852,-0.06998705863952637,-0.026511598378419876,0.4409867227077484,0.6316952705383301,1.0465350151062012,-9.642148971557617
1745728280.2131317,-0.07136056572198868,-0.02376224473118782,0.44218796491622925,0.555147111415863,0.7280099391937256,-9.726834297180176
1745728280.213229,-0.07956838607788086,-0.02997424826025963,0.4402700364589691,0.7254396080970764,0.8600009083747864,-9.758479118347168
1745728280.2132926,-0.06280797719955444,-0.02436448074877262,0.442803293466568,0.5587179064750671,0.9027279019355774,-9.803326606750488
1745728280.2133632,-0.08206026256084442,-0.023791486397385597,0.44147539138793945,0.7104843854904175,0.7452093362808228,-9.718232154846191
1745728280.2134101,-0.06273585557937622,-0.03073931112885475,0.4429256319999695,0.5391303300857544,1.0378754138946533,-9.696516036987305
1745728280.2134748,-0.07315172255039215,-0.025796541944146156,0.4412679672241211,0.678912341594696,0.8194917440414429,-9.775861740112305
1745728280.213538,-0.05958636477589607,-0.03024302050471306,0.439846932888031,0.629250705242157,1.130062460899353,-9.775415420532227
1745728280.2136114,-0.062026508152484894,-0.0262895580381155,0.44006475806236267,0.5604165196418762,0.9014973640441895,-9.855813980102539
1745728280.2136827,-0.06873296201229095,-0.028540844097733498,0.4374624192714691,0.7074625492095947,0.778702437877655,-9.811656951904297
1745728280.213739,-0.045301198959350586,-0.031095167621970177,0.4352981448173523,0.5772771835327148,1.0769271850585938,-9.817720413208008
1745728280.21379,-0.06345115602016449,-0.02568456158041954,0.43653297424316406,0.6585634350776672,0.7156187891960144,-9.714986801147461
1745728280.2138443,-0.05174151808023453,-0.028538774698972702,0.43656057119369507,0.5886173248291016,1.038852334022522,-9.525895118713379
1745728280.2138872,-0.05097424238920212,-0.02851497009396553,0.43727564811706543,0.622024655342102,0.7530244588851929,-9.80459976196289
1745728280.222721,-0.05698627233505249,-0.0314270481467247,0.4353885054588318,0.6000991463661194,1.0549747943878174,-9.855109214782715
1745728280.2228796,-0.03841545805335045,-0.024067023769021034,0.43729719519615173,0.5645599961280823,0.8620015382766724,-9.716548919677734
1745728280.251627,-0.058515775948762894,-0.030330384150147438,0.4359453618526459,0.6261230111122131,0.9827619791030884,-9.521316528320312
1745728280.253729,-0.04560137912631035,-0.03075377643108368,0.43450504541397095,0.4873703122138977,0.9503381848335266,-9.820854187011719
1745728280.255944,-0.04628705233335495,-0.03054508939385414,0.43469661474227905,0.7519665956497192,0.8311944007873535,-9.873863220214844
1745728280.2580523,-0.04708798974752426,-0.029271211475133896,0.43218332529067993,0.6008792519569397,1.1463395357131958,-9.71796989440918
1745728280.2597616,-0.040708474814891815,-0.029939260333776474,0.4331893026828766,0.5842030644416809,0.7947698831558228,-9.673110961914062
1745728280.300727,-0.04233241826295853,-0.037019114941358566,0.43324217200279236,0.5690641403198242,1.0377309322357178,-9.697370529174805
1745728280.3008664,-0.0007117955246940255,-0.036127395927906036,0.4161086082458496,0.6605232357978821,0.7715126872062683,-9.706806182861328
1745728280.3029492,-0.01022215187549591,-0.038281507790088654,0.41415977478027344,0.6174518465995789,1.0256762504577637,-9.820978164672852
1745728280.303127,-0.002812134101986885,-0.03636210411787033,0.413560688495636,0.521473228931427,0.765898585319519,-9.819785118103027
1745728280.4618797,-0.012882162816822529,-0.04155777022242546,0.4139927923679352,0.5808508396148682,0.9836685061454773,-9.600150108337402
1745728280.4620032,0.004400759469717741,-0.03542427346110344,0.41504162549972534,0.5091431736946106,0.9971391558647156,-9.617391586303711
1745728280.4620905,-0.007622048258781433,-0.0377003476023674,0.4144013524055481,0.6093634963035583,0.866989016532898,-9.870132446289062
1745728280.462249,0.020084787160158157,-0.037215705960989,0.41374462842941284,0.40876516699790955,1.25236976146698,-9.830339431762695
1745728280.4623182,0.010271923616528511,-0.03425174951553345,0.4125903248786926,0.5895907282829285,0.7833945751190186,-9.609240531921387
1745728280.4623682,0.021782152354717255,-0.04045305773615837,0.41215094923973083,0.44685864448547363,1.2250134944915771,-9.579493522644043
1745728280.4624093,0.018524250015616417,-0.03500109165906906,0.4112282395362854,0.49981528520584106,0.7180572748184204,-9.908731460571289
1745728280.4624486,0.015486309304833412,-0.037796370685100555,0.4096311628818512,0.6223210096359253,0.9412282705307007,-9.750276565551758
1745728280.4624867,0.01406851690262556,-0.034384164959192276,0.40939420461654663,0.5296154022216797,0.8145503997802734,-9.652941703796387
1745728280.4625251,0.001429229392670095,-0.03758423402905464,0.4084317088127136,0.6279229521751404,0.7351722717285156,-9.711230278015137
1745728280.4625638,0.011214827187359333,-0.03751911222934723,0.40999120473861694,0.4066700339317322,0.9468822479248047,-9.822166442871094
1745728280.4626052,-0.003440516535192728,-0.034896042197942734,0.41107624769210815,0.6204665303230286,0.7395695447921753,-9.726275444030762
1745728280.4626539,0.0033431302290409803,-0.03656277805566788,0.40982165932655334,0.4467277526855469,1.0424630641937256,-9.58973503112793
1745728280.470143,0.01223594881594181,-0.03287273645401001,0.41086849570274353,0.5090705156326294,0.8703835606575012,-9.697078704833984
1745728280.4709027,0.0032361275516450405,-0.04168490320444107,0.4110792279243469,0.547629177570343,1.064188838005066,-9.849008560180664
1745728280.4810898,0.0304159764200449,-0.029874999076128006,0.4083485007286072,0.4661187529563904,0.950404167175293,-9.872466087341309
1745728280.4813612,0.0072083123959600925,-0.03292308747768402,0.40768855810165405,0.5697222948074341,0.9674783945083618,-9.575203895568848
1745728280.512708,0.02561405673623085,-0.03702383115887642,0.4058954119682312,0.43980973958969116,0.9129956960678101,-9.622867584228516
1745728280.5180674,0.011375193484127522,-0.03671218827366829,0.40520644187927246,0.6975050568580627,0.799774169921875,-9.876248359680176
1745728280.5202577,0.01722605898976326,-0.032080166041851044,0.40743350982666016,0.42062872648239136,1.0032341480255127,-9.918610572814941
1745728280.5228333,0.015554671175777912,-0.0278465636074543,0.4046854078769684,0.48188361525535583,0.6248737573623657,-9.572850227355957
1745728280.5250459,0.012977766804397106,-0.03928403928875923,0.4055356979370117,0.5612866878509521,1.0522011518478394,-9.435953140258789
1745728280.554543,0.011113548651337624,-0.03173591196537018,0.4080818295478821,0.5395243167877197,0.816902756690979,-9.999640464782715
1745728280.557037,0.017238330096006393,-0.03011435829102993,0.4047337472438812,0.5317398309707642,0.9729651212692261,-9.971402168273926
1745728280.5572057,0.02459625154733658,-0.031395215541124344,0.40582799911499023,0.3647148907184601,1.0180065631866455,-9.583089828491211
1745728280.5579877,0.017381707206368446,-0.032269202172756195,0.40481796860694885,0.5637437105178833,0.7990854978561401,-9.475509643554688
1745728280.7086878,0.03169006109237671,-0.03263869136571884,0.40589699149131775,0.4454798698425293,1.0606439113616943,-9.807889938354492
1745728280.7088265,0.02248993329703808,-0.02621876634657383,0.40539878606796265,0.5685577988624573,0.7017992734909058,-10.029478073120117
1745728280.7089474,0.026912519708275795,-0.03430168703198433,0.40365514159202576,0.48227715492248535,1.0736833810806274,-9.627747535705566
1745728280.7090588,0.03033144399523735,-0.02934248186647892,0.40288910269737244,0.49171343445777893,0.7100611329078674,-9.555505752563477
1745728280.7091393,0.01768011413514614,-0.031927723437547684,0.4053044319152832,0.594774067401886,0.9420787692070007,-9.735323905944824
1745728280.7092452,0.033491142094135284,-0.02630840241909027,0.40399399399757385,0.452871710062027,0.8119745254516602,-10.032856941223145
1745728280.7093198,0.0168452225625515,-0.03144612908363342,0.40417033433914185,0.5674828886985779,0.8159765005111694,-9.696870803833008
1745728280.7093918,0.009758993051946163,-0.027863526716828346,0.40284910798072815,0.5687584280967712,0.9197031259536743,-9.71415901184082
1745728280.7094395,0.015843024477362633,-0.020831087604165077,0.40179094672203064,0.45914244651794434,0.7495461702346802,-9.746637344360352
1745728280.7094853,0.005006355699151754,-0.020309023559093475,0.40290698409080505,0.5397812724113464,0.7836390733718872,-9.728848457336426
1745728280.7095377,0.025808637961745262,-0.023993194103240967,0.404752641916275,0.38723090291023254,0.8651224374771118,-9.804522514343262
1745728280.7095847,0.00949217937886715,-0.023290127515792847,0.4056313633918762,0.5733952522277832,0.7429459691047668,-9.725367546081543
1745728280.7096303,0.029571905732154846,-0.023689424619078636,0.40457791090011597,0.4127230644226074,0.9406254887580872,-9.715108871459961
1745728280.726648,0.015590911731123924,-0.020893067121505737,0.40403881669044495,0.45144662261009216,0.6574142575263977,-9.845878601074219
1745728280.7284234,0.015495260246098042,-0.024589652195572853,0.40391212701797485,0.43158021569252014,0.8277624845504761,-9.654986381530762
1745728280.729646,0.025807524099946022,-0.02116110920906067,0.40422433614730835,0.5341033935546875,0.6766830682754517,-9.59860610961914
1745728280.7307541,-0.004020816180855036,-0.02476951666176319,0.40372687578201294,0.5835816264152527,0.7577182054519653,-9.858552932739258
1745728280.76927,0.01862783543765545,-0.023630376905202866,0.40318387746810913,0.39393144845962524,0.7492443323135376,-9.93930435180664
1745728280.7705762,-0.0033279203344136477,-0.020741015672683716,0.4054294526576996,0.5265894532203674,0.6366814374923706,-9.60139274597168
1745728280.7716305,0.007715283427387476,-0.020318636670708656,0.40552157163619995,0.41545289754867554,0.8300163149833679,-9.445389747619629
1745728280.7745252,-0.0010927487164735794,-0.020467812195420265,0.40734046697616577,0.5599850416183472,0.5847043395042419,-9.873872756958008
1745728280.776406,0.010459675453603268,-0.02362675406038761,0.4060904085636139,0.4067065715789795,1.1079158782958984,-9.951873779296875
1745728280.814929,0.015157478861510754,-0.01599867269396782,0.40623098611831665,0.4459405839443207,0.6210755705833435,-9.742606163024902
1745728280.8176963,0.008491373620927334,-0.02173824980854988,0.4069623053073883,0.4490429759025574,0.9585355520248413,-9.472875595092773
1745728280.9552052,0.014503714628517628,-0.020796149969100952,0.4046028256416321,0.4094057083129883,0.6956474184989929,-9.822549819946289
1745728280.955273,0.006894990801811218,-0.023321323096752167,0.40505751967430115,0.6195951700210571,0.6495147943496704,-9.976030349731445
1745728280.9553463,0.013773975893855095,-0.018327942118048668,0.4058302044868469,0.44436997175216675,0.8656628727912903,-9.751688003540039
1745728280.955431,-0.0042025544680655,-0.018805980682373047,0.4085550904273987,0.5280332565307617,0.554000735282898,-9.615751266479492
1745728280.9555082,0.008079923689365387,-0.027583088725805283,0.40692010521888733,0.40428608655929565,0.8752824664115906,-9.71218204498291
1745728280.9555955,0.0027009807527065277,-0.01916210725903511,0.4073512554168701,0.5616871118545532,0.6493974924087524,-9.908945083618164
1745728280.9556873,-0.005867085885256529,-0.027921825647354126,0.40712055563926697,0.5516961812973022,0.7142754197120667,-9.706766128540039
1745728280.9557624,0.024072611704468727,-0.01952325366437435,0.40599459409713745,0.34808841347694397,0.8770840764045715,-9.978636741638184
1745728280.9558198,-1.7005019117277698e-06,-0.016169223934412003,0.4079320430755615,0.5137959718704224,0.6035962104797363,-9.687060356140137
1745728280.9558609,0.012292633764445782,-0.02269509807229042,0.40914979577064514,0.3948165476322174,0.844788670539856,-9.453794479370117
1745728280.955928,0.00026698241708800197,-0.021209996193647385,0.4066905081272125,0.59039306640625,0.5343223214149475,-9.838640213012695
1745728280.9559772,-0.0004110671579837799,-0.019406499341130257,0.41137179732322693,0.5067178010940552,0.817430853843689,-9.988926887512207
1745728280.9560292,-0.000697634182870388,-0.012040541507303715,0.40886226296424866,0.3735291063785553,0.6057025194168091,-9.7185697555542
1745728280.9560695,-0.012610611505806446,-0.023762296885252,0.4110451340675354,0.5275603532791138,0.7461627721786499,-9.45494556427002
1745728280.9561102,-0.0029663846362382174,-0.017483528703451157,0.40982145071029663,0.4411119818687439,0.8289257884025574,-9.77385139465332
1745728280.9853415,-0.011650940403342247,-0.017762726172804832,0.408088356256485,0.539445698261261,0.7078108191490173,-10.021764755249023
1745728280.9870276,-0.0035237683914601803,-0.018518824130296707,0.4081558585166931,0.36984601616859436,1.0035109519958496,-9.787858009338379
1745728280.9882982,-0.0036343117244541645,-0.017339717596769333,0.4063299298286438,0.48936277627944946,0.5850306749343872,-9.541643142700195
1745728280.9902256,-0.0046025607734918594,-0.02038327232003212,0.408571720123291,0.426992267370224,0.9934266209602356,-9.579614639282227
1745728281.0284212,-0.028414970263838768,-0.02947886660695076,0.40530356764793396,0.54661625623703,0.7556753754615784,-9.759275436401367
1745728281.0299616,-0.012250596657395363,-0.021284380927681923,0.4044269919395447,0.40528973937034607,0.9248520135879517,-9.982802391052246
1745728281.0326076,-0.01874968782067299,-0.020318636670708656,0.4050559103488922,0.5564079880714417,0.6716567277908325,-9.763594627380371
1745728281.0333648,-0.01672152616083622,-0.026530157774686813,0.40313711762428284,0.3260914087295532,0.9890395402908325,-9.581040382385254
1745728281.0345135,-0.019080888479948044,-0.024412307888269424,0.40341633558273315,0.47229260206222534,0.5184904932975769,-9.777486801147461
1745728281.2007365,-0.017103642225265503,-0.02731039561331272,0.40316540002822876,0.4886051118373871,0.9190610647201538,-9.737971305847168
1745728281.2009132,-0.02409115806221962,-0.017793329432606697,0.4041871428489685,0.4188292622566223,0.5983310341835022,-9.85787296295166
1745728281.201021,-0.034724898636341095,-0.028887232765555382,0.40173405408859253,0.5178808569908142,0.7623986005783081,-9.669013977050781
1745728281.2011077,-0.020202521234750748,-0.026679763570427895,0.4040061831474304,0.40484514832496643,0.7773889303207397,-9.6926908493042
1745728281.2011867,-0.04185450077056885,-0.022203674539923668,0.4046136438846588,0.5881898999214172,0.6530797481536865,-9.779364585876465
1745728281.2012525,-0.021754149347543716,-0.02599835768342018,0.4034493565559387,0.3577684164047241,0.8886514902114868,-9.875082015991211
1745728281.2013233,-0.027944620698690414,-0.026026850566267967,0.4059915542602539,0.48954716324806213,0.7344179153442383,-9.64677619934082
1745728281.2013648,-0.02503495290875435,-0.029753249138593674,0.4033273756504059,0.4534375071525574,0.9544100761413574,-9.62993049621582
1745728281.2014089,-0.02065175399184227,-0.0235856082290411,0.4041203558444977,0.38787969946861267,0.7758871912956238,-9.894102096557617
1745728281.2014935,-0.027673402801156044,-0.02854287065565586,0.40351802110671997,0.47516435384750366,0.8380740284919739,-9.8065185546875
1745728281.2015803,-0.008948440663516521,-0.023271357640624046,0.4015882611274719,0.4280545711517334,0.830095112323761,-9.605966567993164
1745728281.2016556,-0.0345599390566349,-0.027235031127929688,0.4011538624763489,0.6145868301391602,0.7406193017959595,-9.71343994140625
1745728281.2017024,-0.015556177124381065,-0.030584078282117844,0.4007469713687897,0.35730740427970886,0.8940669894218445,-9.903515815734863
1745728281.201741,-0.02831936813890934,-0.027096305042505264,0.4001554548740387,0.4698390066623688,0.5744407773017883,-9.82718563079834
1745728281.2019184,-0.02289271354675293,-0.029976820573210716,0.40114307403564453,0.4498438239097595,0.9626609683036804,-9.514272689819336
1745728281.2033653,-0.025923583656549454,-0.02420995756983757,0.4030763506889343,0.4582061767578125,0.5834015607833862,-9.732185363769531
1745728281.204443,-0.023890595883131027,-0.03369388356804848,0.4028579592704773,0.4659428000450134,1.0159471035003662,-9.835023880004883
1745728281.241303,-0.013224547728896141,-0.029954582452774048,0.40262705087661743,0.45390185713768005,0.7085472941398621,-9.904309272766113
1745728281.2423708,-0.02679688297212124,-0.03421724960207939,0.4015060365200043,0.5558001399040222,0.5645672082901001,-9.685853958129883
1745728281.2451704,-0.023578226566314697,-0.03357861563563347,0.4019271433353424,0.47979673743247986,0.9311641454696655,-9.871780395507812
1745728281.2473996,-0.029264722019433975,-0.025526782497763634,0.4011678695678711,0.5170243978500366,0.5201433897018433,-9.916236877441406
1745728281.2859564,-0.030958155170083046,-0.03375577554106712,0.401108980178833,0.3960883915424347,0.9341398477554321,-9.559971809387207
1745728281.2864935,-0.02553408220410347,-0.03283900022506714,0.40258798003196716,0.4714043140411377,0.6926642656326294,-9.624160766601562
1745728281.2881567,-0.04125821590423584,-0.03274097293615341,0.403104692697525,0.567243218421936,0.7932412624359131,-9.890660285949707
1745728281.289836,-0.013312742114067078,-0.02867991290986538,0.4032595753669739,0.373217910528183,0.9181196093559265,-9.845454216003418
1745728281.2914093,-0.03559408336877823,-0.033224914222955704,0.4042262136936188,0.5105417370796204,0.7559753656387329,-9.668636322021484
1745728281.447731,-0.009829334914684296,-0.03365636616945267,0.4011269211769104,0.32068395614624023,1.0039374828338623,-9.63947868347168
1745728281.4478729,-0.023482218384742737,-0.030026700347661972,0.40223971009254456,0.49589410424232483,0.6865646243095398,-9.785334587097168
1745728281.4479585,-0.021700384095311165,-0.03609555587172508,0.4010397791862488,0.4064445495605469,0.909692108631134,-9.844114303588867
1745728281.4480312,-0.015716897323727608,-0.03126216679811478,0.39951950311660767,0.5007468461990356,0.6287198662757874,-9.756647109985352
1745728281.4481125,-0.031057972460985184,-0.036205749958753586,0.4002676010131836,0.4960532784461975,0.7791911363601685,-9.623861312866211
1745728281.448214,-0.021411513909697533,-0.02438514120876789,0.397411048412323,0.3131714463233948,0.9714919924736023,-9.73278522491455
1745728281.4482703,-0.048423171043395996,-0.024327803403139114,0.3950986862182617,0.448864609003067,0.750867486000061,-9.69809627532959
1745728281.4483278,-0.03218243271112442,-0.030144328251481056,0.39684543013572693,0.3314756751060486,0.925207793712616,-9.717622756958008
1745728281.448374,-0.0360158309340477,-0.021643396466970444,0.3965732455253601,0.5037310719490051,0.7089574337005615,-9.73348617553711
1745728281.4484122,-0.04948756843805313,-0.028752977028489113,0.39474502205848694,0.41772300004959106,0.9310062527656555,-9.829939842224121
1745728281.4484508,-0.030997535213828087,-0.023609159514307976,0.39516517519950867,0.3940531313419342,0.7493556141853333,-9.81031608581543
1745728281.4484901,-0.04944906756281853,-0.027172109112143517,0.39703625440597534,0.4774804711341858,0.8401699066162109,-9.626354217529297
1745728281.4485283,-0.03692638874053955,-0.019050030037760735,0.3969665765762329,0.3049473166465759,0.8447366952896118,-9.692008972167969
1745728281.4578667,-0.04825987666845322,-0.026271503418684006,0.39747411012649536,0.4912109375,0.661494255065918,-9.868929862976074
1745728281.4597664,-0.03586952015757561,-0.024662677198648453,0.39645475149154663,0.3045988082885742,1.0807654857635498,-9.779315948486328
1745728281.4611626,-0.04130173102021217,-0.020809944719076157,0.3960057199001312,0.45593976974487305,0.6433750987052917,-9.739843368530273
1745728281.4621642,-0.04382926598191261,-0.02478860318660736,0.39396512508392334,0.3463013768196106,1.1143156290054321,-9.641963958740234
1745728281.4643748,-0.03849899396300316,-0.022618090733885765,0.3938670754432678,0.36821356415748596,0.6582962274551392,-9.860048294067383
1745728281.5025206,-0.04624571651220322,-0.026168713346123695,0.3951687216758728,0.5013638734817505,0.9485481977462769,-9.761019706726074
1745728281.504836,-0.039875373244285583,-0.020328441634774208,0.39236536622047424,0.37233948707580566,0.8093280792236328,-9.785099983215332
1745728281.506579,-0.048053376376628876,-0.026660900563001633,0.3948468565940857,0.4795980453491211,0.8010314702987671,-9.688405990600586
1745728281.507876,-0.03535696491599083,-0.025781074538826942,0.3931517004966736,0.3171928822994232,0.9902806282043457,-9.727518081665039
1745728281.5461557,-0.04620369151234627,-0.018068615347146988,0.395982027053833,0.5345976948738098,0.7417134046554565,-9.7744140625
1745728281.5463495,-0.03881342336535454,-0.023917678743600845,0.39642947912216187,0.36992236971855164,1.0714178085327148,-9.740693092346191
1745728281.548384,-0.030889376997947693,-0.023208316415548325,0.394534707069397,0.40345603227615356,0.8978124856948853,-9.767430305480957
1745728281.550095,-0.039081938564777374,-0.030274366959929466,0.3935070037841797,0.44322866201400757,0.9740617871284485,-9.82660961151123
1745728281.6928139,-0.016176380217075348,-0.019920768216252327,0.39203548431396484,0.3090568780899048,0.9680431485176086,-9.858002662658691
1745728281.6930153,-0.04359216243028641,-0.024444879963994026,0.3917393386363983,0.4490436613559723,0.850058376789093,-9.615446090698242
1745728281.6931036,-0.03387489914894104,-0.02173771895468235,0.39160749316215515,0.36828675866127014,0.707618236541748,-9.709056854248047
1745728281.693177,-0.03565170615911484,-0.03008916601538658,0.3926064074039459,0.4396362900733948,1.0078788995742798,-9.501224517822266
1745728281.6933012,-0.03386038914322853,-0.021086281165480614,0.3932880163192749,0.3827245533466339,0.813186526298523,-9.866100311279297
1745728281.6933913,-0.03486756980419159,-0.026511704549193382,0.3932427763938904,0.4738847613334656,0.9576452374458313,-9.880020141601562
1745728281.6934388,-0.026085099205374718,-0.025678973644971848,0.3909878730773926,0.3000287413597107,0.9475935101509094,-9.753335952758789
1745728281.6934857,-0.036487042903900146,-0.024418894201517105,0.39170804619789124,0.454336017370224,0.8038784861564636,-9.620416641235352
1745728281.693531,-0.025968050584197044,-0.022677045315504074,0.38935714960098267,0.3391193151473999,1.073083519935608,-9.625493049621582
1745728281.693569,-0.03675689920783043,-0.02526032365858555,0.3906545042991638,0.4936303198337555,0.6648485660552979,-9.934422492980957
1745728281.6936073,-0.031405046582221985,-0.03149654343724251,0.38972315192222595,0.4634771943092346,1.042707085609436,-9.864740371704102
1745728281.6936889,-0.025353824719786644,-0.02223494090139866,0.38915687799453735,0.40262895822525024,0.7670282125473022,-9.706808090209961
1745728281.6937387,-0.040538690984249115,-0.024910107254981995,0.3917215168476105,0.4037042558193207,0.9762855768203735,-9.54670524597168
1745728281.7174532,-0.02023342251777649,-0.028539340943098068,0.39230793714523315,0.3412739038467407,0.8025388717651367,-9.848880767822266
1745728281.721733,-0.009382421150803566,-0.028582492843270302,0.3724249005317688,0.2866404950618744,1.1591542959213257,-9.79845905303955
1745728281.7250812,-0.010749789886176586,-0.031074723228812218,0.3693447709083557,0.3598310947418213,0.6166790127754211,-9.67943000793457
1745728281.7291768,-0.013418801128864288,-0.04013805836439133,0.3697940707206726,0.4408222734928131,1.05597722530365,-9.562997817993164
1745728281.7632272,-0.012013419531285763,-0.032010890543460846,0.3684846758842468,0.33712753653526306,0.7165065407752991,-9.966866493225098
1745728281.7633224,-0.0192470271140337,-0.033602651208639145,0.3695186972618103,0.36043164134025574,0.8843515515327454,-9.82934856414795
1745728281.763373,-0.005438703577965498,-0.0357111357152462,0.3707039952278137,0.28096333146095276,0.9252257347106934,-9.490942001342773
1745728281.765104,-0.023931898176670074,-0.034500252455472946,0.3702436089515686,0.4625941812992096,0.7642561793327332,-9.6466064453125
1745728281.8024192,-0.0052246348932385445,-0.03299269825220108,0.36932292580604553,0.2996593117713928,1.1731603145599365,-9.904911041259766
1745728281.9389002,-0.015857484191656113,-0.03226160258054733,0.36792683601379395,0.33968618512153625,0.7050288319587708,-9.927757263183594
1745728281.9389963,0.00041946786222979426,-0.03567228466272354,0.3663316071033478,0.3078252673149109,1.1754329204559326,-9.4879732131958
1745728281.9390883,-0.015049179084599018,-0.029826302081346512,0.364709734916687,0.3152318000793457,0.7983256578445435,-9.625244140625
1745728281.9391356,-0.01890963315963745,-0.03907088190317154,0.3620670437812805,0.405679851770401,0.8430708050727844,-9.873146057128906
1745728281.939176,0.0006635375902988017,-0.033927589654922485,0.36143407225608826,0.3935137689113617,0.9558125734329224,-9.847529411315918
1745728281.9392066,-0.0302311722189188,-0.03068557381629944,0.3616882562637329,0.39969775080680847,0.8035842180252075,-9.65806770324707
1745728281.9407883,-0.003025383222848177,-0.037647563964128494,0.3614996075630188,0.24481478333473206,0.9911244511604309,-9.604097366333008
1745728281.9408453,-0.01184054370969534,-0.03141617029905319,0.36269840598106384,0.49841922521591187,0.8003399968147278,-9.734884262084961
1745728281.940879,-0.007694093976169825,-0.02977670356631279,0.362827867269516,0.31182172894477844,1.0482888221740723,-9.887826919555664
1745728281.9409108,0.00012568794772960246,-0.03410360962152481,0.3609691560268402,0.3448737561702728,0.8631933331489563,-9.745078086853027
1745728281.941767,-0.006190280430018902,-0.04117168113589287,0.35897761583328247,0.33916178345680237,1.038924217224121,-9.624502182006836
1745728281.9418652,0.008895428851246834,-0.028184449300169945,0.35813307762145996,0.24817705154418945,0.9046069979667664,-9.77198600769043
1745728281.9419234,-0.0236688032746315,-0.030133340507745743,0.35821589827537537,0.42382368445396423,0.6954764127731323,-9.808635711669922
1745728281.9419591,0.00794480461627245,-0.034808747470378876,0.358844131231308,0.38946765661239624,0.8468171954154968,-9.605067253112793
1745728281.9419897,-0.029167121276259422,-0.028631871566176414,0.36009255051612854,0.6007641553878784,0.6816228628158569,-9.712845802307129
1745728281.942382,-0.0030106487683951855,-0.026880431920289993,0.36337849497795105,0.30274587869644165,0.9479153752326965,-9.870182991027832
1745728281.9430919,-0.0013319900026544929,-0.0345798134803772,0.3612631559371948,0.3884595036506653,1.2653253078460693,-9.703315734863281
1745728281.9738562,0.025050628930330276,-0.028043126687407494,0.3622876703739166,0.256435751914978,1.089885950088501,-9.677345275878906
1745728281.9769778,0.009025938808918,-0.026780927553772926,0.36219409108161926,0.3833393454551697,0.897638201713562,-9.749045372009277
1745728281.9775522,0.0294357780367136,-0.02835191786289215,0.36185920238494873,0.2921072542667389,1.0587350130081177,-9.752914428710938
1745728281.9801795,0.024726875126361847,-0.028122812509536743,0.3634420335292816,0.5343873500823975,0.6624183654785156,-9.730445861816406
1745728282.0167975,0.013420159928500652,-0.027031728997826576,0.36296674609184265,0.45556482672691345,0.9130988121032715,-9.80832576751709
1745728282.0203958,0.01769559271633625,-0.023050187155604362,0.3639530539512634,0.3586750626564026,0.592809796333313,-9.88536548614502
1745728282.0230963,-0.0010490238200873137,-0.02615625225007534,0.36567187309265137,0.36031535267829895,0.7716294527053833,-9.560453414916992
1745728282.0256076,0.005676525179296732,-0.02591365948319435,0.36642226576805115,0.35785752534866333,0.7771893739700317,-9.564984321594238
1745728282.028012,-0.01785225048661232,-0.023801540955901146,0.3657512068748474,0.4505540728569031,0.8152776956558228,-9.881467819213867
1745728282.1840522,0.00607440248131752,-0.022523101419210434,0.36518579721450806,0.2324424535036087,1.1100050210952759,-9.8646240234375
1745728282.1841254,-0.007917413488030434,-0.021926987916231155,0.3621040880680084,0.4241258502006531,0.7904760241508484,-9.643957138061523
1745728282.1842399,-0.005750036332756281,-0.017097538337111473,0.3663855493068695,0.45647063851356506,1.055195689201355,-9.935946464538574
1745728282.1843097,0.011922577396035194,-0.009658174589276314,0.3670259714126587,0.3631764054298401,0.8049517869949341,-9.840917587280273
1745728282.1844332,-0.0002281923807458952,-0.016825761646032333,0.36447030305862427,0.3818327784538269,0.9662300944328308,-9.516597747802734
1745728282.1844985,0.020642712712287903,-0.01778937503695488,0.3659624457359314,0.3192874789237976,0.8778403401374817,-9.670206069946289
1745728282.1845753,0.0006614390877075493,-0.012506554834544659,0.3669499456882477,0.505455493927002,0.7490083575248718,-9.926942825317383
1745728282.1846142,0.02664360962808132,-0.012109467759728432,0.3682389557361603,0.30363786220550537,1.0388964414596558,-9.769787788391113
1745728282.1846585,0.005670373328030109,-0.015772098675370216,0.36667677760124207,0.4750331938266754,0.6663674116134644,-9.655698776245117
1745728282.1847064,0.020067188888788223,-0.016954228281974792,0.36685118079185486,0.36940866708755493,0.9829753637313843,-9.748690605163574
1745728282.1847486,0.015971194952726364,-0.01070103794336319,0.3649106025695801,0.4232444167137146,0.6815133094787598,-9.804068565368652
1745728282.1847856,-0.004656577482819557,-0.017441172152757645,0.36739394068717957,0.42418748140335083,0.7259728312492371,-9.744638442993164
1745728282.189826,0.00991263147443533,-0.015612560324370861,0.36487075686454773,0.3800799548625946,0.7121542692184448,-9.733046531677246
1745728282.193524,-0.01555636990815401,-0.015782427042722702,0.36642447113990784,0.5091071128845215,0.699734091758728,-9.713178634643555
1745728282.1948533,-0.0006958666490390897,-0.01235467940568924,0.3688950538635254,0.2512381970882416,0.895717442035675,-9.759078025817871
1745728282.197028,-0.011965373530983925,-0.01670091040432453,0.3671092391014099,0.5093553066253662,0.6262494325637817,-9.795539855957031
1745728282.1988485,-0.002580210566520691,-0.018901340663433075,0.369089812040329,0.3964586853981018,1.1148449182510376,-9.663102149963379
1745728282.2335267,-0.0012566603254526854,-0.012929665856063366,0.36589962244033813,0.4222974181175232,0.6972092390060425,-9.796290397644043
1745728282.2370384,-0.004522586707025766,-0.022369593381881714,0.36788812279701233,0.38722577691078186,1.0375890731811523,-9.775849342346191
1745728282.2408159,0.015050934627652168,-0.013362154364585876,0.3672967553138733,0.3366471529006958,0.7577344179153442,-9.749770164489746
1745728282.2421458,0.001659961068071425,-0.017252173274755478,0.3684196174144745,0.49068576097488403,0.8871616125106812,-9.561750411987305
1745728282.2767725,0.011663967743515968,-0.015913192182779312,0.3679630160331726,0.37524741888046265,0.9267250299453735,-9.8092041015625
1745728282.2798865,0.0029437034390866756,-0.022289231419563293,0.36924269795417786,0.5546120405197144,0.7558103799819946,-9.882814407348633
1745728282.2836719,0.01447624247521162,-0.01860869862139225,0.36932915449142456,0.3150559067726135,0.9682967066764832,-9.756145477294922
1745728282.2869718,0.012165674939751625,-0.016962412744760513,0.36953139305114746,0.2609041929244995,0.8272721171379089,-9.739644050598145
1745728282.4878955,-0.007466550916433334,-0.019235674291849136,0.368492066860199,0.4373711943626404,0.6917190551757812,-9.611007690429688
1745728282.4879682,0.007817204110324383,-0.023382971063256264,0.3697228729724884,0.36733049154281616,0.9075483083724976,-9.707090377807617
1745728282.488057,-0.007355614099651575,-0.018206428736448288,0.3684386909008026,0.5200625658035278,0.6127971410751343,-9.950035095214844
1745728282.4881456,-0.0018239166820421815,-0.021496953442692757,0.3699781894683838,0.283424973487854,0.9819188117980957,-9.804536819458008
1745728282.4882312,-0.0016656734514981508,-0.019995160400867462,0.3680076599121094,0.28284764289855957,0.6671003103256226,-9.563308715820312
1745728282.4883542,-0.003246992127969861,-0.027104446664452553,0.36887994408607483,0.4358714520931244,0.9727775454521179,-9.592500686645508
1745728282.4884217,0.00634984765201807,-0.018437612801790237,0.36670446395874023,0.29119640588760376,0.8067880868911743,-10.015544891357422
1745728282.4884737,-0.0029484680853784084,-0.021525807678699493,0.36737364530563354,0.41189759969711304,0.812657356262207,-9.803388595581055
1745728282.48859,0.008822516538202763,-0.024954499676823616,0.36698096990585327,0.25741633772850037,0.8616523742675781,-9.516633987426758
1745728282.4886663,0.0030667423270642757,-0.023690545931458473,0.36714452505111694,0.46937423944473267,0.6362465023994446,-9.731593132019043
1745728282.4887314,-0.005329913925379515,-0.025381525978446007,0.3667544424533844,0.3239424228668213,0.9340863227844238,-9.950048446655273
1745728282.488781,-0.004172473214566708,-0.024655437096953392,0.3644573390483856,0.4051890969276428,0.4713002145290375,-9.841286659240723
1745728282.488827,-0.01133731845766306,-0.028987187892198563,0.3645015060901642,0.4358406960964203,0.9708844423294067,-9.48457145690918
1745728282.4888735,-0.012131532654166222,-0.03342059999704361,0.34830859303474426,0.09677045792341232,0.7284051179885864,-9.9266357421875
1745728282.4889193,-0.013754810206592083,-0.041261035948991776,0.34392914175987244,0.23997683823108673,1.0380985736846924,-9.49921989440918
1745728282.4889648,-0.0006487482460215688,-0.03827781602740288,0.34064334630966187,0.059112172573804855,0.8266833424568176,-9.695734024047852
1745728282.4890099,-0.009139111265540123,-0.037023983895778656,0.3387066125869751,0.1316039264202118,0.7981308102607727,-9.92044734954834
1745728282.4890544,-0.003287625964730978,-0.03771467134356499,0.3377026617527008,-0.002930967602878809,0.6616061329841614,-9.781084060668945
1745728282.4958436,0.014357849955558777,-0.03696189448237419,0.3373347818851471,0.3752904534339905,0.6520131230354309,-9.463414192199707
1745728282.4959028,-0.03278915956616402,-0.04010620713233948,0.3388170599937439,0.1259588748216629,0.7218311429023743,-9.887529373168945
1745728282.4967713,0.0009538769954815507,-0.04206502437591553,0.33771294355392456,0.22792644798755646,0.23388448357582092,-10.069879531860352
1745728282.4984725,-0.03783179074525833,-0.03471183776855469,0.333490252494812,0.36998170614242554,0.9545294642448425,-9.448087692260742
1745728282.5351055,-0.048450954258441925,-0.03926610201597214,0.33254528045654297,0.13381657004356384,0.4272559583187103,-9.748716354370117
1745728282.5367842,-0.04959281161427498,-0.04801502078771591,0.32993194460868835,0.415532648563385,0.839178740978241,-9.773327827453613
1745728282.5392766,-0.05325258895754814,-0.035690806806087494,0.3261795938014984,0.12982948124408722,0.9617502093315125,-9.948946952819824
1745728282.5401838,-0.05371929332613945,-0.038059867918491364,0.3233761489391327,0.2927510142326355,0.8961524963378906,-9.661065101623535
1745728282.5779023,-0.03247717022895813,-0.049529753625392914,0.3226737082004547,0.24256937205791473,1.1796241998672485,-9.57337760925293
1745728282.5789995,-0.00657161558046937,-0.040529798716306686,0.32298406958580017,0.29217714071273804,1.0778627395629883,-9.854267120361328
1745728282.5880806,-0.012876728549599648,-0.03863479197025299,0.3229062557220459,0.17567424476146698,1.1016045808792114,-10.005040168762207
1745728282.5881302,0.03433937206864357,-0.040506668388843536,0.32244837284088135,0.1627405434846878,1.0110810995101929,-9.557405471801758
1745728282.6188974,0.027240604162216187,-0.044545531272888184,0.32242029905319214,0.42512449622154236,0.9801563024520874,-9.486688613891602
1745728282.6202285,0.026068855077028275,-0.0406031534075737,0.318860799074173,0.050903141498565674,0.9256132245063782,-10.139625549316406
1745728282.6218386,0.03141847625374794,-0.04025037959218025,0.313288152217865,0.2919710576534271,0.4595274031162262,-9.97226333618164
1745728282.6231048,0.020591463893651962,-0.04198010638356209,0.3129948675632477,0.22463437914848328,1.000962495803833,-9.28749942779541
1745728282.6615858,-0.010717859491705894,-0.03612775728106499,0.30959078669548035,-0.027382394298911095,1.1604734659194946,-9.805572509765625
1745728282.6621327,0.0019529573619365692,-0.0383809357881546,0.3053060472011566,0.26270371675491333,0.6662555932998657,-9.31227970123291
1745728282.6633973,0.01340386550873518,-0.043795786798000336,0.3046559691429138,0.31476300954818726,1.3450219631195068,-9.57722282409668
1745728282.6650677,0.0001309549406869337,-0.036188043653964996,0.3025265336036682,0.1304742395877838,0.6350234746932983,-10.518148422241211
1745728282.6661437,0.031124208122491837,-0.039076317101716995,0.299593985080719,0.304214745759964,0.9142315983772278,-9.769909858703613
1745728282.707525,0.008526868186891079,-0.03492088243365288,0.29833850264549255,0.2376897782087326,0.9177777171134949,-9.093873023986816
1745728282.7115421,-0.00010388791270088404,-0.045434363186359406,0.29965904355049133,0.3835600018501282,0.5115246176719666,-9.872374534606934
1745728282.715456,0.0192634966224432,-0.044221583753824234,0.29772958159446716,0.21691015362739563,1.017225742340088,-10.34808349609375
1745728282.7175906,0.007237475365400314,-0.02840973064303398,0.2971500754356384,0.20753851532936096,0.49604812264442444,-9.879440307617188
1745728282.7528412,0.014701193198561668,-0.038377545773983,0.2972075343132019,0.13291619718074799,1.0314202308654785,-9.071257591247559
1745728282.756527,0.01401760708540678,-0.042043536901474,0.2983928322792053,0.1960088014602661,0.5905858278274536,-9.784049034118652
1745728282.7606523,0.017289798706769943,-0.04107808694243431,0.29551902413368225,0.2124893218278885,0.9557973146438599,-10.391544342041016
1745728282.762789,0.025227729231119156,-0.027354557067155838,0.29392850399017334,0.08836714923381805,0.6474045515060425,-9.859875679016113
1745728282.7916126,0.020340774208307266,-0.03198583051562309,0.2962934970855713,0.23648910224437714,0.6832965612411499,-9.097635269165039
1745728282.7936685,0.029293635860085487,-0.02636614814400673,0.27976685762405396,0.36989590525627136,0.5070368051528931,-9.902700424194336
1745728282.7960653,0.0341443195939064,-0.01191637758165598,0.2781745493412018,0.2159591019153595,0.7521309852600098,-10.44957447052002
1745728282.7972548,0.0156014459207654,-0.0035416954196989536,0.27680954337120056,0.23686012625694275,0.39457792043685913,-9.851821899414062
1745728282.835479,0.021450843662023544,-0.01322956569492817,0.27751392126083374,0.09959926456212997,0.869698166847229,-8.957242965698242
1745728282.8375964,0.012540152296423912,-0.01739043928682804,0.2765713036060333,0.310141921043396,0.48755010962486267,-9.752914428710938
1745728282.8407454,0.018693536520004272,-0.016044368967413902,0.2765119671821594,0.3364567160606384,0.9204815626144409,-10.473701477050781
1745728282.8430443,0.02938631735742092,0.0028845700435340405,0.2746935784816742,0.11479921638965607,0.6105327606201172,-9.929322242736816
1745728282.8455727,0.026127254590392113,-0.013961231335997581,0.27700239419937134,0.22058220207691193,0.8893909454345703,-8.964512825012207
1745728282.8772697,0.029308423399925232,-0.01652766950428486,0.2758317291736603,0.2257489264011383,0.772506594657898,-9.549848556518555
1745728282.8795052,0.04208872467279434,-0.010349363088607788,0.2764667868614197,0.4874724745750427,0.6700814962387085,-10.507753372192383
1745728282.8809044,0.0398053303360939,-0.00034743623109534383,0.27202579379081726,0.07506358623504639,1.0033583641052246,-10.056779861450195
1745728282.8833792,0.050414640456438065,-0.006751553155481815,0.27682265639305115,0.1820366084575653,0.38200175762176514,-9.099421501159668
1745728282.9219506,0.044814031571149826,-0.020632218569517136,0.2754577398300171,0.39385920763015747,1.0809236764907837,-9.25822925567627
1745728282.9239335,0.06041908264160156,-0.026475880295038223,0.2664508819580078,0.25278112292289734,0.7431803941726685,-10.64059829711914
1745728282.9266276,0.05806199461221695,-0.007341601885855198,0.25472062826156616,-0.29396966099739075,1.1653677225112915,-10.494309425354004
1745728282.9284887,0.07290377467870712,-0.020326312631368637,0.24342909455299377,-0.42209339141845703,0.8458108901977539,-8.683282852172852
1745728282.93093,0.07425323128700256,-0.03548327833414078,0.24014830589294434,-0.07952148467302322,0.6058284640312195,-8.92233657836914
1745728282.9650135,0.08219574391841888,-0.013379869051277637,0.23268160223960876,-0.5837091207504272,0.8282305598258972,-10.808196067810059
1745728282.9662814,0.0637931153178215,-0.008914170786738396,0.233242467045784,-0.2907524108886719,-0.26116833090782166,-10.37244987487793
1745728282.967767,0.09390101581811905,-0.012920851819217205,0.23697173595428467,0.030796442180871964,0.45292526483535767,-8.332507133483887
1745728282.9711518,0.027649039402604103,-0.020852982997894287,0.23668722808361053,0.18985839188098907,-0.12340770661830902,-9.315230369567871
1745728283.0081592,0.010228665545582771,-0.039660871028900146,0.23761436343193054,0.2295352965593338,0.034078449010849,-11.194098472595215
1745728283.013592,0.06155744194984436,-0.05631790682673454,0.20001931488513947,0.13706335425376892,1.5135051012039185,-9.328290939331055
1745728283.0192409,0.08281377702951431,-0.03426894173026085,0.19609633088111877,0.064760722219944,1.060443639755249,-10.886528015136719
1745728283.0203216,0.11697796732187271,-0.03139832243323326,0.2008213996887207,0.05573910474777222,0.8248419761657715,-10.222445487976074
1745728283.0227914,0.15283679962158203,-0.039573345333337784,0.19781489670276642,-0.1062769666314125,0.8667354583740234,-8.635644912719727
1745728283.0505283,0.10915400832891464,-0.04532919079065323,0.1897859424352646,0.07353567332029343,0.48427215218544006,-9.37602424621582
1745728283.0524848,0.11486593633890152,-0.04489997774362564,0.18070180714130402,0.20964892208576202,0.574963390827179,-10.711530685424805
1745728283.0551412,0.10762646049261093,-0.03014962375164032,0.17501583695411682,0.1872539520263672,0.2155151069164276,-10.285903930664062
1745728283.057042,0.09815730154514313,-0.03988076001405716,0.17808668315410614,-0.0368385873734951,0.4254712164402008,-8.799833297729492
1745728283.0953333,0.08826418220996857,-0.029778286814689636,0.17784662544727325,-0.17203569412231445,-0.013072431087493896,-9.242310523986816
1745728283.0985982,0.03044155240058899,-0.05984743312001228,0.17735575139522552,0.394199937582016,-0.2565212845802307,-10.363456726074219
1745728283.1014864,0.033458463847637177,-0.03649880737066269,0.18115434050559998,-0.6932690739631653,0.23679383099079132,-10.72956371307373
1745728283.1062138,-0.021191496402025223,-0.017969999462366104,0.17410273849964142,-0.3905961513519287,0.28460362553596497,-8.851766586303711
1745728283.1370106,0.00935770757496357,-0.04783852398395538,0.1660318374633789,0.001385565148666501,0.8126838803291321,-8.497018814086914
1745728283.139343,-0.02091449871659279,-0.034989457577466965,0.1592274010181427,0.6876180171966553,0.901164174079895,-10.724405288696289
1745728283.14221,0.13978374004364014,0.03742440044879913,0.0013770039658993483,0.7189887166023254,-0.6503865122795105,-9.76689338684082
1745728283.14354,0.10954304784536362,0.03887460380792618,0.00243479129858315,0.5239537954330444,0.04344824701547623,-9.590673446655273
1745728283.18004,0.09855823218822479,0.04433600977063179,0.0025122223887592554,0.43755120038986206,-0.24583736062049866,-9.78510856628418
1745728283.1848218,0.11581375449895859,0.051618389785289764,0.00015632207214366645,0.29538995027542114,1.0406906604766846,-9.626398086547852
1745728283.1849103,0.13761839270591736,0.04818321764469147,-0.011899875476956367,0.4669930040836334,0.9948263168334961,-9.86329174041748
1745728283.1866739,0.1909797191619873,0.04411600902676582,-0.026544183492660522,0.36220887303352356,1.4487909078598022,-10.034306526184082
1745728283.1915624,0.2267058789730072,0.05591578036546707,-0.03706426918506622,0.08393225818872452,1.0704443454742432,-9.972146987915039
1745728283.2235217,0.2526884078979492,0.05427520349621773,-0.04057434946298599,0.4861515164375305,0.36655721068382263,-9.440286636352539
1745728283.2277098,0.25950777530670166,0.0545339398086071,-0.043968476355075836,0.3929080367088318,0.3672168254852295,-9.481573104858398
1745728283.231061,0.2482818067073822,0.060324590653181076,-0.042510129511356354,0.7171486616134644,-0.32252058386802673,-10.083270072937012
1745728283.2332025,0.25497937202453613,0.06549879163503647,-0.043066687881946564,0.5429197549819946,0.32025521993637085,-9.877622604370117
1745728283.2658105,0.2241494208574295,0.06826841831207275,-0.05139567330479622,0.6336827278137207,-0.19626809656620026,-9.63885498046875
1745728283.268785,0.20854735374450684,0.055783629417419434,-0.059560857713222504,0.7082309126853943,-0.029701802879571915,-9.7473726272583
1745728283.2744353,0.19881834089756012,0.060491979122161865,-0.06960610300302505,0.2784823775291443,0.09124146401882172,-10.136409759521484
1745728283.2753093,0.17860394716262817,0.07100594788789749,-0.07492993772029877,0.3298755884170532,-0.21650190651416779,-9.702616691589355
1745728283.2765548,0.18845582008361816,0.07542478293180466,-0.07626752555370331,0.06270647794008255,0.16512247920036316,-9.214741706848145
1745728283.3118062,0.16715967655181885,0.06773858517408371,-0.07809440791606903,0.5131866335868835,-0.2682204842567444,-9.565126419067383
1745728283.320493,0.18892374634742737,0.07213552296161652,-0.0769774466753006,0.4633316993713379,0.4384313225746155,-10.103126525878906
1745728283.3206325,0.19316236674785614,0.08239229768514633,-0.0859038457274437,0.4807250499725342,0.011877347715198994,-10.140953063964844
1745728283.321837,0.20546483993530273,0.07063724845647812,-0.08804096281528473,0.6544961929321289,0.35106611251831055,-9.409217834472656
1745728283.354379,0.22109070420265198,0.0690617486834526,-0.08348403126001358,0.49205511808395386,0.07718165218830109,-9.66602897644043
1745728283.3561888,0.12127808481454849,0.01981700398027897,-0.06868862360715866,0.1805977076292038,-0.6494432091712952,-10.439149856567383
1745728283.3609107,0.1898784190416336,0.05491778999567032,-0.05442998930811882,-0.4449646472930908,-0.1129826083779335,-9.291365623474121
1745728283.364,0.10071925818920135,0.02404830791056156,-0.04067293554544449,0.21582739055156708,-0.7338857650756836,-8.786855697631836
1745728283.3964128,0.204604834318161,0.020063813775777817,-0.03864167258143425,0.24449534714221954,0.7660790681838989,-9.871883392333984
1745728283.3985586,0.14762763679027557,0.02408399060368538,-0.04728234186768532,-0.07772818207740784,0.6364825963973999,-10.861019134521484
1745728283.4026186,0.217682883143425,0.01844671182334423,-0.0554981604218483,-0.21592585742473602,0.14210882782936096,-9.531654357910156
1745728283.4037411,0.16449812054634094,0.019481495022773743,-0.0604562871158123,-0.15747660398483276,-0.09660065174102783,-8.504644393920898
1745728283.438486,0.1139136552810669,-0.0011930873151868582,-0.057021550834178925,0.10849039256572723,-1.1097314357757568,-9.947484016418457
1745728283.4413502,0.13414283096790314,0.020555127412080765,-0.05122563987970352,0.03428223356604576,-0.2899349629878998,-10.446742057800293
1745728283.4439206,0.05607319623231888,0.0228333231061697,-0.042363569140434265,0.44509243965148926,-0.7743502855300903,-9.528108596801758
1745728283.4450088,0.10140132904052734,-0.0017625376349315047,-0.03655283898115158,0.4400741159915924,-0.09085846692323685,-8.896750450134277
1745728283.4483993,0.05385814979672432,-0.003195858094841242,-0.034284599125385284,0.3005092144012451,-0.15692508220672607,-10.177764892578125
1745728283.4852366,0.10865394026041031,-0.0011663868790492415,-0.033512383699417114,-0.12478039413690567,0.37590184807777405,-10.685259819030762
1745728283.4855752,0.11745016276836395,0.011182500049471855,-0.03224895894527435,-0.14185568690299988,0.20140092074871063,-9.354386329650879
1745728283.48914,0.1388435661792755,-0.0344662219285965,-0.04620460048317909,0.08010028302669525,0.7300581932067871,-8.765871047973633
1745728283.4914148,-0.1263248473405838,-0.08814941346645355,0.02386554330587387,0.33199137449264526,0.8921806216239929,-6.403687477111816
1745728283.5261145,-0.055559270083904266,-0.047005295753479004,0.03221653029322624,2.0149810314178467,-1.9655565023422241,-10.0021390914917
1745728283.5302978,0.045708902180194855,-0.12431899458169937,0.05378534272313118,0.28175652027130127,1.8000268936157227,-12.956408500671387
1745728283.534151,-0.023383745923638344,-0.007955187931656837,0.06530202925205231,0.3728920519351959,-1.6532844305038452,-10.509808540344238
1745728283.5387864,0.24179287254810333,-0.024057811126112938,0.07372402399778366,-1.4976551532745361,2.557163715362549,-6.228664398193359
1745728283.5674508,-0.0488448292016983,-0.1464196890592575,0.05248304456472397,-0.1873067319393158,-0.6738016605377197,-8.390149116516113
1745728283.5694535,0.30238038301467896,0.037372659891843796,0.0250769704580307,-0.8095607757568359,1.734297513961792,-12.710741996765137
1745728283.5795946,-0.023203562945127487,-0.08536897599697113,-0.013626034371554852,0.7504986524581909,-0.16231469810009003,-10.062986373901367
1745728283.5798554,0.30953750014305115,0.050301212817430496,-0.011316501535475254,0.25842252373695374,-0.41836804151535034,-8.007102966308594
1745728283.6116748,-0.09147141873836517,-0.09860719740390778,-0.013836367055773735,0.643109142780304,-1.5852041244506836,-8.618558883666992
1745728283.6145391,0.07271596789360046,-0.020393967628479004,0.016385549679398537,1.8456103801727295,-3.496734619140625,-12.485323905944824
1745728283.6194293,-0.10183465480804443,-0.026472408324480057,0.03459019213914871,0.7195865511894226,-0.6966482400894165,-11.286412239074707
1745728283.6240573,-0.0910709872841835,-0.04214266315102577,0.05064651370048523,-0.40464624762535095,-1.490270972251892,-8.793017387390137
1745728283.628003,-0.03200901672244072,0.0020095431245863438,0.018123425543308258,0.6619588732719421,2.9069466590881348,-6.897343635559082
1745728283.6562579,-0.11899970471858978,-0.0654030591249466,-0.026026953011751175,1.5329824686050415,-0.1279180496931076,-11.362688064575195
1745728283.6583836,0.2452837973833084,-0.009944269433617592,-0.04976256936788559,0.6130011677742004,3.5300230979919434,-12.630362510681152
1745728283.6608036,-0.018102940171957016,-0.01216379925608635,-0.06841723620891571,-0.007850992493331432,-0.4211982190608978,-10.038761138916016
1745728283.6644216,0.3311145603656769,-0.010764477774500847,-0.03452760726213455,-0.18872185051441193,-1.6345525979995728,-6.750311851501465
1745728283.6952353,0.02780565246939659,0.004521044436842203,-0.021712347865104675,0.34363192319869995,-0.7050000429153442,-8.671377182006836
1745728283.698324,0.13533326983451843,-0.010974058881402016,-0.013069567270576954,1.428491234779358,-1.565896987915039,-13.225872993469238
1745728283.7046072,0.1601034551858902,0.03648004308342934,-0.04223649576306343,0.9952753186225891,1.5398441553115845,-10.353384017944336
1745728283.7086105,0.1332959681749344,0.06035981699824333,-0.09651054441928864,0.2531457543373108,0.06211250275373459,-12.260298728942871
1745728283.737337,0.21906597912311554,0.05241081118583679,-0.0946582704782486,-0.2605867385864258,0.19539812207221985,-6.579445838928223
1745728283.7394822,0.08103950321674347,0.030160551890730858,-0.07623598724603653,-0.5835200548171997,-1.5406036376953125,-7.738827705383301
1745728283.7405508,0.12280072271823883,0.00425016600638628,-0.060885846614837646,0.3649362623691559,-0.9684127569198608,-12.006802558898926
1745728283.742824,0.05773765966296196,0.08805853873491287,-0.06030582636594772,-0.20373471081256866,-0.46414318680763245,-12.082746505737305
1745728283.7441285,0.04371371492743492,0.06815572082996368,-0.07700328528881073,0.17514467239379883,-0.027156924828886986,-7.336042881011963
1745728283.785516,-0.03876630589365959,-0.005971650127321482,-0.09057655930519104,1.161004900932312,-0.33397993445396423,-7.4481520652771
1745728283.7857046,-0.02838299795985222,-0.0045074098743498325,-0.1023353785276413,0.7138504981994629,0.1020253524184227,-12.939241409301758
1745728283.7857928,-0.026645969599485397,0.04742985963821411,-0.09542770683765411,0.09485741704702377,-0.799865186214447,-12.777652740478516
1745728283.7859232,0.01932784542441368,0.045070454478263855,-0.06845872104167938,-0.41812825202941895,-0.4647313058376312,-6.953553199768066
1745728283.8260167,0.017473723739385605,0.01670832931995392,-0.0413704439997673,-0.22198745608329773,-0.11660170555114746,-6.171010494232178
1745728283.8286529,0.06092789024114609,0.018168549984693527,-0.032768722623586655,0.07581489533185959,0.44285377860069275,-11.4385347366333
1745728283.8305,0.17153926193714142,0.06069023162126541,-0.03572816774249077,0.3618036210536957,0.997610867023468,-12.80035400390625
1745728283.8339715,0.16214828193187714,0.06309357285499573,-0.04539951682090759,0.3398858606815338,0.17495352029800415,-8.693704605102539
1745728283.8716774,-0.09537901729345322,0.005531779956072569,0.03999980539083481,0.24157829582691193,-0.27943363785743713,-8.970779418945312
1745728283.871965,-0.07078221440315247,-0.004659195896238089,0.04647175222635269,0.16439054906368256,-0.16155119240283966,-9.402045249938965
1745728283.8733466,-0.05505448579788208,0.002842321526259184,0.05214313790202141,0.3363010585308075,-0.1121613010764122,-10.390508651733398
1745728283.8755264,-0.02273077890276909,0.004753592889755964,0.05691719055175781,0.21805091202259064,0.22802941501140594,-10.015599250793457
1745728283.9107645,0.005020467564463615,0.01138017512857914,0.05728793889284134,0.292702853679657,-0.10969171673059464,-9.155366897583008
1745728283.913197,-0.009844879619777203,-0.012513791210949421,0.059758108109235764,0.42684364318847656,-0.03052627108991146,-9.339845657348633
1745728283.9158607,-0.000819093722384423,-0.005725608207285404,0.05746522545814514,0.41357070207595825,-0.5696099996566772,-10.420364379882812
1745728283.9185183,-0.04001728445291519,0.005913660395890474,0.05756198614835739,0.42639341950416565,-0.38470473885536194,-10.06335735321045
1745728283.9259858,-0.05951758474111557,0.0007645427831448615,0.056361645460128784,0.26937660574913025,-0.7332864999771118,-9.031240463256836
1745728283.9549665,-0.09184000641107559,-0.011436793021857738,0.05743606016039848,0.6545118093490601,-0.5303780436515808,-9.203722953796387
1745728283.9569962,-0.10894207656383514,-0.011643825098872185,0.05854526162147522,0.4713231921195984,-0.2195100486278534,-10.53367805480957
1745728283.958604,-0.08530069142580032,0.003058863803744316,0.059095125645399094,0.40599584579467773,-0.35194653272628784,-10.426980972290039
1745728283.9593222,-0.08992604166269302,-0.006306670606136322,0.06256584823131561,0.2517376244068146,0.1271929144859314,-8.943907737731934
1745728283.9980617,-0.062005288898944855,-0.010817552916705608,0.0686953216791153,0.16126585006713867,-0.1996856927871704,-9.242640495300293
1745728284.0001667,-0.05391036719083786,-0.014607901684939861,0.07347889244556427,0.19887690246105194,0.17283694446086884,-10.332287788391113
1745728284.0031874,-0.014485622756183147,0.0028796119149774313,0.07465487718582153,0.11941657215356827,-0.0538143627345562,-10.280099868774414
1745728284.005429,-0.02286754921078682,-0.005185300949960947,0.07425682246685028,0.36764445900917053,-0.06837292015552521,-9.13255500793457
1745728284.0091655,-0.024499129503965378,-0.019245728850364685,0.07006825506687164,0.3144596219062805,-0.1666763722896576,-9.283863067626953
1745728284.0404677,-0.04417908564209938,-0.014006072655320168,0.06947409361600876,0.5132733583450317,-0.5705757141113281,-10.48613166809082
1745728284.0445914,-0.06876903772354126,-0.009504850022494793,0.07034909725189209,0.4917891025543213,-0.5149614810943604,-10.286347389221191
1745728284.0464864,-0.08123596012592316,-0.008631577715277672,0.0753120705485344,0.5114283561706543,-0.837108314037323,-9.234607696533203
1745728284.0478091,-0.12339399009943008,-0.024591114372015,0.08121949434280396,0.4738258421421051,-0.32268911600112915,-9.27192211151123
1745728284.0836112,-0.046306949108839035,-0.013854136690497398,0.08865466713905334,0.35170406103134155,-0.09206588566303253,-9.317756652832031
1745728284.0838344,-0.04207870364189148,-0.012755582109093666,0.09291432052850723,0.38641947507858276,-0.5340379476547241,-9.402702331542969
1745728284.086168,-0.07791542261838913,-0.017296411097049713,0.0956692099571228,0.5833656191825867,-0.3729465901851654,-10.083053588867188
1745728284.0933762,-0.07711086422204971,-0.013916311785578728,0.09247514605522156,0.4407551884651184,-0.44542059302330017,-10.299112319946289
1745728284.0934348,-0.1046033650636673,-0.01212284155189991,0.09374383836984634,0.4881066381931305,-0.3300548195838928,-9.600421905517578
1745728284.1297755,-0.10821275413036346,-0.019948650151491165,0.09466560184955597,0.13847993314266205,-0.1931462585926056,-9.397517204284668
1745728284.1298673,-0.10969462245702744,-0.0173345860093832,0.09661413729190826,0.29606443643569946,-0.26153725385665894,-9.83907413482666
1745728284.132584,-0.11035511642694473,-0.01610131934285164,0.09978344291448593,0.22629673779010773,0.1233869418501854,-10.0718994140625
1745728284.1355073,-0.078932024538517,-0.006968366913497448,0.10226758569478989,0.21673321723937988,-0.025845861062407494,-9.772008895874023
1745728284.1713526,-0.08017004281282425,-0.0186189915984869,0.1018102616071701,0.3767995536327362,0.2681698501110077,-9.514677047729492
1745728284.1728673,-0.054587822407484055,-0.015501339919865131,0.10263936221599579,0.1220330148935318,-0.08375845104455948,-9.885798454284668
1745728284.1744826,-0.06679819524288177,-0.00037362781586125493,0.10999716818332672,0.4770936369895935,-0.4573601186275482,-9.952726364135742
1745728284.1776104,-0.07886701822280884,-0.012880546040832996,0.1235973984003067,0.6370946168899536,-0.431284099817276,-9.577484130859375
1745728284.212137,-0.09567610919475555,0.001975764287635684,0.13364848494529724,0.7763916850090027,-0.9587802886962891,-9.836517333984375
1745728284.2144783,-0.12860652804374695,0.031678058207035065,0.25826001167297363,0.43795210123062134,0.21407291293144226,-9.840006828308105
1745728284.2171662,-0.13946585357189178,0.029653597623109818,0.2614752948284149,0.4622167944908142,0.007463640067726374,-9.649009704589844
1745728284.2249846,-0.12236849218606949,0.02462025359272957,0.2611151933670044,0.3767533600330353,0.3909705579280853,-9.565342903137207
1745728284.2553668,-0.11817747354507446,0.033847592771053314,0.26444119215011597,0.4279663562774658,0.03267733380198479,-9.85521411895752
1745728284.2590897,-0.12834998965263367,0.027611855417490005,0.2667232155799866,0.5036308169364929,0.1915065348148346,-9.936126708984375
1745728284.2591424,-0.11771424114704132,0.03193444386124611,0.27014580368995667,0.5497981905937195,0.04816870763897896,-9.69058609008789
1745728284.2605834,-0.14143936336040497,0.031138908118009567,0.27118119597435,0.7207323908805847,0.02538597211241722,-9.529498100280762
1745728284.2617161,-0.13348808884620667,0.029161298647522926,0.2753182053565979,0.600602924823761,0.28768834471702576,-9.76642894744873
1745728284.3003352,-0.1444406509399414,0.026138823479413986,0.27661991119384766,0.8656484484672546,0.08739921450614929,-10.05384635925293
1745728284.3026817,-0.1316998451948166,0.017818164080381393,0.27623870968818665,0.616976797580719,0.6710336804389954,-9.83785629272461
1745728284.305765,-0.11839135736227036,0.02395562455058098,0.2734607756137848,0.36104705929756165,0.35800689458847046,-9.832026481628418
1745728284.3089268,-0.11079206317663193,0.010544674471020699,0.2706848382949829,0.18581005930900574,0.7977005243301392,-9.532087326049805
1745728284.3437784,-0.07789362967014313,0.013313813135027885,0.2687382102012634,0.09405694156885147,0.3716340661048889,-9.777381896972656
1745728284.346191,-0.06892247498035431,0.01651223748922348,0.26588672399520874,0.23670247197151184,0.5429090261459351,-9.768537521362305
1745728284.3492918,-0.05771983787417412,0.016347132623195648,0.26486852765083313,0.03424457460641861,0.19213011860847473,-9.719446182250977
1745728284.3515072,-0.06155306100845337,0.006203635595738888,0.267063707113266,0.5165717601776123,-0.22063100337982178,-9.591485977172852
1745728284.3541758,-0.0729607343673706,0.012813074514269829,0.2684023380279541,0.39981573820114136,-0.030691558495163918,-9.834569931030273
1745728284.3852565,-0.11065451800823212,0.013100910000503063,0.2704421877861023,0.5061960816383362,-0.6889144778251648,-10.103487968444824
1745728284.387747,-0.1282593160867691,0.004776588175445795,0.2727576196193695,0.5429920554161072,-0.29453063011169434,-9.52120304107666
1745728284.3902924,-0.15462268888950348,0.010198187083005905,0.2749323546886444,0.4991002082824707,-0.303699254989624,-9.482417106628418
1745728284.3928523,-0.20438823103904724,-0.0008928995812311769,0.2726357579231262,0.5270419120788574,0.14760372042655945,-9.863161087036133
1745728284.4370818,-0.06427274644374847,-0.015298140235245228,0.268347829580307,0.5588991641998291,0.20586319267749786,-10.139045715332031
1745728284.4372137,-0.05749564245343208,-0.015846267342567444,0.2648826241493225,0.35839951038360596,0.12730948626995087,-9.803415298461914
1745728284.4372907,-0.09093143045902252,-0.00744890421628952,0.2660594582557678,0.49132800102233887,-0.20079994201660156,-9.382513046264648
1745728284.4396968,-0.12302909791469574,-0.020829515531659126,0.2665194869041443,0.36901479959487915,0.17511412501335144,-9.604140281677246
1745728284.4724317,-0.12867869436740875,-0.023404013365507126,0.2665460407733917,0.55451899766922,-0.34268370270729065,-10.191332817077637
1745728284.4751673,-0.13607673346996307,-0.013299206271767616,0.26812946796417236,0.5650773048400879,0.3778601884841919,-9.857542037963867
1745728284.478598,-0.14801833033561707,-0.012948006391525269,0.2730790674686432,0.23786237835884094,0.12202119827270508,-9.596220970153809
1745728284.4804823,-0.12490556389093399,-0.02971051260828972,0.27449750900268555,0.5145852565765381,0.3972552418708801,-9.44921588897705
1745728284.519245,-0.11777850240468979,-0.018979715183377266,0.27630987763404846,0.32417136430740356,0.716781735420227,-9.976572036743164
1745728284.5214684,-0.10536898672580719,-0.018081199377775192,0.2760089039802551,0.3633490204811096,0.391313374042511,-10.099879264831543
1745728284.5327528,-0.08384458720684052,-0.021149149164557457,0.27364054322242737,0.28079405426979065,0.9390579462051392,-9.321595191955566
1745728284.5328803,-0.08138270676136017,-0.02387591078877449,0.2718028426170349,0.4492782652378082,0.3735864758491516,-9.455466270446777
1745728284.5329838,-0.08399108052253723,-0.03008210100233555,0.27235960960388184,0.513634204864502,0.7204052209854126,-10.077792167663574
1745728284.5586603,-0.07170102745294571,-0.021916592493653297,0.26839226484298706,0.493294894695282,0.14841066300868988,-10.168587684631348
1745728284.558739,-0.07924237847328186,-0.022376084700226784,0.2718484401702881,0.5893822908401489,0.39260417222976685,-9.40411376953125
1745728284.5618348,-0.010088375769555569,-0.06303869187831879,0.17720702290534973,-0.4102514684200287,0.26390472054481506,-9.383596420288086
1745728284.563456,-0.03969394043087959,-0.06492644548416138,0.17479854822158813,0.4067617356777191,-0.4564973711967468,-9.075838088989258
1745728284.6036186,-0.09212028980255127,-0.08471883833408356,0.17975954711437225,0.29480576515197754,-0.2478676289319992,-10.469005584716797
1745728284.606142,-0.09807181358337402,-0.05470099300146103,0.17985138297080994,-0.2826696038246155,0.1529117226600647,-10.677324295043945
1745728284.6093624,-0.09134707599878311,-0.05210839956998825,0.17287799715995789,0.07504145801067352,0.49739986658096313,-8.77060604095459
1745728284.619235,-0.09532125294208527,-0.06454455852508545,0.17043432593345642,0.14212417602539062,0.9018278121948242,-8.98714542388916
1745728284.623634,-0.07298007607460022,-0.07570336759090424,0.16289718449115753,0.6497347950935364,0.7223780751228333,-10.884544372558594
1745728284.643178,-0.0027569769881665707,-0.05811223387718201,0.15899242460727692,0.16255846619606018,1.6747792959213257,-10.84967041015625
1745728284.645507,0.020593391731381416,-0.0450785756111145,0.15449105203151703,-0.19541902840137482,0.7104356288909912,-9.102069854736328
1745728284.6475682,0.04104284197092056,-0.06500812619924545,0.15887251496315002,0.3124759793281555,0.6385345458984375,-8.51632308959961
1745728284.651764,0.05204501748085022,-0.06116662174463272,0.15441788733005524,0.3086445927619934,0.8742579221725464,-10.519184112548828
1745728284.687243,0.051616597920656204,-0.04844120889902115,0.14299479126930237,0.46183234453201294,0.607196569442749,-11.071500778198242
1745728284.696051,0.0817183181643486,-0.0409107431769371,0.13433894515037537,0.11484398692846298,0.8931030035018921,-9.246382713317871
1745728284.6961355,0.03821999952197075,-0.053549010306596756,0.12182315438985825,0.4876529574394226,0.16454339027404785,-8.761453628540039
1745728284.6962066,0.041928328573703766,-0.06393560767173767,0.11872370541095734,0.3970232605934143,0.27768149971961975,-10.418203353881836
1745728284.727994,0.024925732985138893,-0.03514343500137329,0.11787376552820206,0.13924245536327362,-0.21202853322029114,-11.0819673538208
1745728284.729033,0.018453925848007202,-0.03027389571070671,0.12068372964859009,0.1253189742565155,0.07668336480855942,-9.204187393188477
1745728284.7315073,0.007609407417476177,-0.045449454337358475,0.1226576417684555,-0.019692784175276756,0.03450959175825119,-8.648807525634766
1745728284.7327814,0.0015589367831125855,-0.04299365356564522,0.12207724899053574,0.2932325005531311,0.5203536748886108,-10.277012825012207
1745728284.735303,0.03787925839424133,-0.022571269422769547,0.11330324411392212,0.07031749933958054,0.8985328674316406,-10.940449714660645
1745728284.774187,0.03874341398477554,-0.02117064967751503,0.10692302137613297,0.16152627766132355,0.3153087794780731,-9.558075904846191
1745728284.7761981,0.1262763887643814,-0.00861116498708725,0.04709133505821228,0.6729248762130737,0.1756451278924942,-9.453255653381348
1745728284.778418,0.15941157937049866,0.002095303498208523,0.0517583005130291,0.2529279589653015,0.7103083729743958,-10.173052787780762
1745728284.7814825,0.16790613532066345,0.02291889488697052,0.049149904400110245,0.1941908746957779,0.022007575258612633,-10.045400619506836
1745728284.8153625,0.1608639806509018,0.029072090983390808,0.043984413146972656,0.3869349956512451,0.24641092121601105,-9.050992965698242
1745728284.8234313,0.13314279913902283,0.01758359745144844,0.029643144458532333,0.45944660902023315,0.2505044639110565,-9.490140914916992
1745728284.8251479,0.1359323412179947,0.028024429455399513,0.012147581204771996,0.6607447862625122,0.3889172375202179,-10.40095329284668
1745728284.8261955,0.10210833698511124,0.03948507457971573,-0.003183725057169795,0.44026628136634827,0.21346767246723175,-10.131479263305664
1745728284.860521,0.09281650185585022,0.042357105761766434,-0.005040579475462437,0.7220472097396851,-0.6097836494445801,-9.368974685668945
1745728284.860605,0.05077517777681351,0.03449477255344391,-0.0026937611401081085,0.49091172218322754,0.1814149022102356,-9.472932815551758
1745728284.861104,0.05909353494644165,0.050289176404476166,-0.001999392407014966,0.4965905249118805,-0.24818246066570282,-10.303949356079102
1745728284.8626604,0.07950945198535919,0.05872379615902901,-0.004447274841368198,0.5040315985679626,1.0504487752914429,-9.805928230285645
1745728284.8638418,0.11078183352947235,0.05217176675796509,-0.010780291631817818,0.4755673408508301,0.9757930040359497,-9.442049026489258
1745728284.9036129,0.16567769646644592,0.047404851764440536,-0.022914886474609375,0.46437931060791016,1.3613238334655762,-9.759499549865723
1745728284.905967,0.19676175713539124,0.05870169401168823,-0.034136366099119186,0.14704903960227966,1.149890661239624,-10.28978443145752
1745728284.9087887,0.23660461604595184,0.06766770780086517,-0.0420529879629612,0.43097060918807983,0.3663937747478485,-9.727441787719727
1745728284.9124386,0.13693946599960327,0.05874514579772949,-0.15659166872501373,0.7813935279846191,-0.32701507210731506,-9.564842224121094
1745728284.9447193,0.1425626426935196,0.05629492551088333,-0.1602107435464859,0.5263007879257202,-0.0652947872877121,-9.853860855102539
1745728284.94491,0.1415742188692093,0.06163591146469116,-0.16078011691570282,0.6998294591903687,-0.1979324370622635,-9.814083099365234
1745728284.9480102,0.1581185907125473,0.054254669696092606,-0.164589062333107,0.6289440393447876,0.37213054299354553,-9.469983100891113
1745728284.949089,0.167530819773674,0.04842836409807205,-0.16848105192184448,0.6613965630531311,-0.03673360124230385,-9.805859565734863
1745728284.9516792,0.19328482449054718,0.04796266928315163,-0.17189086973667145,0.5446642637252808,0.3078756332397461,-9.961524963378906
1745728284.986323,0.21498124301433563,0.05089886859059334,-0.17616556584835052,0.3651497960090637,0.03498727083206177,-9.713908195495605
1745728284.987296,0.19723445177078247,0.045703113079071045,-0.17761990427970886,0.6328386664390564,-0.2789079546928406,-9.277349472045898
1745728284.990267,0.2190535068511963,0.04551950469613075,-0.18230386078357697,0.5028473734855652,-0.03155224397778511,-9.57557487487793
1745728284.9928288,0.18073570728302002,0.039423394948244095,-0.18643991649150848,0.7901949882507324,-0.6027666330337524,-10.068138122558594
1745728285.0303547,0.1859406977891922,0.03920473903417587,-0.18638508021831512,0.679509162902832,-0.28756803274154663,-9.826990127563477
1745728285.0340948,0.15830117464065552,0.0348907932639122,-0.19302086532115936,0.7532318234443665,-0.7936607003211975,-9.61297607421875
1745728285.0353398,0.13790753483772278,0.025759126991033554,-0.18974149227142334,0.6584291458129883,-0.44602617621421814,-9.613653182983398
1745728285.0381596,0.13592402637004852,0.03360636904835701,-0.1936073750257492,0.5456160306930542,-0.4301324784755707,-9.87639045715332
1745728285.0728202,0.12029977887868881,0.028902018442749977,-0.1937851458787918,0.6255661249160767,-0.35449889302253723,-9.654197692871094
1745728285.0759892,0.14855509996414185,0.028040271252393723,-0.19627410173416138,0.40371280908584595,0.09901086241006851,-9.419858932495117
1745728285.0774057,0.13257458806037903,0.021844450384378433,-0.20251500606536865,0.6247013807296753,-0.12463963031768799,-9.707986831665039
1745728285.0798113,0.1730029582977295,0.02434847503900528,-0.20295651257038116,0.4752787947654724,0.09277462959289551,-9.840445518493652
1745728285.0827508,0.1703169047832489,0.02724122628569603,-0.2101598083972931,0.5834822654724121,-0.19009476900100708,-9.717248916625977
1745728285.1166842,0.17517408728599548,0.014521260745823383,-0.20712153613567352,0.720746636390686,-0.20962385833263397,-9.5849027633667
1745728285.1188467,0.1839682012796402,0.016339333727955818,-0.2081844061613083,0.6278116703033447,-0.3651595413684845,-9.805854797363281
1745728285.1243756,0.16524159908294678,-0.0013059680350124836,-0.2277870625257492,0.5662781000137329,-0.44321686029434204,-9.865296363830566
1745728285.1278427,0.1454446017742157,-0.007064403500407934,-0.22755412757396698,0.7050018310546875,-0.42604556679725647,-9.674357414245605
1745728285.1592505,0.15879113972187042,-0.012625758536159992,-0.22803187370300293,0.5176152586936951,-0.3239138722419739,-9.711838722229004
1745728285.1602004,0.13898345828056335,-0.008952481672167778,-0.23220422863960266,0.6258424520492554,-0.5863897800445557,-9.79393482208252
1745728285.1623788,0.13430900871753693,-0.01177099160850048,-0.2355426847934723,0.5180435180664062,-0.31327325105667114,-9.668377876281738
1745728285.164187,0.13695676624774933,-0.01055487897247076,-0.23974470794200897,0.5913713574409485,-0.5441439151763916,-9.591257095336914
1745728285.2036915,0.11569911241531372,-0.01919422671198845,-0.2405606508255005,0.6234187483787537,-0.30387014150619507,-9.706174850463867
1745728285.2048485,0.12897999584674835,-0.016196873039007187,-0.24418726563453674,0.6197012662887573,-0.5130237340927124,-9.98957347869873
1745728285.2089157,0.12437853962182999,-0.016298560425639153,-0.24406957626342773,0.6233848929405212,-0.3763422966003418,-9.746785163879395
1745728285.210977,0.13319554924964905,-0.024285290390253067,-0.2457772046327591,0.43915945291519165,-0.31375300884246826,-9.642850875854492
1745728285.2154312,0.13793131709098816,-0.019895026460289955,-0.24408142268657684,0.6452821493148804,-0.5806409120559692,-9.723485946655273
1745728285.2463562,0.14497080445289612,-0.026593748480081558,-0.24335965514183044,0.4992559850215912,-0.3263331353664398,-9.862424850463867
1745728285.247524,0.14570757746696472,-0.02227775566279888,-0.2442045509815216,0.5172498822212219,-0.5349125862121582,-9.744176864624023
1745728285.248852,0.1324867159128189,-0.028704633936285973,-0.24732732772827148,0.5222073197364807,-0.4417942464351654,-9.596284866333008
1745728285.248911,0.14533911645412445,-0.025599103420972824,-0.24966952204704285,0.5398851037025452,-0.6281539797782898,-9.783434867858887
1745728285.2895114,0.10165911912918091,-0.03632058948278427,-0.2801778316497803,0.4655720591545105,-0.5310397148132324,-9.905522346496582
1745728285.2913089,0.09310705214738846,-0.030463725328445435,-0.2828347682952881,0.41290825605392456,-0.6996868252754211,-9.871597290039062
1745728285.2931588,0.09229734539985657,-0.03738785907626152,-0.28363749384880066,0.4347810745239258,-0.5683252811431885,-9.757566452026367
1745728285.2956548,0.09914427250623703,-0.03218691796064377,-0.2822917103767395,0.3885257840156555,-0.7684224843978882,-9.777254104614258
1745728285.2992916,0.08116241544485092,-0.03157755732536316,-0.28391924500465393,0.4908168315887451,-0.6673319935798645,-9.756865501403809
1745728285.3317823,0.10815922915935516,-0.027327511459589005,-0.2826347053050995,0.3961988091468811,-0.6693090200424194,-9.72236442565918
1745728285.3333218,0.07887089997529984,-0.030934905633330345,-0.28392457962036133,0.5791299343109131,-0.7815651297569275,-9.759237289428711
1745728285.3373938,0.09013377875089645,-0.03100738488137722,-0.28491106629371643,0.5130017995834351,-0.598760724067688,-9.85492992401123
1745728285.3404589,0.08520340174436569,-0.02490716613829136,-0.28617000579833984,0.5244668126106262,-0.8019593954086304,-9.90635871887207
1745728285.3749402,0.07742319256067276,-0.034209925681352615,-0.2881534695625305,0.4129910469055176,-0.5584429502487183,-9.784200668334961
1745728285.3797088,0.09099356085062027,-0.02485746331512928,-0.28905051946640015,0.47231537103652954,-0.7807916402816772,-9.756109237670898
1745728285.3798673,0.06958357989788055,-0.03095778450369835,-0.28672707080841064,0.5138760805130005,-0.6684014797210693,-9.793843269348145
1745728285.3830569,0.09152442961931229,-0.029279131442308426,-0.28815531730651855,0.39415252208709717,-0.6092530488967896,-9.821413040161133
1745728285.4189768,0.07291726768016815,-0.02638486959040165,-0.28985071182250977,0.5369083285331726,-0.7521259188652039,-9.805776596069336
1745728285.4270358,0.0919010117650032,-0.02664388343691826,-0.2887152135372162,0.3566920757293701,-0.6008504629135132,-9.706328392028809
1745728285.4270868,0.08236031234264374,-0.023867983371019363,-0.2890481948852539,0.5536355972290039,-0.7699121236801147,-9.712007522583008
1745728285.4271421,0.07813233882188797,-0.02565222978591919,-0.28918391466140747,0.37637659907341003,-0.6189581155776978,-9.823566436767578
1745728285.4271796,0.09027577936649323,-0.017857586964964867,-0.29125159978866577,0.443012535572052,-0.8673356175422668,-9.857916831970215
1745728285.4608402,0.07527126371860504,-0.023012664169073105,-0.2924855053424835,0.4522899091243744,-0.5717900395393372,-9.68805980682373
1745728285.46295,0.08015801012516022,-0.02299671806395054,-0.29455748200416565,0.4195592403411865,-0.8088258504867554,-9.819052696228027
1745728285.4654493,0.07136104255914688,-0.01831716112792492,-0.29416680335998535,0.5536263585090637,-0.6866035461425781,-9.825565338134766
1745728285.468764,0.08133640140295029,-0.01312630157917738,-0.2981712818145752,0.566235363483429,-0.9396252632141113,-9.628898620605469
1745728285.5037706,0.08847379684448242,-0.013884337618947029,-0.3003823161125183,0.3872566223144531,-0.5392285585403442,-9.525209426879883
1745728285.5065806,0.08027536422014236,-0.013171911239624023,-0.2977115213871002,0.5506798624992371,-1.0838634967803955,-9.835195541381836
1745728285.5084553,0.07642873376607895,-0.01337528508156538,-0.29787537455558777,0.5244930982589722,-0.6918951869010925,-9.847320556640625
1745728285.5089853,0.0766189843416214,-0.008334185928106308,-0.29728180170059204,0.4404618740081787,-0.9370642900466919,-9.809475898742676
1745728285.5454476,0.06050361320376396,-0.015575255267322063,-0.29792457818984985,0.5101334452629089,-0.7490123510360718,-9.668305397033691
1745728285.5464246,0.07298583537340164,-0.009596898220479488,-0.2999001443386078,0.3338957726955414,-0.6010758876800537,-9.75912857055664
1745728285.5482335,0.05955147743225098,-0.009147056378424168,-0.30291861295700073,0.533075749874115,-0.9222747683525085,-9.828641891479492
1745728285.550453,0.07952889055013657,-0.008261383511126041,-0.3002527356147766,0.37037193775177,-0.5146273970603943,-9.693747520446777
1745728285.5542376,0.06846076250076294,-0.010012444108724594,-0.301683634519577,0.5282109379768372,-0.9287453889846802,-9.682851791381836
1745728285.5923774,0.0754343643784523,-0.011301892809569836,-0.30053648352622986,0.47163790464401245,-0.7019446492195129,-9.695334434509277
1745728285.59353,0.08009938150644302,-0.0007929023122414947,-0.3009442090988159,0.41187697649002075,-0.8286070823669434,-9.815505981445312
1745728285.597331,0.06995406746864319,-0.013209016993641853,-0.2986149489879608,0.627096951007843,-0.8339118957519531,-9.737093925476074
1745728285.598774,0.08319412171840668,-0.0063362508080899715,-0.2984013557434082,0.39708247780799866,-0.7146786451339722,-9.7843599319458
1745728285.6314006,0.06378499418497086,-0.007978275418281555,-0.300743967294693,0.5749839544296265,-0.9324012994766235,-9.847434997558594
1745728285.6338136,0.036532189697027206,-0.01733265444636345,-0.30544060468673706,0.6333150863647461,-0.908370852470398,-9.764898300170898
1745728285.6364758,0.04208166152238846,-0.01926080882549286,-0.30394038558006287,0.44487589597702026,-0.7920531034469604,-9.686653137207031
1745728285.6388526,0.03640105575323105,-0.016767457127571106,-0.30269479751586914,0.5649210810661316,-1.06000816822052,-9.631848335266113
1745728285.6763825,0.032666198909282684,-0.02058512344956398,-0.3062976002693176,0.5139275789260864,-0.6108070611953735,-9.68643569946289
1745728285.6853344,0.030781328678131104,-0.019076934084296227,-0.3053325414657593,0.4774273931980133,-1.0633704662322998,-9.921663284301758
1745728285.6854577,0.026719462126493454,-0.02204575389623642,-0.3070306181907654,0.5286656022071838,-0.7729142904281616,-9.768617630004883
1745728285.6855094,0.03855662792921066,-0.01998351514339447,-0.30811595916748047,0.3816458284854889,-0.834300696849823,-9.698019027709961
1745728285.687436,0.019508711993694305,-0.02590770646929741,-0.30646950006484985,0.5609197616577148,-0.9171081781387329,-9.685968399047852
1745728285.7217941,0.041357673704624176,-0.020585428923368454,-0.3066783845424652,0.43955525755882263,-0.6837539076805115,-9.741949081420898
1745728285.7241814,0.02587304450571537,-0.024292567744851112,-0.3064384162425995,0.5962451100349426,-1.1178139448165894,-9.774238586425781
1745728285.7263293,0.03502412512898445,-0.023830171674489975,-0.30497652292251587,0.4490494132041931,-0.6972635984420776,-9.64537525177002
1745728285.7275877,0.028516650199890137,-0.02536856010556221,-0.30465108156204224,0.5226854085922241,-1.0876495838165283,-9.776885986328125
1745728285.7623596,0.024244267493486404,-0.025343429297208786,-0.30358025431632996,0.47405046224594116,-0.7576452493667603,-9.785871505737305
1745728285.7640963,0.03144129738211632,-0.019525732845067978,-0.30622315406799316,0.3951549530029297,-0.8182004690170288,-9.710477828979492
1745728285.7646837,0.0131602231413126,-0.027772095054388046,-0.30991131067276,0.6272526979446411,-0.8976147770881653,-9.703020095825195
1745728285.7668414,0.037408605217933655,-0.025077026337385178,-0.30867519974708557,0.42570391297340393,-0.760901927947998,-9.738903045654297
1745728285.8055997,0.014464783482253551,-0.02563571371138096,-0.31023770570755005,0.5745342969894409,-0.9884125590324402,-9.840864181518555
1745728285.8075619,0.025924822315573692,-0.027319353073835373,-0.3073616623878479,0.40765175223350525,-0.7869681119918823,-9.639799118041992
1745728285.8115382,0.025484899058938026,-0.01810520328581333,-0.30915313959121704,0.4948817193508148,-0.9397600889205933,-9.607563018798828
1745728285.8169594,0.021506840363144875,-0.029063809663057327,-0.30710265040397644,0.5414875149726868,-0.7310854196548462,-9.672128677368164
1745728285.819954,0.0350138358771801,-0.02238433063030243,-0.30705758929252625,0.4477453827857971,-0.8660327792167664,-9.843816757202148
1745728285.850706,0.0195220448076725,-0.028315728530287743,-0.31059783697128296,0.5566264986991882,-0.8316991925239563,-9.844706535339355
1745728285.8508377,0.01130838505923748,-0.02784835919737816,-0.3103005588054657,0.47166553139686584,-0.8073276281356812,-9.71729850769043
1745728285.850895,0.022196318954229355,-0.025804027915000916,-0.3094455599784851,0.44258183240890503,-0.8904932141304016,-9.811515808105469
1745728285.850963,0.002864184556528926,-0.02898162603378296,-0.30879485607147217,0.5229829549789429,-0.9715523719787598,-9.776225090026855
1745728285.8915026,0.01951637491583824,-0.029017185792326927,-0.3075796961784363,0.37930232286453247,-0.7660018801689148,-9.762009620666504
1745728285.8943038,0.00456721056252718,-0.028203075751662254,-0.3081144094467163,0.4905843138694763,-0.9978870153427124,-9.78480339050293
1745728285.897748,0.010218731127679348,-0.03058026358485222,-0.3091272711753845,0.4384399354457855,-0.6490289568901062,-9.695979118347168
1745728285.901487,0.016708537936210632,-0.025047525763511658,-0.3107614517211914,0.503834068775177,-1.0200504064559937,-9.741673469543457
1745728285.9054716,0.0139238853007555,-0.029596025124192238,-0.309391051530838,0.48437947034835815,-0.698571503162384,-9.7139310836792
1745728285.9354515,0.019121384248137474,-0.0270850770175457,-0.30991441011428833,0.4195091128349304,-0.8535411953926086,-9.741185188293457
1745728285.9372747,0.012666866183280945,-0.025904279202222824,-0.30943965911865234,0.5560569763183594,-0.9408085942268372,-9.653590202331543
1745728285.9396977,0.023269886150956154,-0.02538767084479332,-0.31079256534576416,0.2962554097175598,-0.6811906099319458,-9.689727783203125
1745728285.9420226,0.011617201380431652,-0.02789139375090599,-0.30978530645370483,0.5887540578842163,-1.0570697784423828,-9.864015579223633
1745728285.9780645,0.019409531727433205,-0.027740303426980972,-0.30834072828292847,0.4028579294681549,-0.6917792558670044,-9.836126327514648
1745728285.9787786,0.015918787568807602,-0.022993573918938637,-0.3097342550754547,0.47824710607528687,-1.1014493703842163,-9.789946556091309
1745728285.9825468,0.01923200488090515,-0.01796646974980831,-0.3015543818473816,0.4767066538333893,-1.0407729148864746,-9.704577445983887
1745728285.984862,0.01265999861061573,-0.022000502794981003,-0.3021354675292969,0.4640325605869293,-0.8036297559738159,-9.772306442260742
1745728286.0224535,0.024752173572778702,-0.0174187533557415,-0.30197328329086304,0.3829011023044586,-0.9433614611625671,-9.884040832519531
1745728286.0235682,-0.000537107523996383,-0.019747838377952576,-0.30441391468048096,0.46998271346092224,-0.8436461687088013,-9.686910629272461
1745728286.025485,0.014431309886276722,-0.021537352353334427,-0.30555808544158936,0.412076860666275,-0.8661176562309265,-9.691495895385742
1745728286.0275996,0.0022094675805419683,-0.01865624450147152,-0.3048950135707855,0.5138134956359863,-0.9457011222839355,-9.767924308776855
1745728286.0646865,0.008943143300712109,-0.021407345309853554,-0.30560237169265747,0.40487614274024963,-0.743553638458252,-9.79913330078125
1745728286.0648642,0.0034793918021023273,-0.01675981841981411,-0.30554643273353577,0.5467087030410767,-1.0942027568817139,-9.74400520324707
1745728286.0665913,0.009101477451622486,-0.021502196788787842,-0.30334964394569397,0.4480827748775482,-0.6437041759490967,-9.678482055664062
1745728286.067178,0.01893586292862892,-0.017344510182738304,-0.302915096282959,0.4875747561454773,-0.9925562143325806,-9.794540405273438
1745728286.0689542,0.004222078248858452,-0.02300742268562317,-0.30056941509246826,0.47693395614624023,-0.8171259164810181,-9.754709243774414
1745728286.1121757,0.02463315986096859,-0.01825314573943615,-0.30264586210250854,0.35057708621025085,-0.8646441698074341,-9.80879020690918
1745728286.114687,0.007418545428663492,-0.020119262859225273,-0.29979363083839417,0.4719528555870056,-0.8674033880233765,-9.733898162841797
1745728286.1177542,0.02164684236049652,-0.021965423598885536,-0.30309367179870605,0.3239917755126953,-0.5959177613258362,-9.728090286254883
1745728286.1214807,0.010988254100084305,-0.01992480456829071,-0.3052530884742737,0.5629568099975586,-1.009948968887329,-9.780542373657227
1745728286.1499717,0.019797686487436295,-0.020476246252655983,-0.30427056550979614,0.4559192657470703,-0.729732871055603,-9.746854782104492
1745728286.150355,0.008472477085888386,-0.020070068538188934,-0.3057028651237488,0.4933452606201172,-1.0466065406799316,-9.747093200683594
1745728286.1525095,0.0019295159727334976,-0.021955212578177452,-0.30245092511177063,0.5279634594917297,-0.9735304117202759,-9.663455963134766
1745728286.1615047,0.016338476911187172,-0.014685997739434242,-0.30198320746421814,0.2966200113296509,-0.8863604664802551,-9.703537940979004
1745728286.1633031,-0.0020324692595750093,-0.021662235260009766,-0.2983456552028656,0.5915479063987732,-0.9641828536987305,-9.772184371948242
1745728286.1939235,0.016553550958633423,-0.019856784492731094,-0.2979260981082916,0.30512088537216187,-0.65861976146698,-9.837265014648438
1745728286.1977162,-0.0017999254632741213,-0.020281322300434113,-0.30046457052230835,0.4875648617744446,-0.963671088218689,-9.79615592956543
1745728286.1996784,0.01794404163956642,-0.021663572639226913,-0.3003046214580536,0.38108474016189575,-0.6676906943321228,-9.923842430114746
1745728286.2020273,0.010465380735695362,-0.016012350097298622,-0.2985170781612396,0.3769935071468353,-1.0144639015197754,-9.823641777038574
1745728286.2363052,0.015248628333210945,-0.023494038730859756,-0.3005387783050537,0.38040727376937866,-0.6832151412963867,-9.506058692932129
1745728286.238735,0.014148594811558723,-0.020434776321053505,-0.29967111349105835,0.4349166750907898,-0.9891442060470581,-9.735532760620117
1745728286.2421076,0.0023136415984481573,-0.02220902033150196,-0.3000560998916626,0.5112035870552063,-0.8459571003913879,-9.874343872070312
1745728286.2426102,0.025803495198488235,-0.01671840064227581,-0.29860618710517883,0.4023861885070801,-0.8594075441360474,-9.709595680236816
1745728286.2778437,-0.0020076606888324022,-0.020249810069799423,-0.3001980483531952,0.5563509464263916,-1.0140068531036377,-9.505330085754395
1745728286.2795584,0.008879391476511955,-0.02431650459766388,-0.3010016083717346,0.4504513740539551,-0.802455723285675,-9.714946746826172
1745728286.2827098,0.004907978232949972,-0.014029440470039845,-0.2990112900733948,0.5033792853355408,-1.0583637952804565,-10.006022453308105
1745728286.2845516,0.003752524498850107,-0.02129356935620308,-0.29811733961105347,0.3142906129360199,-0.6826006174087524,-9.715543746948242
1745728286.3209915,0.009995302185416222,-0.013680985197424889,-0.2986348569393158,0.422698974609375,-0.9881701469421387,-9.596372604370117
1745728286.3223066,-0.0018288657302036881,-0.024898188188672066,-0.29734840989112854,0.45918864011764526,-0.7361642718315125,-9.725456237792969
1745728286.323512,0.01501854695379734,-0.019078435376286507,-0.3006160855293274,0.37357097864151,-0.8069831132888794,-9.92047119140625
1745728286.3273118,-0.003986604046076536,-0.021071674302220345,-0.29972344636917114,0.5607133507728577,-0.9675108790397644,-9.779854774475098
1745728286.3277166,0.0021092663519084454,-0.021154433488845825,-0.2951478362083435,0.49664631485939026,-0.8614098429679871,-9.798081398010254
1745728286.3653393,0.010570359416306019,-0.014675463549792767,-0.2960026264190674,0.3344763517379761,-0.9137277603149414,-9.651391983032227
1745728286.3666987,-0.008696083910763264,-0.02093178778886795,-0.2932918071746826,0.5416731834411621,-0.9169645309448242,-9.699365615844727
1745728286.3678052,0.013227066025137901,-0.01916453242301941,-0.2975146174430847,0.3442510962486267,-0.7010895013809204,-9.875214576721191
1745728286.3698244,-0.009594356641173363,-0.016088290140032768,-0.29417186975479126,0.5171283483505249,-0.9510046243667603,-9.816546440124512
1745728286.4077652,0.004025195259600878,-0.02144387550652027,-0.2970110774040222,0.46161437034606934,-0.7506042718887329,-9.643943786621094
1745728286.409062,0.003487131092697382,-0.017195696011185646,-0.29547324776649475,0.4670756757259369,-0.9170717000961304,-9.775467872619629
1745728286.4123719,-0.0026961988769471645,-0.02184579148888588,-0.295351505279541,0.39754563570022583,-0.6614558696746826,-9.737500190734863
1745728286.4130864,0.016990412026643753,-0.015292709693312645,-0.29371070861816406,0.3870786130428314,-0.9313938021659851,-9.70435619354248
1745728286.415826,0.0009220965439453721,-0.016943227499723434,-0.29470378160476685,0.4598380923271179,-0.7138055562973022,-9.62786865234375
1745728286.4511123,0.02525603212416172,-0.018618693575263023,-0.29308459162712097,0.375914603471756,-0.6795799732208252,-9.750507354736328
1745728286.4528491,0.00825880654156208,-0.01866568997502327,-0.2933608591556549,0.4911990165710449,-0.8711737394332886,-9.863068580627441
1745728286.4561353,0.02632938325405121,-0.01956254243850708,-0.29383960366249084,0.3775792717933655,-0.743953287601471,-9.79791259765625
1745728286.4582434,0.01028955914080143,-0.015463496558368206,-0.2930811941623688,0.4688566327095032,-1.0286370515823364,-9.758241653442383
1745728286.492681,0.006475464906543493,-0.02299262210726738,-0.29404836893081665,0.42074307799339294,-0.7092229127883911,-9.697683334350586
1745728286.4952161,0.016482999548316002,-0.014204924926161766,-0.2933972477912903,0.43017274141311646,-1.022986650466919,-9.713260650634766
1745728286.5020218,0.00019037173478864133,-0.02086477354168892,-0.293047696352005,0.5163390040397644,-0.7814198732376099,-9.732870101928711
1745728286.5027647,0.01468444149941206,-0.019093355163931847,-0.2953296899795532,0.4024559557437897,-0.7755411863327026,-9.793911933898926
1745728286.5043576,0.0013010144466534257,-0.018259897828102112,-0.2936078608036041,0.5064505934715271,-0.9496113657951355,-9.742103576660156
1745728286.5440154,0.020538469776511192,-0.015865925699472427,-0.29296383261680603,0.19132527709007263,-0.6059104204177856,-9.658560752868652
1745728286.544144,0.009320327080786228,-0.018545951694250107,-0.2931663691997528,0.5183737277984619,-1.0096526145935059,-9.701416969299316
1745728286.5446029,0.01367938332259655,-0.01790928654372692,-0.29345956444740295,0.3391870856285095,-0.8819242715835571,-9.813131332397461
1745728286.5471992,0.013897870667278767,-0.022011488676071167,-0.2939353287220001,0.5044113993644714,-0.6840947866439819,-9.897416114807129
1745728286.579993,0.020880337804555893,-0.017800480127334595,-0.29425013065338135,0.3859005570411682,-0.9481792449951172,-9.841429710388184
1745728286.5822752,0.006925216410309076,-0.023724546656012535,-0.2924145460128784,0.5131042003631592,-0.888111412525177,-9.634748458862305
1745728286.5858898,0.014525274746119976,-0.02307307906448841,-0.292951762676239,0.37379711866378784,-0.9082552194595337,-9.729146957397461
1745728286.623984,-0.003939412068575621,-0.019985973834991455,-0.2903529107570648,0.4865890145301819,-1.0386110544204712,-9.808843612670898
1745728286.6245613,0.011924565769731998,-0.020357416942715645,-0.28992873430252075,0.3883616626262665,-0.7041770815849304,-9.650556564331055
1745728286.6268194,-0.005154385231435299,-0.0207647867500782,-0.2909833788871765,0.41626325249671936,-1.020382285118103,-9.700963973999023
1745728286.6366215,-0.0017288128146901727,-0.022244088351726532,-0.2911202311515808,0.40912145376205444,-0.606971263885498,-9.757723808288574
1745728286.6367311,0.01179433986544609,-0.013870802707970142,-0.2909194231033325,0.3931023180484772,-0.82451993227005,-9.841948509216309
1745728286.6670837,0.001503768260590732,-0.02443276345729828,-0.2936103940010071,0.4326728880405426,-0.6708917617797852,-9.68018627166748
1745728286.668415,0.02483268454670906,-0.018289603292942047,-0.2935509979724884,0.36776289343833923,-0.7181888818740845,-9.733755111694336
1745728286.6709857,0.010973450727760792,-0.021094489842653275,-0.29139500856399536,0.5222538113594055,-0.9439716339111328,-9.83934211730957
1745728286.6715555,0.02675345540046692,-0.0201046634465456,-0.28975096344947815,0.34636539220809937,-0.6620563268661499,-9.698869705200195
1745728286.7091353,0.0005542321596294641,-0.023867184296250343,-0.2899171710014343,0.5210678577423096,-0.8503192067146301,-9.654860496520996
1745728286.7105844,0.01540712732821703,-0.022978629916906357,-0.2911871671676636,0.27413541078567505,-0.604800820350647,-9.811793327331543
1745728286.7130697,0.010037703439593315,-0.018689671531319618,-0.2917798161506653,0.507043719291687,-0.9564285278320312,-9.870338439941406
1745728286.714175,0.014843965880572796,-0.023847347125411034,-0.29463380575180054,0.39794108271598816,-0.6251785159111023,-9.688677787780762
1745728286.7511845,0.0069281840696930885,-0.02091405913233757,-0.29215312004089355,0.44417113065719604,-1.0657628774642944,-9.737985610961914
1745728286.751564,-0.0021580741740763187,-0.025388430804014206,-0.2918184697628021,0.5815056562423706,-0.8264939188957214,-9.791213989257812
1745728286.7549407,0.00798209011554718,-0.01879914663732052,-0.29111430048942566,0.3953191339969635,-0.9597042202949524,-9.83961296081543
1745728286.755055,-0.01255614310503006,-0.02381742186844349,-0.2917942404747009,0.51646888256073,-0.8369809985160828,-9.636712074279785
1745728286.7551565,0.0055082268081605434,-0.02050529420375824,-0.291508287191391,0.33414503931999207,-0.7293773889541626,-9.64192008972168
1745728286.8024,-0.005164868198335171,-0.017112884670495987,-0.2925872504711151,0.43862810730934143,-0.7752243280410767,-9.784525871276855
1745728286.8025558,0.011059574782848358,-0.021213464438915253,-0.29198843240737915,0.4034343361854553,-0.5809144377708435,-9.739956855773926
1745728286.8030434,0.005712547339498997,-0.017903247848153114,-0.2901795506477356,0.43516167998313904,-0.9630879163742065,-9.790716171264648
1745728286.8104553,0.007325062062591314,-0.02444535866379738,-0.29222822189331055,0.39999663829803467,-0.6955012679100037,-9.753288269042969
1745728286.8395083,0.014665752649307251,-0.016081687062978745,-0.29100722074508667,0.36577749252319336,-0.9155093431472778,-9.805630683898926
1745728286.8413491,-0.0033762541133910418,-0.01978450082242489,-0.2915053069591522,0.5476064682006836,-0.8061572909355164,-9.68655776977539
1745728286.8438206,0.01070390921086073,-0.02176329866051674,-0.29009848833084106,0.45527762174606323,-0.8587532043457031,-9.775959968566895
1745728286.8469346,-0.007364942226558924,-0.018914660438895226,-0.2897445261478424,0.5234422087669373,-0.878997802734375,-9.853797912597656
1745728286.8808286,0.005023301113396883,-0.022502915933728218,-0.29407066106796265,0.32055535912513733,-0.6000261902809143,-9.694966316223145
1745728286.8812423,-0.007896468974649906,-0.019865963608026505,-0.2920675277709961,0.49392032623291016,-1.0414540767669678,-9.62487506866455
1745728286.8817346,-0.003517141565680504,-0.02100946567952633,-0.293620765209198,0.333049476146698,-0.5986419916152954,-9.69652271270752
1745728286.8840375,0.00468535115942359,-0.020417211577296257,-0.2921089828014374,0.45124053955078125,-0.9024405479431152,-9.916891098022461
1745728286.8860462,0.00771040003746748,-0.01271992176771164,-0.29420706629753113,0.2624419629573822,-0.8602968454360962,-9.72490119934082
1745728286.9354472,-0.0031464502681046724,-0.02247505821287632,-0.29340606927871704,0.6154723167419434,-0.9214166402816772,-9.57817268371582
1745728286.9450743,-0.00025910651311278343,-0.024321867153048515,-0.28832483291625977,0.353913277387619,-0.8079760670661926,-9.868707656860352
1745728286.946376,-0.002976316260173917,-0.02036723867058754,-0.290067195892334,0.48704153299331665,-1.0561355352401733,-10.035684585571289
1745728286.9501104,-0.0017398294294252992,-0.020153533667325974,-0.2863941788673401,0.2987273335456848,-0.6122207641601562,-9.627771377563477
1745728286.967405,-0.005795166362076998,-0.01655920222401619,-0.288433700799942,0.3965241312980652,-0.9064734578132629,-9.487004280090332
1745728286.9700465,0.0006594842998310924,-0.025503521785140038,-0.289516806602478,0.4734819829463959,-0.5194905400276184,-9.673013687133789
1745728286.972774,0.008028977550566196,-0.019027315080165863,-0.29454976320266724,0.3241651654243469,-0.7679098844528198,-10.070466995239258
1745728286.9748888,-0.00685525219887495,-0.02050081081688404,-0.29515743255615234,0.520474910736084,-0.8006664514541626,-9.794001579284668
1745728286.9774735,0.010807919315993786,-0.018300194293260574,-0.29179009795188904,0.35830187797546387,-0.7940514087677002,-9.474685668945312
1745728287.012892,-0.013333424925804138,-0.02571699023246765,-0.29164913296699524,0.5043264031410217,-1.004607081413269,-9.765399932861328
1745728287.0168245,0.0020924266427755356,-0.021095145493745804,-0.289623886346817,0.4319919943809509,-0.6734763383865356,-10.040678977966309
1745728287.0192702,-0.0036136105190962553,-0.01971236988902092,-0.28681063652038574,0.46925967931747437,-0.951333224773407,-9.855759620666504
1745728287.0223868,0.0030375539790838957,-0.026158234104514122,-0.2888638973236084,0.41807594895362854,-0.5046831369400024,-9.428135871887207
1745728287.0527086,0.005450669676065445,-0.024632534012198448,-0.29018473625183105,0.3843275308609009,-0.8551326990127563,-9.760623931884766
1745728287.056709,0.026317918673157692,-0.020050708204507828,-0.29415735602378845,0.3538181483745575,-0.5586284399032593,-9.681938171386719
1745728287.0634227,0.016815749928355217,-0.019608216360211372,-0.2930173873901367,0.4784265458583832,-1.0498889684677124,-9.825953483581543
1745728287.0651453,0.02139464020729065,-0.021625522524118423,-0.290534645318985,0.33450594544410706,-0.5583573579788208,-9.687383651733398
1745728287.0969598,0.018759986385703087,-0.017953207716345787,-0.2925601601600647,0.4380837380886078,-0.9460399746894836,-9.750595092773438
1745728287.0989294,0.01578214205801487,-0.024480324238538742,-0.2929155230522156,0.4492865204811096,-0.6325629353523254,-9.775964736938477
1745728287.0990798,0.026339858770370483,-0.018922798335552216,-0.2933489680290222,0.29758143424987793,-0.7004665732383728,-9.814493179321289
1745728287.1004088,0.011171320453286171,-0.022749166935682297,-0.29459577798843384,0.597186267375946,-0.8743941187858582,-9.720635414123535
1745728287.1381125,0.029835790395736694,-0.021917639300227165,-0.2924046516418457,0.32571396231651306,-0.6694085597991943,-9.742776870727539
1745728287.1398253,0.015597748570144176,-0.020884238183498383,-0.29224199056625366,0.4418662190437317,-0.9722746014595032,-9.85139274597168
1745728287.1422317,0.026817714795470238,-0.0228351391851902,-0.29305440187454224,0.3415347635746002,-0.6799896955490112,-9.660463333129883
1745728287.14407,0.022451089695096016,-0.015594923868775368,-0.29048752784729004,0.429476797580719,-0.8768804669380188,-9.64952564239502
1745728287.1442106,0.02080194279551506,-0.02582700178027153,-0.29218119382858276,0.5063768625259399,-0.7328612208366394,-9.705231666564941
1745728287.183432,0.024991657584905624,-0.019000554457306862,-0.2899131774902344,0.3764585852622986,-0.8457000851631165,-9.9404878616333
1745728287.1848118,0.009935234673321247,-0.022161435335874557,-0.2929408848285675,0.4793170094490051,-0.8858658671379089,-9.830615997314453
1745728287.18625,0.024675432592630386,-0.02099277637898922,-0.29050254821777344,0.31697553396224976,-0.7518097162246704,-9.61012077331543
1745728287.1891458,0.00267224945127964,-0.02291388437151909,-0.2891612946987152,0.5102862119674683,-0.9576188325881958,-9.727999687194824
1745728287.225418,0.017192823812365532,-0.02528775855898857,-0.2882615923881531,0.352426677942276,-0.6807659864425659,-9.922895431518555
1745728287.2259634,0.01995457522571087,-0.015618963167071342,-0.2894884943962097,0.4014248251914978,-0.8095991015434265,-9.803565979003906
1745728287.2281165,0.015110582113265991,-0.02380347065627575,-0.29142946004867554,0.3978999853134155,-0.47199541330337524,-9.4144926071167
1745728287.2310543,0.028845980763435364,-0.02198781818151474,-0.29095837473869324,0.4438095986843109,-0.9089722633361816,-9.702033042907715
1745728287.2693026,0.030507802963256836,-0.015884296968579292,-0.28947463631629944,0.24092614650726318,-0.6674634218215942,-9.502649307250977
1745728287.2703714,0.025856023654341698,-0.019944079220294952,-0.2907336950302124,0.5796911716461182,-0.9301521182060242,-9.681167602539062
1745728287.270415,0.02387090027332306,-0.022367756813764572,-0.28983014822006226,0.41999825835227966,-0.6360906958580017,-10.00218677520752
1745728287.2721539,0.031793300062417984,-0.016845230013132095,-0.2889476418495178,0.48705798387527466,-1.021721363067627,-10.032362937927246
1745728287.273436,0.0181813333183527,-0.022188160568475723,-0.2882528603076935,0.3823055624961853,-0.6714762449264526,-9.581570625305176
1745728287.312695,0.02824683114886284,-0.01744438335299492,-0.28713274002075195,0.30293288826942444,-0.8913238644599915,-9.535192489624023
1745728287.314065,0.017317956313490868,-0.019836843013763428,-0.2894575595855713,0.5104137063026428,-0.777705729007721,-9.68568229675293
1745728287.3167157,0.030013281852006912,-0.017388682812452316,-0.2895435690879822,0.30661970376968384,-0.6902172565460205,-9.90964412689209
1745728287.3167992,0.015821058303117752,-0.017713496461510658,-0.2914636731147766,0.5619837045669556,-0.8434799313545227,-9.786491394042969
1745728287.3565705,0.0297849178314209,-0.020053425803780556,-0.29163438081741333,0.35887667536735535,-0.6376988291740417,-9.617992401123047
1745728287.360427,0.022716578096151352,-0.01551480870693922,-0.29092130064964294,0.37229758501052856,-0.9914466142654419,-9.792216300964355
1745728287.3616133,0.02278061956167221,-0.02017917111515999,-0.28960078954696655,0.4652995467185974,-0.6890525817871094,-9.831555366516113
1745728287.3640726,0.02821105159819126,-0.014328892342746258,-0.287055641412735,0.3728148937225342,-0.9468382000923157,-9.84693717956543
1745728287.3982787,0.01891132816672325,-0.019338132813572884,-0.288200318813324,0.4638293385505676,-0.7021204233169556,-9.62934684753418
1745728287.4006789,0.03129992261528969,-0.019235696643590927,-0.289061576128006,0.36821529269218445,-0.7566614151000977,-9.74276065826416
1745728287.406944,0.02955600991845131,-0.017272328957915306,-0.28558045625686646,0.4529004693031311,-0.9954431653022766,-9.777521133422852
1745728287.4120054,0.01732737571001053,-0.02162892371416092,-0.2860042452812195,0.49151021242141724,-0.7017643451690674,-9.762321472167969
1745728287.440524,0.030876850709319115,-0.01481907069683075,-0.2871289849281311,0.3594982922077179,-0.9255551099777222,-9.828972816467285
1745728287.4422216,0.012832718901336193,-0.016918260604143143,-0.28628313541412354,0.4673619866371155,-0.9104251861572266,-9.662126541137695
1745728287.4433732,0.023599669337272644,-0.018187299370765686,-0.28624802827835083,0.2974120080471039,-0.6440966725349426,-9.66871452331543
1745728287.4450688,0.006958048790693283,-0.02011328563094139,-0.28903189301490784,0.5700403451919556,-0.9743407964706421,-9.898189544677734
1745728287.4459612,0.0194198377430439,-0.019518906250596046,-0.287802129983902,0.336726576089859,-0.5572137832641602,-9.783538818359375
1745728287.4846237,0.020382864400744438,-0.016000989824533463,-0.29044073820114136,0.41668185591697693,-0.9595965147018433,-9.697183609008789
1745728287.4852393,0.011197558604180813,-0.026498716324567795,-0.2896037995815277,0.46994680166244507,-0.7669095993041992,-9.60119915008545
1745728287.4870684,0.028075437992811203,-0.013725979253649712,-0.2883744239807129,0.3272548019886017,-0.8088281750679016,-9.814112663269043
1745728287.4879038,0.013412031345069408,-0.019701963290572166,-0.28788065910339355,0.5238502025604248,-0.9417465329170227,-9.775857925415039
1745728287.5337555,0.02597096562385559,-0.017598967999219894,-0.2868201732635498,0.3011327385902405,-0.7163349986076355,-9.635581016540527
1745728287.5338836,0.009852714836597443,-0.019495371729135513,-0.2860325276851654,0.5241117477416992,-0.9938357472419739,-9.77184772491455
1745728287.533976,0.024003438651561737,-0.023968052119016647,-0.2863297164440155,0.33094772696495056,-0.5723925828933716,-9.842629432678223
1745728287.534049,0.012691555544734001,-0.0157465822994709,-0.2896353602409363,0.3903285264968872,-0.9586858749389648,-9.797431945800781
1745728287.5700576,0.010549271479249,-0.023526817560195923,-0.2883780002593994,0.48118701577186584,-0.7601465582847595,-9.637174606323242
1745728287.5732527,0.02062172070145607,-0.016382772475481033,-0.2884799838066101,0.40325823426246643,-0.912641167640686,-9.71388053894043
1745728287.5737312,-0.0005197731661610305,-0.02417714335024357,-0.28990253806114197,0.49659451842308044,-0.8153195381164551,-9.768095970153809
1745728287.5753198,0.022700387984514236,-0.018330909311771393,-0.28653672337532043,0.36949291825294495,-0.8370348811149597,-9.747015953063965
1745728287.5769973,0.003399226814508438,-0.016264840960502625,-0.28740978240966797,0.47669076919555664,-0.8628004789352417,-9.64954662322998
1745728287.616577,0.02027146704494953,-0.021082382649183273,-0.28576475381851196,0.38013866543769836,-0.6773093938827515,-9.696431159973145
1745728287.6269445,0.007080008275806904,-0.024076929315924644,-0.28606539964675903,0.30614709854125977,-0.6207538843154907,-9.811859130859375
1745728287.6270163,0.012445012107491493,-0.017394542694091797,-0.2849716544151306,0.43803301453590393,-0.9772242307662964,-9.880878448486328
1745728287.6281693,0.002503475872799754,-0.022762790322303772,-0.2838395833969116,0.3588833212852478,-0.7035349607467651,-9.661958694458008
1745728287.655475,0.025488313287496567,-0.01711585745215416,-0.2858661711215973,0.3280198276042938,-0.75208580493927,-9.652318954467773
1745728287.65841,-0.00396388303488493,-0.023309115320444107,-0.28683871030807495,0.5143920183181763,-0.8680419921875,-9.770881652832031
1745728287.6592202,0.01833892986178398,-0.019512725993990898,-0.28527331352233887,0.33033838868141174,-0.7523635029792786,-9.82331657409668
1745728287.661359,0.005335613153874874,-0.017454858869314194,-0.2868383824825287,0.5185295939445496,-1.0019572973251343,-9.695444107055664
1745728287.6996725,0.005893005058169365,-0.021079501137137413,-0.2844216823577881,0.28698819875717163,-0.7305665016174316,-9.61422348022461
1745728287.7021267,0.00015697869821451604,-0.014762374572455883,-0.2864108681678772,0.4935380816459656,-1.0315325260162354,-9.78730297088623
1745728287.705517,0.002702290890738368,-0.017024513334035873,-0.28396186232566833,0.475654274225235,-0.6122262477874756,-9.752601623535156
1745728287.7158778,0.007792054675519466,-0.015466904267668724,-0.2860748767852783,0.322842001914978,-0.837983250617981,-9.7797212600708
1745728287.7193022,0.0008296101586893201,-0.021576955914497375,-0.2866191267967224,0.48922720551490784,-0.7661049365997314,-9.730138778686523
1745728287.7427926,0.013315612450242043,-0.018451634794473648,-0.285523384809494,0.3283117711544037,-0.7925455570220947,-9.843694686889648
1745728287.7438405,0.001796723110601306,-0.02024618536233902,-0.2835802435874939,0.464463472366333,-0.9342085719108582,-9.802422523498535
1745728287.7461088,0.005886552389711142,-0.022237248718738556,-0.2856917977333069,0.34588494896888733,-0.7380533218383789,-9.741229057312012
1745728287.748138,0.015834275633096695,-0.02176717482507229,-0.28126218914985657,0.35977086424827576,-0.7463347315788269,-9.86902904510498
1745728287.7934353,0.003050092374905944,-0.014925636351108551,-0.28448858857154846,0.43127480149269104,-0.9602084159851074,-9.901060104370117
1745728287.7935526,0.0009131875121966004,-0.020097944885492325,-0.283071368932724,0.3306775391101837,-0.6102714538574219,-9.64035415649414
1745728287.7936075,0.010249869897961617,-0.014385780319571495,-0.2833079993724823,0.4494544565677643,-0.980438232421875,-9.671567916870117
1745728287.7937257,0.0013563425745815039,-0.0202791728079319,-0.28379136323928833,0.49341273307800293,-0.6346575021743774,-9.763477325439453
1745728287.8279142,0.018914341926574707,-0.017060235142707825,-0.28470033407211304,0.3504640460014343,-0.7836247682571411,-9.881250381469727
1745728287.8316226,0.0030258665792644024,-0.019128387793898582,-0.28263673186302185,0.45106834173202515,-0.9329313039779663,-9.705056190490723
1745728287.8320284,0.019054118543863297,-0.014116558246314526,-0.28431227803230286,0.20985105633735657,-0.567485511302948,-9.601604461669922
1745728287.8341715,0.00939369946718216,-0.016481127589941025,-0.28493019938468933,0.5299748182296753,-0.9160763621330261,-9.727609634399414
1745728287.8372414,0.0158523079007864,-0.01934678480029106,-0.28439030051231384,0.38443711400032043,-0.5884641408920288,-9.846612930297852
1745728287.8722277,0.018957363441586494,-0.01608729548752308,-0.28540337085723877,0.4820508360862732,-1.03401780128479,-9.927861213684082
1745728287.8723397,0.005199472885578871,-0.02234772965312004,-0.28220799565315247,0.3899276852607727,-0.7271242141723633,-9.677129745483398
1745728287.8727481,0.012631806544959545,-0.015140186063945293,-0.2836208641529083,0.30452674627304077,-0.9099028706550598,-9.625189781188965
1745728287.876575,-0.0031222954858094454,-0.017271462827920914,-0.2818950116634369,0.4867154657840729,-0.8383851051330566,-9.699207305908203
1745728287.9154966,0.018646666780114174,-0.014588793739676476,-0.28299278020858765,0.3066859543323517,-0.663908839225769,-9.848562240600586
1745728287.9190755,-0.003987868316471577,-0.017796393483877182,-0.2831922173500061,0.5175405144691467,-0.8717619180679321,-9.770379066467285
1745728287.9206164,0.015315200202167034,-0.01752135157585144,-0.28428706526756287,0.30092570185661316,-0.613294780254364,-9.61795425415039
1745728287.9236233,0.005872353911399841,-0.013464312069118023,-0.28664764761924744,0.3625183403491974,-0.9514387249946594,-9.703359603881836
1745728287.9242136,0.009653842076659203,-0.020595688372850418,-0.2847145199775696,0.49411526322364807,-0.6992107629776001,-9.803643226623535
1745728287.958782,0.007815998047590256,-0.015354394912719727,-0.2828598618507385,0.3928493559360504,-0.9414669871330261,-9.904698371887207
1745728287.9601474,0.0003674650506582111,-0.01736743375658989,-0.2830972671508789,0.4909968972206116,-0.8966275453567505,-9.74559497833252
1745728287.960572,0.011864788830280304,-0.01677750051021576,-0.28063708543777466,0.3140231966972351,-0.7505151629447937,-9.669831275939941
1745728287.963291,-0.00521849375218153,-0.019080692902207375,-0.28280752897262573,0.36160025000572205,-0.7127741575241089,-9.777124404907227
1745728288.0014946,0.011717366054654121,-0.015002417378127575,-0.28326815366744995,0.3809618055820465,-0.850316047668457,-9.783960342407227
1745728288.002626,-0.008731204085052013,-0.01969614252448082,-0.2787948250770569,0.5277785062789917,-0.9174092411994934,-9.766936302185059
1745728288.0042279,0.016496911644935608,-0.019390057772397995,-0.2799525856971741,0.3232190012931824,-0.6047456860542297,-9.754022598266602
1745728288.006271,-0.006928327493369579,-0.015972182154655457,-0.28227120637893677,0.44818228483200073,-0.9694344401359558,-9.820749282836914
1745728288.043115,0.0038798425812274218,-0.019136667251586914,-0.2826663851737976,0.2800285518169403,-0.5829650163650513,-9.586956977844238
1745728288.0464897,0.00313284108415246,-0.012450234033167362,-0.2838955521583557,0.4242326617240906,-0.872120201587677,-9.628802299499512
1745728288.0489619,-0.007203561253845692,-0.021266862750053406,-0.2850746810436249,0.4090730547904968,-0.6930521726608276,-9.786088943481445
1745728288.0507934,0.005581746809184551,-0.01362704299390316,-0.2859874665737152,0.39927011728286743,-0.8699548840522766,-9.931572914123535
1745728288.0533218,-0.005418404005467892,-0.012333459220826626,-0.28123193979263306,0.4856894612312317,-0.7894598841667175,-9.687685012817383
1745728288.087169,0.00750130508095026,-0.01864107884466648,-0.28340673446655273,0.31742793321609497,-0.6749659776687622,-9.628262519836426
1745728288.0913165,-0.0004789428785443306,-0.01603221893310547,-0.2822701036930084,0.5561361312866211,-0.9057466387748718,-9.825567245483398
