timestamp,angular_vel_x,angular_vel_y,angular_vel_z,linear_acc_x,linear_acc_y,linear_acc_z
1745654032.634056,-0.14233443140983582,-0.015204062685370445,0.3449636697769165,0.703365683555603,0.7944959998130798,-9.704480171203613
1745654032.6356127,-0.14342889189720154,-0.01154910959303379,0.3474056124687195,0.5405694246292114,0.6376126408576965,-9.770065307617188
1745654032.6405509,-0.13611748814582825,-0.020431037992239,0.34830665588378906,0.7410045862197876,0.6742812395095825,-9.70881175994873
1745654032.644386,-0.13362452387809753,-0.016743505373597145,0.3500920236110687,0.5867990851402283,0.7991400957107544,-9.773439407348633
1745654032.6444197,-0.13380467891693115,-0.015109047293663025,0.3527640700340271,0.7103679776191711,0.6375317573547363,-9.831405639648438
1745654032.6973596,-0.12134990841150284,-0.02158009074628353,0.3536882996559143,0.5208650827407837,0.8805772662162781,-9.752581596374512
1745654032.6974313,-0.11761093139648438,-0.014769492670893669,0.3538595736026764,0.5920944213867188,0.6690253019332886,-9.715847969055176
1745654032.6974916,-0.11524929851293564,-0.021411066874861717,0.35412776470184326,0.6491402983665466,0.8230553865432739,-9.723685264587402
1745654032.7044663,-0.1168794184923172,-0.017195140942931175,0.3564635217189789,0.5250342488288879,0.7044727802276611,-9.880319595336914
1745654032.7249162,-0.11011381447315216,-0.021272879093885422,0.35537177324295044,0.7408034205436707,0.6254132986068726,-9.712139129638672
1745654032.724965,-0.11540434509515762,-0.020171111449599266,0.3566211462020874,0.5641052722930908,0.7257400155067444,-9.728376388549805
1745654032.7258317,-0.11749596893787384,-0.01909608021378517,0.3591175973415375,0.6563934683799744,0.5987443327903748,-9.820286750793457
1745654032.725922,-0.11761681735515594,-0.02382655069231987,0.3613179326057434,0.6041320562362671,0.7147964239120483,-9.839662551879883
1745654032.7293339,-0.08096163719892502,-0.038278523832559586,0.3787766098976135,0.6469870805740356,0.9516273736953735,-9.878023147583008
1745654032.7707956,-0.06843350827693939,-0.027878429740667343,0.3798103928565979,0.4786502718925476,0.8485573530197144,-9.716630935668945
1745654032.7715533,-0.0795702338218689,-0.035842783749103546,0.38167449831962585,0.6599975824356079,0.9040811657905579,-9.573092460632324
1745654032.7715955,-0.07418521493673325,-0.03770997002720833,0.3809328079223633,0.4959728717803955,0.8454148173332214,-9.844218254089355
1745654032.7723236,-0.06617026031017303,-0.0328800193965435,0.37931185960769653,0.661425769329071,0.9217645525932312,-9.833907127380371
1745654032.8140526,-0.08146031200885773,-0.03475680574774742,0.37977057695388794,0.5165030360221863,0.8919459581375122,-9.737960815429688
1745654032.8141258,-0.06609873473644257,-0.03625877574086189,0.3797394633293152,0.5656561851501465,0.8421524167060852,-9.669150352478027
1745654032.8142097,-0.0683361068367958,-0.04055152088403702,0.3814639151096344,0.6768280267715454,0.9129005670547485,-9.727818489074707
1745654032.8142653,-0.0682067945599556,-0.030697211623191833,0.3813205063343048,0.429340660572052,0.9174801707267761,-9.905993461608887
1745654032.8488204,-0.06344661861658096,-0.034783199429512024,0.38334211707115173,0.6529967188835144,0.7869426608085632,-9.638422012329102
1745654032.8633254,-0.06614302098751068,-0.03854416310787201,0.3813733756542206,0.5022430419921875,1.0484063625335693,-9.586992263793945
1745654032.8633928,-0.06107775494456291,-0.034526277333498,0.38181272149086,0.6162152886390686,0.8148713111877441,-9.832486152648926
1745654032.863452,-0.06733144819736481,-0.03900112211704254,0.382830411195755,0.553280234336853,0.9343055486679077,-9.892351150512695
1745654032.863491,-0.062410108745098114,-0.03204908221960068,0.38092729449272156,0.4715210497379303,0.7846180200576782,-9.682798385620117
1745654032.9085333,-0.06860161572694778,-0.037197280675172806,0.38066378235816956,0.6878348588943481,0.8783696293830872,-9.49935245513916
1745654032.9085822,-0.0763247013092041,-0.036971986293792725,0.38270169496536255,0.4481385350227356,0.8330724835395813,-9.897787094116211
1745654032.9086256,-0.06878740340471268,-0.039232559502124786,0.3807753026485443,0.698401153087616,0.8491827845573425,-9.870588302612305
1745654032.9090164,-0.07418670505285263,-0.035217855125665665,0.38295286893844604,0.4942444860935211,0.9786083102226257,-9.631982803344727
1745654032.9335437,-0.06689125299453735,-0.032574038952589035,0.3812360465526581,0.5135291218757629,0.912802517414093,-9.575645446777344
1745654032.936431,-0.06474167108535767,-0.04201241210103035,0.383725106716156,0.6003376245498657,0.9587240219116211,-9.773857116699219
1745654032.9381077,-0.06381778419017792,-0.034250397235155106,0.3839014768600464,0.48046931624412537,0.9913709759712219,-9.898513793945312
1745654032.9403133,-0.054503314197063446,-0.03364510089159012,0.3808799684047699,0.666702389717102,0.9969924092292786,-9.624238014221191
1745654032.9432495,-0.06010241061449051,-0.03948250412940979,0.38369837403297424,0.409209668636322,1.0471338033676147,-9.713720321655273
1745654033.0047884,-0.058677613735198975,-0.04437101259827614,0.38101598620414734,0.7076109647750854,0.8909978866577148,-9.70915699005127
1745654033.009746,-0.059828124940395355,-0.034020014107227325,0.3802206516265869,0.4407638907432556,0.9890726208686829,-9.80085563659668
1745654033.0098252,-0.06465456634759903,-0.035204894840717316,0.38257545232772827,0.5804585218429565,0.8492826223373413,-9.6760892868042
1745654033.0099995,-0.056117307394742966,-0.04195110872387886,0.38105860352516174,0.4559862017631531,0.9822372198104858,-9.648416519165039
1745654033.025845,-0.06125647574663162,-0.03448486328125,0.38348397612571716,0.5814299583435059,0.9504860043525696,-9.713272094726562
1745654033.0268536,-0.056640248745679855,-0.0395081453025341,0.3821693956851959,0.5597589015960693,1.0000332593917847,-9.767412185668945
1745654033.0269048,-0.05622124671936035,-0.03446041792631149,0.3822029232978821,0.4103171229362488,0.9545801877975464,-9.75659465789795
1745654033.0353067,-0.049432843923568726,-0.036866337060928345,0.38198909163475037,0.6917517185211182,0.9132645726203918,-9.670354843139648
1745654033.0790513,-0.055612754076719284,-0.03818526864051819,0.3808111548423767,0.4697040021419525,1.1115505695343018,-9.745416641235352
1745654033.0791512,-0.05609581619501114,-0.03781825304031372,0.3810739815235138,0.6019464731216431,0.8331319093704224,-9.810606956481934
1745654033.0792031,-0.04963677376508713,-0.041423480957746506,0.3799208998680115,0.5421451330184937,1.0744707584381104,-9.715398788452148
1745654033.0792615,-0.054356563836336136,-0.03015250340104103,0.38092002272605896,0.5047684907913208,0.9158552289009094,-9.688751220703125
1745654033.0793169,-0.05558764934539795,-0.038766488432884216,0.37956976890563965,0.5318222045898438,0.935970664024353,-9.64903450012207
1745654033.1221445,-0.02611451782286167,-0.034473806619644165,0.3731076419353485,0.5436114072799683,1.0368448495864868,-9.608850479125977
1745654033.1236355,-0.029049530625343323,-0.03653506934642792,0.3726150095462799,0.33655136823654175,1.053640604019165,-9.672872543334961
1745654033.123782,-0.018954619765281677,-0.03319051116704941,0.37144985795021057,0.6082968711853027,1.0460455417633057,-9.767580032348633
1745654033.1238632,-0.029781702905893326,-0.03546912595629692,0.3688969612121582,0.46820157766342163,1.1068462133407593,-9.880107879638672
1745654033.1669996,-0.017810970544815063,-0.03396715968847275,0.3686541020870209,0.4889880120754242,0.9511831402778625,-9.685447692871094
1745654033.167239,-0.02390073798596859,-0.03856086730957031,0.36721086502075195,0.6200965642929077,1.061455488204956,-9.563865661621094
1745654033.167328,-0.022751452401280403,-0.031450726091861725,0.36823326349258423,0.40135541558265686,0.9343160390853882,-9.91515827178955
1745654033.1677225,-0.025815706700086594,-0.03571321815252304,0.3708004653453827,0.5730992555618286,0.9116973876953125,-9.803043365478516
1745654033.1678338,-0.018603172153234482,-0.035036999732255936,0.3694680333137512,0.4516417384147644,1.0507524013519287,-9.544305801391602
1745654033.2089114,-0.023757141083478928,-0.03172459453344345,0.3691122233867645,0.5607489347457886,1.0523842573165894,-9.66101360321045
1745654033.209027,-0.022012948989868164,-0.037951551377773285,0.3692883253097534,0.45947813987731934,1.1488149166107178,-9.94456672668457
1745654033.209088,-0.010396243073046207,-0.03255586698651314,0.3664024770259857,0.424489825963974,1.0330817699432373,-9.789586067199707
1745654033.2093587,-0.012317742221057415,-0.03404722735285759,0.36583074927330017,0.5531441569328308,1.1156467199325562,-9.503645896911621
1745654033.2400174,-0.01947295293211937,-0.032403577119112015,0.3641330599784851,0.3545624613761902,0.9807136654853821,-9.76290225982666
1745654033.241153,-0.00985991396009922,-0.0354243628680706,0.36738303303718567,0.5986989736557007,0.8873761892318726,-9.808589935302734
1745654033.2449188,-0.014953777194023132,-0.03214717656373978,0.3654310703277588,0.4604855179786682,1.1291275024414062,-9.678438186645508
1745654033.2453392,-0.017126360908150673,-0.03014722838997841,0.3652624487876892,0.4768856167793274,0.8902925252914429,-9.685834884643555
1745654033.27915,-0.009687447920441628,-0.0378752127289772,0.36533594131469727,0.49804234504699707,1.0198028087615967,-9.709566116333008
1745654033.28067,-0.009387867525219917,-0.026749754324555397,0.36545997858047485,0.45762109756469727,1.0218660831451416,-9.73523998260498
1745654033.2824004,-0.019355371594429016,-0.0321320965886116,0.3661213219165802,0.5546751618385315,0.8977429270744324,-9.785645484924316
1745654033.283771,-0.003969901241362095,-0.032822154462337494,0.3655427098274231,0.3785625994205475,1.1450293064117432,-9.727279663085938
1745654033.286235,-0.014082403853535652,-0.030747300013899803,0.3628883957862854,0.5325630307197571,0.9424039721488953,-9.705072402954102
1745654033.3267095,-0.004662009887397289,-0.03365914896130562,0.3628728687763214,0.40239208936691284,1.1296831369400024,-9.772658348083496
1745654033.3267777,-0.010435779578983784,-0.03326348215341568,0.3615782856941223,0.5415765047073364,0.9650115966796875,-9.879351615905762
1745654033.3290982,0.0030014123767614365,-0.03132498636841774,0.36261793971061707,0.34142976999282837,1.0884220600128174,-9.756200790405273
1745654033.3356335,-0.0009025498293340206,-0.03155892714858055,0.3602864742279053,0.546709418296814,0.9939485788345337,-9.513468742370605
1745654033.3703067,0.001364548341371119,-0.030774211511015892,0.3626074194908142,0.4516032636165619,1.070204496383667,-9.762075424194336
1745654033.385441,0.010179591365158558,-0.026121240109205246,0.3595435619354248,0.445415735244751,1.1198761463165283,-9.908544540405273
1745654033.385685,0.006882755551487207,-0.03476428613066673,0.360823392868042,0.5067614316940308,0.9653699994087219,-9.721445083618164
1745654033.385816,0.01822732575237751,-0.026244577020406723,0.3606955111026764,0.3510354459285736,1.129357099533081,-9.576669692993164
1745654033.4126804,-0.0012702371459454298,-0.03141533583402634,0.35783499479293823,0.5358623266220093,0.8841840624809265,-9.73468017578125
1745654033.4128046,0.01628805324435234,-0.029880505055189133,0.35900476574897766,0.4038766324520111,0.9616644978523254,-9.858591079711914
1745654033.4128437,0.005851198919117451,-0.024228936061263084,0.35702061653137207,0.5664473176002502,0.9620727300643921,-9.65782642364502
1745654033.418994,0.002848121104761958,-0.0332862064242363,0.358551949262619,0.4039202332496643,0.9816538691520691,-9.689473152160645
1745654033.4190636,0.010600736364722252,-0.028375986963510513,0.3556848168373108,0.37338998913764954,0.8893882632255554,-9.764607429504395
1745654033.4564772,0.005693914834409952,-0.026491720229387283,0.3586212396621704,0.5802972316741943,1.0131852626800537,-9.63631820678711
1745654033.4569333,0.017011966556310654,-0.026882469654083252,0.34889495372772217,0.5421379804611206,0.9332602620124817,-9.646866798400879
1745654033.4607368,0.02277582883834839,-0.023234445601701736,0.34660059213638306,0.3253738284111023,1.068403959274292,-9.718873977661133
1745654033.4647605,0.015866011381149292,-0.02658512257039547,0.3464607000350952,0.5326365828514099,0.7731162905693054,-9.776520729064941
1745654033.496535,0.02370012179017067,-0.025504734367132187,0.34794482588768005,0.4183846116065979,0.9961387515068054,-9.714986801147461
1745654033.4967968,0.013920426368713379,-0.020524732768535614,0.3475310802459717,0.5220832228660583,0.8348215818405151,-9.693628311157227
1745654033.500521,0.01668701134622097,-0.032154034823179245,0.34773725271224976,0.46412378549575806,0.9917308688163757,-9.762372970581055
1745654033.5006285,0.021352151408791542,-0.022817077115178108,0.34749454259872437,0.41564637422561646,0.8914768099784851,-9.842687606811523
1745654033.6503985,0.018920201808214188,-0.02413327619433403,0.3502572178840637,0.569107711315155,0.9020575284957886,-9.621118545532227
1745654033.6504803,0.0233308095484972,-0.0248571690171957,0.34903204441070557,0.31850355863571167,0.9361982345581055,-9.704512596130371
1745654033.650546,0.023413892835378647,-0.028146570548415184,0.3488880693912506,0.5341023206710815,0.9516528844833374,-9.770919799804688
1745654033.6509833,0.029091283679008484,-0.028013471513986588,0.3508434295654297,0.42174679040908813,0.998321533203125,-9.835826873779297
1745654033.65104,0.03276469558477402,-0.021776249632239342,0.34976810216903687,0.44366544485092163,0.9449906349182129,-9.750106811523438
1745654033.6528165,0.022691044956445694,-0.030216971412301064,0.3479033410549164,0.45076650381088257,0.9076988101005554,-9.667505264282227
1745654033.6528978,0.03702922537922859,-0.02568710967898369,0.346782386302948,0.41973280906677246,0.8545810580253601,-9.706254959106445
1745654033.6532035,0.02252008393406868,-0.02683981880545616,0.3500126004219055,0.592470645904541,0.8840669393539429,-9.73079776763916
1745654033.6532583,0.025009486824274063,-0.029722854495048523,0.34824544191360474,0.33784499764442444,0.8794218897819519,-9.863100051879883
1745654033.6561167,0.029508525505661964,-0.0264421459287405,0.35138580203056335,0.5503407120704651,0.8019428253173828,-9.642918586730957
1745654033.6561785,0.023561716079711914,-0.026307815685868263,0.35180991888046265,0.4322558343410492,0.983134388923645,-9.597522735595703
1745654033.6572654,0.025309864431619644,-0.02377629093825817,0.3524090647697449,0.4426914155483246,0.7876667976379395,-9.835287094116211
1745654033.6582525,0.028106337413191795,-0.03204408660531044,0.3510332405567169,0.4911022186279297,1.0376594066619873,-9.768512725830078
1745654033.667458,0.03211554139852524,-0.021946202963590622,0.35036569833755493,0.356720894575119,0.8545646667480469,-9.7313232421875
1745654033.6726565,0.025320405140519142,-0.025146573781967163,0.35167157649993896,0.5041770935058594,0.8923578262329102,-9.613685607910156
1745654033.6766918,0.026536930352449417,-0.027856912463903427,0.35097402334213257,0.34946033358573914,0.8375362157821655,-9.740862846374512
1745654033.6781027,0.02361331321299076,-0.03062448464334011,0.35008302330970764,0.5266388058662415,0.8728080987930298,-9.638949394226074
1745654033.682918,0.021461246535182,-0.01760939694941044,0.35346540808677673,0.36389800906181335,0.8315192461013794,-9.7576904296875
1745654033.7105088,0.016436047852039337,-0.02274293825030327,0.35297247767448425,0.502131998538971,0.7638556361198425,-9.754364013671875
1745654033.7127435,0.023446565493941307,-0.026897063478827477,0.35335901379585266,0.35113993287086487,0.9848319888114929,-9.701833724975586
1745654033.7170215,0.020610835403203964,-0.023177022114396095,0.3525387644767761,0.5475556254386902,0.7806336879730225,-9.7731351852417
1745654033.717104,0.01674477942287922,-0.02549278736114502,0.3535395562648773,0.4107794761657715,0.9480701684951782,-9.822845458984375
1745654033.7541087,0.019086062908172607,-0.02255302108824253,0.35383206605911255,0.4146210253238678,0.7512738704681396,-9.759820938110352
1745654033.7604935,0.018488939851522446,-0.028506487607955933,0.35214194655418396,0.5420389175415039,0.8581001162528992,-9.628032684326172
1745654033.7680159,0.011996934190392494,-0.019674647599458694,0.3541701138019562,0.3640763759613037,0.8260370492935181,-9.809075355529785
1745654033.7712746,0.01078643836081028,-0.030538763850927353,0.3557315170764923,0.5189695358276367,0.7731512784957886,-9.814077377319336
1745654033.776601,0.017444437369704247,-0.024679038673639297,0.3555411994457245,0.3869202136993408,0.9007073640823364,-9.705087661743164
1745654033.8039644,0.009107740595936775,-0.020622659474611282,0.35435327887535095,0.5125876665115356,0.7935815453529358,-9.644364356994629
1745654033.8041077,0.012377968057990074,-0.026885654777288437,0.3559942841529846,0.40740424394607544,0.8326135873794556,-9.788272857666016
1745654033.8134503,-0.004433476831763983,-0.02187689021229744,0.3534253239631653,0.26491063833236694,0.9942081570625305,-9.658323287963867
1745654033.8141806,0.002021104097366333,-0.023627208545804024,0.35231903195381165,0.43233761191368103,0.7027680277824402,-9.714262008666992
1745654033.8433566,0.00270778127014637,-0.023870984092354774,0.35221177339553833,0.5250424146652222,0.9290212392807007,-9.745870590209961
1745654033.844575,-0.007130391895771027,-0.01763429492712021,0.3534122705459595,0.3633979856967926,0.7634679675102234,-9.88292121887207
1745654033.8483305,-0.009437013417482376,-0.02719559334218502,0.35448628664016724,0.569510817527771,0.712925374507904,-9.723051071166992
1745654033.8511014,-6.719669181620702e-05,-0.023372797295451164,0.35488370060920715,0.3980518877506256,0.8999069929122925,-9.65302848815918
1745654033.8919003,-0.02002633735537529,-0.017095115035772324,0.3559384346008301,0.49501389265060425,0.773239016532898,-9.737165451049805
1745654033.8920932,-0.007014235947281122,-0.024673573672771454,0.3546904921531677,0.35666924715042114,0.8696778416633606,-9.793889045715332
1745654033.8922536,-0.003358345478773117,-0.02050897851586342,0.3559727072715759,0.4419287145137787,1.009639024734497,-9.688394546508789
1745654033.8923674,-0.0043296595104038715,-0.02410341426730156,0.35449719429016113,0.43760108947753906,0.9355887174606323,-9.73231315612793
1745654033.9261088,0.004267938435077667,-0.016796741634607315,0.35525816679000854,0.2998400032520294,0.9473026990890503,-9.812803268432617
1745654033.9389668,0.0024161492474377155,-0.024870531633496284,0.352939635515213,0.5073386430740356,0.7762425541877747,-9.6907958984375
1745654033.9390538,0.013321936130523682,-0.021413911134004593,0.35435357689857483,0.3905203640460968,0.9489563703536987,-9.6777982711792
1745654033.9391031,-0.003659579437226057,-0.02062132954597473,0.3535957932472229,0.5300760865211487,0.7094524502754211,-9.82221794128418
1745654033.9397032,0.005224114749580622,-0.026915213093161583,0.3551415801048279,0.40146932005882263,0.8514084815979004,-9.854116439819336
1745654033.974037,0.0008825687691569328,-0.018653597682714462,0.35323038697242737,0.4506411552429199,0.7393221855163574,-9.668272018432617
1745654033.976611,-0.006352389696985483,-0.020361540839076042,0.3589266240596771,0.48760443925857544,0.809457004070282,-9.581232070922852
1745654033.981351,-0.004106162581592798,-0.021368132904171944,0.35579824447631836,0.36119261384010315,0.8817636370658875,-9.879343032836914
1745654033.9856644,0.001352194813080132,-0.032037489116191864,0.35023730993270874,0.4681074023246765,1.0804427862167358,-9.896646499633789
1745654034.0167706,0.012265329249203205,-0.022441744804382324,0.34386324882507324,0.09425860643386841,1.193886399269104,-9.7682466506958
1745654034.0169668,0.010916860774159431,-0.026856565847992897,0.3377566635608673,0.1193726509809494,1.1215956211090088,-9.550189971923828
1745654034.0170233,0.024545002728700638,-0.03832883760333061,0.33372196555137634,0.045793432742357254,0.8937712907791138,-9.703018188476562
1745654034.0263863,0.011662835255265236,-0.03161342069506645,0.3329921364784241,0.2799453139305115,0.32087865471839905,-10.196527481079102
1745654034.057607,0.007570269517600536,-0.02593841589987278,0.3278016448020935,0.37712040543556213,0.5405037999153137,-9.58936595916748
1745654034.0613768,-0.031023327261209488,-0.03680885583162308,0.3272404074668884,0.23583686351776123,0.5978908538818359,-9.480669975280762
1745654034.0703158,-0.04494501277804375,-0.03823200613260269,0.3228372633457184,0.29083460569381714,0.6043663620948792,-9.876530647277832
1745654034.0759673,-0.03030313178896904,-0.036491554230451584,0.31929463148117065,0.3944879472255707,0.9444476962089539,-9.945356369018555
1745654034.078181,-0.04379447177052498,-0.03129131346940994,0.3166581690311432,0.10226108878850937,1.2095074653625488,-9.739603996276855
1745654034.1002216,-0.025058725848793983,-0.043813787400722504,0.31482362747192383,0.4006558954715729,0.8628966212272644,-9.612828254699707
1745654034.1558042,0.009727257303893566,-0.04228026792407036,0.3115791082382202,0.3269084095954895,1.4830350875854492,-9.709904670715332
1745654034.1593657,0.005492558237165213,-0.037651557475328445,0.3106880784034729,0.33175426721572876,0.957675576210022,-10.08338451385498
1745654034.164454,0.04974944144487381,-0.04514322802424431,0.3133188784122467,0.2522188723087311,1.1548999547958374,-9.716076850891113
1745654034.1727276,0.053892362862825394,-0.034961771219968796,0.3126315176486969,0.13556721806526184,0.9647222757339478,-9.494637489318848
1745654034.172925,0.05402930825948715,-0.045108772814273834,0.3100007474422455,0.30720818042755127,0.8960698246955872,-9.685160636901855
1745654034.1730201,0.05692138522863388,-0.040242619812488556,0.30521053075790405,0.23494061827659607,0.7694296836853027,-9.97553825378418
1745654034.1731021,0.04608658701181412,-0.039337754249572754,0.30326026678085327,0.35911649465560913,0.6487448215484619,-9.792834281921387
1745654034.2049818,0.061387963593006134,-0.040320344269275665,0.21467013657093048,0.4024740755558014,0.8652909994125366,-10.35963249206543
1745654034.2054718,0.061276234686374664,-0.04837850481271744,0.21528229117393494,0.0272629763931036,1.0551213026046753,-9.326171875
1745654034.2055733,0.07919538766145706,-0.057785678654909134,0.2208009958267212,0.27392834424972534,0.4131752848625183,-9.327201843261719
1745654034.2056313,0.09270737320184708,-0.048726387321949005,0.21707268059253693,-0.04480595141649246,1.4345502853393555,-10.128416061401367
1745654034.2056732,0.07998672127723694,-0.043830547481775284,0.20755712687969208,-0.08149777352809906,0.5549090504646301,-10.236861228942871
1745654034.2315588,0.1210005059838295,-0.032476797699928284,0.19789761304855347,-0.017831172794103622,1.3497966527938843,-9.096223831176758
1745654034.2318614,0.049140769988298416,-0.05252847820520401,0.1851162612438202,0.36324435472488403,0.6599971652030945,-9.489298820495605
1745654034.2325842,0.1064731627702713,-0.052778273820877075,0.1760341078042984,0.46096116304397583,0.6109665632247925,-10.448480606079102
1745654034.23263,0.0625515952706337,-0.029650405049324036,0.1776530146598816,0.2816772758960724,0.561749279499054,-10.190325736999512
1745654034.2707,0.06539185345172882,-0.03957192972302437,0.18393808603286743,0.3526020646095276,-0.10082372277975082,-9.29697036743164
1745654034.27317,0.0707116574048996,-0.04663163423538208,0.1896834522485733,0.17134808003902435,0.7154752612113953,-9.318594932556152
1745654034.2748408,0.06425781548023224,-0.035701870918273926,0.18937253952026367,0.22800993919372559,0.44467002153396606,-10.410816192626953
1745654034.2770834,0.10106762498617172,-0.033659569919109344,0.18561334908008575,-0.1301485300064087,1.3960233926773071,-10.10506534576416
1745654034.2792528,0.10274281352758408,-0.02414383552968502,0.1730792373418808,-0.04008728638291359,0.822834849357605,-9.327679634094238
1745654034.3143184,0.12609605491161346,-0.03988837078213692,0.16228485107421875,0.09631089121103287,1.188262701034546,-9.396139144897461
1745654034.3186085,0.10225506871938705,-0.03368378430604935,0.15216925740242004,0.059801917523145676,0.49106550216674805,-10.396074295043945
1745654034.3187294,0.12574398517608643,-0.023678312078118324,0.15332837402820587,0.28364065289497375,0.21411021053791046,-10.000082015991211
1745654034.3203588,0.07233215123414993,-0.0202013086527586,0.1553858369588852,0.1752258837223053,0.2003452032804489,-9.303771018981934
1745654034.3584816,0.07101553678512573,-0.030774828046560287,0.15718211233615875,0.5300153493881226,0.025045836344361305,-9.621281623840332
1745654034.3607488,0.06590281426906586,-0.030255064368247986,0.1586584597826004,0.33382922410964966,0.7906724214553833,-10.247169494628906
1745654034.3634841,0.06946703791618347,-0.015392785891890526,0.151444211602211,0.1799013912677765,0.6238116025924683,-10.153331756591797
1745654034.3678913,0.07950860261917114,-0.028586816042661667,0.14572933316230774,0.06338824331760406,1.0181066989898682,-9.361634254455566
1745654034.3986886,0.1296420842409134,-0.016065403819084167,0.12837731838226318,0.38014477491378784,0.3201576769351959,-10.138653755187988
1745654034.399115,0.1159810796380043,-0.014007456600666046,0.1279783695936203,0.34670335054397583,0.4798174500465393,-9.987533569335938
1745654034.4003415,0.1053246483206749,-0.00918805506080389,0.1241341382265091,0.022441919893026352,0.332791268825531,-9.69271469116211
1745654034.4027882,0.09741602092981339,-0.015052142553031445,0.12371208518743515,0.17976467311382294,0.39411863684654236,-9.400679588317871
1745654034.4051936,0.09889097511768341,-0.0078008039854466915,0.11988790333271027,-0.07059472799301147,0.7368036508560181,-9.80689525604248
1745654034.4435797,0.09844736009836197,-0.005212770309299231,0.11151482164859772,0.138420969247818,0.701885461807251,-9.95701789855957
1745654034.445838,0.1088687926530838,-0.0029767833184450865,0.10396204888820648,0.11822506040334702,0.7905030846595764,-9.741671562194824
1745654034.4507225,0.13693346083164215,-0.0010084608802571893,0.10008672624826431,0.21263456344604492,0.7702730894088745,-9.574015617370605
1745654034.450849,0.1215052604675293,-0.008598728105425835,0.09924965351819992,0.2357039898633957,0.46408891677856445,-9.912054061889648
1745654034.4840822,0.15635326504707336,0.0019760362338274717,0.10311603546142578,0.12192122638225555,0.32648929953575134,-10.021321296691895
1745654034.492641,0.1447463482618332,0.007582639344036579,0.10365746170282364,0.27611836791038513,0.349804550409317,-9.547106742858887
1745654034.4927144,0.14030857384204865,0.0043610683642327785,0.10419497638940811,-0.006637758109718561,0.44240111112594604,-9.575775146484375
1745654034.5004227,0.13972564041614532,0.0022509179543703794,0.0982636958360672,0.2976042628288269,0.42330819368362427,-9.8551025390625
1745654034.5286198,0.14275117218494415,0.005546853877604008,0.088666632771492,0.19278228282928467,0.7042819857597351,-9.981528282165527
1745654034.5394902,0.17995399236679077,0.03224126994609833,-0.021380146965384483,0.32676512002944946,0.07055838406085968,-9.841381072998047
1745654034.539615,0.15927627682685852,0.04100137948989868,-0.026839887723326683,0.44945961236953735,0.009582552127540112,-9.987783432006836
1745654034.5397153,0.15622125566005707,0.039441756904125214,-0.028934400528669357,0.3970336318016052,-0.015373900532722473,-9.666486740112305
1745654034.539794,0.14302872121334076,0.03732272982597351,-0.03710343688726425,0.5281025171279907,-0.07973812520503998,-9.489151954650879
1745654034.5770247,0.1242217868566513,0.028572598472237587,-0.03902929276227951,0.38875430822372437,-0.035948075354099274,-9.98676872253418
1745654034.577123,0.12830880284309387,0.03974616527557373,-0.04246122017502785,0.23950299620628357,0.04585336893796921,-10.015958786010742
1745654034.5803876,0.119739830493927,0.04458852857351303,-0.04295835644006729,0.3379216194152832,0.050617583096027374,-9.399419784545898
1745654034.58312,0.13247911632061005,0.03867121413350105,-0.0469788983464241,0.1812477558851242,0.3792698383331299,-9.44968318939209
1745654034.6130996,0.13707208633422852,0.032953035086393356,-0.05170287564396858,0.49529632925987244,0.3089734613895416,-9.954739570617676
1745654034.615505,0.161895290017128,0.03927959129214287,-0.057073891162872314,0.3016039729118347,0.5167929530143738,-10.092392921447754
1745654034.6161695,0.17145822942256927,0.04437106102705002,-0.06061849743127823,0.3775424361228943,0.13292720913887024,-9.628067970275879
1745654034.6180959,0.17732179164886475,0.02968718484044075,-0.060906898230314255,0.4707016944885254,0.12127814441919327,-9.43205451965332
1745654034.6232748,0.1638624668121338,0.03431880474090576,-0.06138310581445694,0.3327219486236572,-0.07244177162647247,-9.999455451965332
1745654034.66293,0.1733422875404358,0.04007598012685776,-0.06380170583724976,0.43891993165016174,-0.11782656610012054,-9.987860679626465
1745654034.665973,0.15997859835624695,0.039274703711271286,-0.0688285231590271,0.247580885887146,0.10877946764230728,-9.428497314453125
1745654034.683937,0.14464020729064941,0.03211443871259689,-0.07243455946445465,0.5453509092330933,-0.19073276221752167,-9.499074935913086
1745654034.6913903,0.15398958325386047,0.028058668598532677,-0.07873781770467758,0.4115075170993805,0.1387445479631424,-9.99888801574707
1745654034.754205,0.13253359496593475,0.03961491212248802,-0.08427342027425766,0.35667684674263,-0.19004754722118378,-10.157535552978516
1745654034.760061,0.14409324526786804,0.036168504506349564,-0.08399076014757156,0.2692025899887085,-0.10749183595180511,-9.480209350585938
1745654034.7601469,0.1383996307849884,0.028140839189291,-0.07523979246616364,0.14629331231117249,-0.2564372718334198,-9.42672348022461
1745654034.7602935,0.15101255476474762,0.03226090222597122,-0.07070688158273697,0.029963474720716476,-0.1908346712589264,-9.883689880371094
1745654034.7608445,0.1380883753299713,0.04250477999448776,-0.06354587525129318,0.021868553012609482,-0.2148847132921219,-9.86919116973877
1745654034.7614279,0.051470231264829636,0.0016434274148195982,-0.06415805220603943,0.21264255046844482,-0.6146470308303833,-10.12518310546875
1745654034.7619865,0.10699833929538727,0.009294489398598671,-0.05001381039619446,0.022562822327017784,0.0864437073469162,-9.263038635253906
1745654034.7730088,0.04199454188346863,-0.0023660403676331043,-0.041816551238298416,0.1332198977470398,-0.22346067428588867,-9.498559951782227
1745654034.7732263,0.12347112596035004,-0.009885306470096111,-0.040166664868593216,0.11911626160144806,0.3815903067588806,-10.217447280883789
1745654034.794847,0.11981622129678726,0.0007526720874011517,-0.044087715446949005,-0.03727263957262039,0.6990944147109985,-10.118622779846191
1745654034.798783,0.1362708956003189,-0.006562436930835247,-0.046795327216386795,-0.16055715084075928,0.06888261437416077,-9.436121940612793
1745654034.803205,0.14693185687065125,-0.010945264250040054,-0.05284322425723076,-0.07418613135814667,0.18343283236026764,-9.130964279174805
1745654034.8300817,0.09703269600868225,-0.02089555189013481,-0.05116124823689461,0.10704649984836578,-0.8008105158805847,-10.149099349975586
1745654034.8314798,0.11312393099069595,-0.00018762615218292922,-0.046538032591342926,0.07072372734546661,-0.37408798933029175,-10.183488845825195
1745654034.8363855,0.04933904483914375,-0.008217130787670612,-0.044239066541194916,0.40276145935058594,-0.8396711349487305,-9.429159164428711
1745654034.836795,0.05582756921648979,-0.02377479523420334,-0.03394289314746857,0.2984161674976349,-0.5242494344711304,-9.39706039428711
1745654034.8416865,0.01939215324819088,-0.01612810790538788,-0.03404363989830017,0.2635430693626404,-0.2123875617980957,-10.168481826782227
1745654034.8805768,0.03488028421998024,-0.01878574676811695,-0.03496410697698593,0.11764631420373917,-0.18048790097236633,-10.210479736328125
1745654034.8818033,0.05066922307014465,-0.03787713870406151,-0.01339894998818636,0.3217177987098694,-0.7580347061157227,-8.99752140045166
1745654034.8858292,0.019744182005524635,-0.03911137580871582,-0.008726493455469608,0.40924564003944397,-0.628908634185791,-10.409469604492188
1745654034.8912988,0.0175777617841959,-0.020969094708561897,-0.0036727641709148884,0.24015143513679504,-0.5455860495567322,-10.598042488098145
1745654034.916553,0.005163657013326883,-0.026863817125558853,-0.003746772650629282,0.12429036945104599,-0.20165391266345978,-9.361042022705078
1745654034.9194427,0.011948885396122932,-0.03263217955827713,-0.004674263298511505,-0.24960246682167053,-0.10711737722158432,-9.223203659057617
1745654034.9253378,0.012313008308410645,-0.028443703427910805,-0.0043446822091937065,-0.10274992883205414,-0.09902308136224747,-9.972827911376953
1745654034.9258206,0.012973424978554249,-0.020757010206580162,-0.00853783916682005,-0.1663740873336792,-0.06955219805240631,-10.245316505432129
1745654034.9627433,0.03228316828608513,-0.015283438377082348,-0.0077338083647191525,-0.054919302463531494,-0.20117685198783875,-9.594109535217285
1745654034.9656708,0.01261331420391798,-0.021148743107914925,-0.005859535653144121,0.1270216405391693,-0.20875287055969238,-9.347973823547363
1745654034.9692016,0.015650976449251175,-0.019253311678767204,-0.005402970127761364,0.2797677516937256,-0.38157135248184204,-9.957536697387695
1745654034.9695728,0.0020535853691399097,-0.02045038715004921,-0.00239757657982409,0.5849697589874268,-0.308165967464447,-10.248384475708008
1745654034.9722106,-0.008862433023750782,-0.018012071028351784,-0.008109098300337791,0.2475011795759201,-0.1716810017824173,-10.069753646850586
1745654035.001614,-0.007151667028665543,-0.017648959532380104,-0.0037267848383635283,0.4234030842781067,-0.26759129762649536,-9.492059707641602
1745654035.0041933,-0.007402832619845867,-0.04140908271074295,0.002804530318826437,-0.017866015434265137,0.0180604699999094,-9.758393287658691
1745654035.0079522,0.03609801456332207,0.010516531765460968,0.0010584855917841196,-0.39151373505592346,0.3849254250526428,-9.937539100646973
1745654035.0105217,0.016042660921812057,-0.03425143286585808,-0.006135671865195036,0.3979600965976715,0.09150414168834686,-9.474935531616211
1745654035.0575914,0.04358815401792526,-0.03723904490470886,-0.005716764368116856,-0.30309197306632996,-0.02456027828156948,-10.31616497039795
1745654035.0576427,0.024864668026566505,0.00019027366943191737,-0.011554372496902943,-0.23255375027656555,0.09902831166982651,-9.963042259216309
1745654035.0576828,0.05678563565015793,-0.013798510655760765,-0.01363409124314785,0.0717753991484642,-0.2190409153699875,-9.094015121459961
1745654035.0577106,0.018047364428639412,-0.017937015742063522,-0.011668305844068527,0.7679937481880188,-0.4963911175727844,-9.550186157226562
1745654035.087617,0.007821111008524895,-0.03406831622123718,-0.009248847141861916,0.7459407448768616,-0.6249357461929321,-10.824867248535156
1745654035.0891354,0.05100132152438164,0.0028791367076337337,-0.002483441261574626,0.07411452382802963,-0.14689843356609344,-10.31541633605957
1745654035.0929587,0.0031272550113499165,-0.005437305662781,-2.2038118913769722e-05,0.0933348760008812,-0.5081344842910767,-8.652762413024902
1745654035.0933323,0.026601236313581467,0.009677312336862087,-0.02036258950829506,-0.23416593670845032,0.22025978565216064,-10.429008483886719
1745654035.0944917,0.020363006740808487,0.015471138060092926,-0.026230627670884132,0.08338409662246704,0.2659075856208801,-8.441411018371582
1745654035.1336687,0.018474895507097244,-0.013365605846047401,-0.031483668833971024,0.6923840641975403,-0.3713844418525696,-9.010456085205078
1745654035.1342316,0.02900499477982521,-0.0016137022757902741,-0.02605571411550045,0.37152159214019775,-0.18981114029884338,-11.24044418334961
1745654035.1388252,0.02673070691525936,0.02195413038134575,-0.021232880651950836,0.3764500319957733,-0.4977906346321106,-10.58782958984375
1745654035.1591487,0.05180301517248154,0.020717252045869827,-0.017002364620566368,0.27885863184928894,-0.30802100896835327,-8.341341018676758
1745654035.1730933,0.004507310688495636,-0.0028823495376855135,-0.0136043606325984,0.3911442756652832,-0.27871760725975037,-9.145014762878418
1745654035.174404,0.04715723916888237,0.00042097660480067134,-0.01743028499186039,0.38605672121047974,0.21046367287635803,-11.107471466064453
1745654035.1802733,0.04110150784254074,0.02674366906285286,-0.030966665595769882,-0.028424030169844627,0.226514533162117,-10.650681495666504
1745654035.1803281,0.04615842550992966,0.021042628213763237,-0.03583256155252457,-0.01890493556857109,-0.1804029494524002,-8.558504104614258
1745654035.181189,0.023806769400835037,-0.0019408173393458128,-0.03891265392303467,0.3847108781337738,-0.2739552855491638,-8.90024185180664
1745654035.2171826,0.00783324334770441,0.0018800344550982118,-0.038119636476039886,0.343962162733078,-0.5219845771789551,-11.120065689086914
1745654035.2178423,0.02587355300784111,0.030209284275770187,-0.03453834727406502,0.24130520224571228,-0.44663533568382263,-10.592813491821289
1745654035.2202446,0.05948271602392197,0.06537787616252899,-0.17083308100700378,0.507948100566864,-0.3878503441810608,-9.598554611206055
1745654035.2631624,0.07328055053949356,0.0531233549118042,-0.17311210930347443,0.7114118337631226,-0.46913838386535645,-9.484051704406738
1745654035.2637491,0.06910889595746994,0.05508521944284439,-0.1774565875530243,0.5962042212486267,0.068092480301857,-9.73438835144043
1745654035.2649465,0.06970325857400894,0.06049545481801033,-0.1803758144378662,0.6705076098442078,-0.3762168288230896,-10.094819068908691
1745654035.2697618,0.09900037944316864,0.05030030012130737,-0.1835775077342987,0.5189746618270874,-0.03521699830889702,-9.608327865600586
1745654035.2702606,0.0876154974102974,0.04781556874513626,-0.18432942032814026,0.5690563321113586,-0.42054277658462524,-9.560811996459961
1745654035.3091884,0.1081162542104721,0.050781987607479095,-0.18320748209953308,0.6351562738418579,-0.3771211504936218,-9.776195526123047
1745654035.3092582,0.09803423285484314,0.052285660058259964,-0.18381276726722717,0.43111276626586914,-0.4192432463169098,-9.775045394897461
1745654035.3097134,0.09904702752828598,0.048965923488140106,-0.18508383631706238,0.7981158494949341,-0.5316067934036255,-9.391963958740234
1745654035.3098066,0.0766039714217186,0.04736732318997383,-0.18886443972587585,0.6214240193367004,-0.35854655504226685,-9.641736030578613
1745654035.353441,0.08152551203966141,0.04430161044001579,-0.1923673152923584,0.6672017574310303,-0.6791039109230042,-10.093485832214355
1745654035.359662,0.07127344608306885,0.041777871549129486,-0.1955629587173462,0.6840192079544067,-0.27728286385536194,-9.741690635681152
1745654035.3597488,0.0537184402346611,0.04559832811355591,-0.19723355770111084,0.550157904624939,-0.7673934102058411,-9.565180778503418
1745654035.3663332,0.06536002457141876,0.03394608944654465,-0.19757649302482605,0.6768373250961304,-0.3691616654396057,-9.580769538879395
1745654035.3666801,0.052877314388751984,0.035468678921461105,-0.1997808963060379,0.4853886067867279,-0.26906490325927734,-9.833963394165039
1745654035.3890202,0.07132022082805634,0.04088716581463814,-0.19899073243141174,0.7943116426467896,-0.34481436014175415,-9.676543235778809
1745654035.3902347,0.08308923244476318,0.03241449594497681,-0.20593591034412384,0.507056474685669,0.03472800552845001,-9.59361457824707
1745654035.3926742,0.09326827526092529,0.025302227586507797,-0.205140620470047,0.7401532530784607,-0.4581679403781891,-9.928243637084961
1745654035.39606,0.10195641219615936,0.02143843099474907,-0.20797088742256165,0.6873670220375061,-0.18587026000022888,-9.949560165405273
1745654035.430374,0.10631468147039413,0.023591971024870872,-0.2116989642381668,0.5060938000679016,-0.6455928683280945,-9.80152416229248
1745654035.4357932,0.09502700716257095,0.01724519208073616,-0.20721690356731415,0.6360152363777161,-0.41382694244384766,-9.369453430175781
1745654035.4364192,0.07198823988437653,0.015283346176147461,-0.21240191161632538,0.5966832041740417,-0.7019107937812805,-9.610815048217773
1745654035.4371364,0.08677297830581665,0.01612534001469612,-0.21580061316490173,0.846434473991394,-0.5592910647392273,-9.831258773803711
1745654035.4769328,0.058801956474781036,0.00996851921081543,-0.2222987413406372,0.7121556997299194,-0.8076167106628418,-9.792455673217773
1745654035.4785497,0.06435281038284302,0.00360049563460052,-0.2221924066543579,0.566831111907959,-0.30205923318862915,-9.630453109741211
1745654035.4817474,0.0509357824921608,0.007779004983603954,-0.223826602101326,0.46134811639785767,-0.597953736782074,-9.80989933013916
1745654035.4833443,0.0752212181687355,0.0041467961855232716,-0.22449393570423126,0.6939798593521118,-0.30045413970947266,-9.558107376098633
1745654035.5309274,0.06265687942504883,0.0020708616357296705,-0.2239067107439041,0.47990769147872925,-0.3128200173377991,-9.596536636352539
1745654035.5324738,0.08127404749393463,0.00034176697954535484,-0.22904404997825623,0.7472327947616577,-0.41699981689453125,-9.759312629699707
1745654035.532523,0.0769452303647995,-0.006403631530702114,-0.2295425832271576,0.5865275263786316,-0.267394483089447,-9.932720184326172
1745654035.5325625,0.09425390511751175,-8.869095472618937e-05,-0.23154976963996887,0.6267529726028442,-0.6388684511184692,-9.929913520812988
1745654035.5325947,0.08065710961818695,-0.009875702671706676,-0.23381730914115906,0.6528393030166626,-0.33935999870300293,-9.553534507751465
1745654035.5702822,0.07380945235490799,-0.009151400066912174,-0.2353505790233612,0.5335199236869812,-0.7055600881576538,-9.695131301879883
1745654035.5709808,0.08222471922636032,-0.014167760498821735,-0.23459669947624207,0.7258994579315186,-0.490504652261734,-9.724406242370605
1745654035.571415,0.06177237629890442,-0.013096736744046211,-0.23997171223163605,0.5820638537406921,-0.4589526653289795,-9.783716201782227
1745654035.5760114,0.07162591069936752,-0.017961040139198303,-0.2432597577571869,0.7120013236999512,-0.6179021596908569,-9.792435646057129
1745654035.60255,0.05642586201429367,-0.04728072136640549,-0.2762349247932434,0.47620001435279846,-0.6335565447807312,-9.842916488647461
1745654035.6056032,0.07731682062149048,-0.04047437384724617,-0.2762516438961029,0.47936439514160156,-0.7176848649978638,-9.854080200195312
1745654035.6114602,0.055929847061634064,-0.046784043312072754,-0.2764071524143219,0.5902499556541443,-0.579100489616394,-9.711406707763672
1745654035.6115193,0.0643753632903099,-0.04446668177843094,-0.27689898014068604,0.4268307685852051,-0.685164749622345,-9.871759414672852
1745654035.6131601,0.07269296795129776,-0.04411323741078377,-0.2788892090320587,0.5477031469345093,-0.5698204040527344,-9.78721809387207
1745654035.6542811,0.05797184631228447,-0.04271801561117172,-0.2787962555885315,0.452108770608902,-0.5572404265403748,-9.778945922851562
1745654035.6543539,0.06655348092317581,-0.03725702688097954,-0.28191691637039185,0.5971451997756958,-0.7783187627792358,-9.74930477142334
1745654035.6546926,0.059078484773635864,-0.04440583288669586,-0.28107529878616333,0.4504026472568512,-0.5261229276657104,-9.81043815612793
1745654035.654752,0.0660279169678688,-0.036871716380119324,-0.28157079219818115,0.5314497947692871,-0.8151346445083618,-9.900517463684082
1745654035.6924078,0.057727910578250885,-0.0437522754073143,-0.2807333767414093,0.583794891834259,-0.6053292155265808,-9.751343727111816
1745654035.693931,0.06413407623767853,-0.03811613470315933,-0.281141996383667,0.41137632727622986,-0.7295023202896118,-9.813222885131836
1745654035.698103,0.05618870258331299,-0.04254837706685066,-0.28374403715133667,0.5743106007575989,-0.6084083318710327,-9.785684585571289
1745654035.7034605,0.05805143713951111,-0.038068655878305435,-0.28414830565452576,0.41892457008361816,-0.6305893063545227,-9.823582649230957
1745654035.708109,0.07150565832853317,-0.03599489480257034,-0.2839290499687195,0.6149757504463196,-0.6488031148910522,-9.686604499816895
1745654035.7380068,0.05978108197450638,-0.04131046682596207,-0.28675225377082825,0.465869277715683,-0.5558711886405945,-9.770243644714355
1745654035.7395606,0.07185478508472443,-0.030170103535056114,-0.28500401973724365,0.47142738103866577,-0.7884576916694641,-9.931801795959473
1745654035.7396011,0.07059876620769501,-0.035600803792476654,-0.2852993905544281,0.5097773671150208,-0.5904955863952637,-9.752206802368164
1745654035.776692,0.06722216308116913,-0.034061431884765625,-0.2876250147819519,0.3979843258857727,-0.7290596961975098,-9.72071647644043
1745654035.7806706,0.07180014997720718,-0.03210008144378662,-0.2870188355445862,0.641661524772644,-0.6419283151626587,-9.733973503112793
1745654035.781287,0.062924325466156,-0.036332134157419205,-0.28789910674095154,0.3890102505683899,-0.6780799627304077,-9.88131046295166
1745654035.7860367,0.07012046873569489,-0.028444964438676834,-0.288929283618927,0.5376853942871094,-0.7513478398323059,-9.790021896362305
1745654035.7887213,0.05383612588047981,-0.03368848189711571,-0.28962022066116333,0.5199865102767944,-0.7280015349388123,-9.655152320861816
1745654035.8231719,0.06639518588781357,-0.028688764199614525,-0.28920361399650574,0.43620291352272034,-0.7944179773330688,-9.864839553833008
1745654035.8281102,0.05318038910627365,-0.03172730654478073,-0.2883835434913635,0.5767965912818909,-0.5908041596412659,-9.889963150024414
1745654035.8317614,0.06166936829686165,-0.026211325079202652,-0.29054155945777893,0.3685186505317688,-0.7403226494789124,-9.791797637939453
1745654035.8326159,0.0707988291978836,-0.027205388993024826,-0.28839772939682007,0.5488301515579224,-0.625463604927063,-9.606857299804688
1745654035.8771243,0.062204308807849884,-0.03027096390724182,-0.2921551764011383,0.4382484555244446,-0.5122599601745605,-9.729669570922852
1745654035.877201,0.08051404356956482,-0.022004039958119392,-0.2928530275821686,0.5297447443008423,-0.7247025370597839,-9.86098575592041
1745654035.8772564,0.06972207129001617,-0.0236743725836277,-0.29491448402404785,0.4205706715583801,-0.5462439656257629,-9.715414047241211
1745654035.877582,0.0766136646270752,-0.020369186997413635,-0.2916031777858734,0.5121569633483887,-0.8578365445137024,-9.766892433166504
1745654035.878213,0.06654523313045502,-0.0250402744859457,-0.29454120993614197,0.559066653251648,-0.7217006683349609,-9.801687240600586
1745654035.9075246,0.07208482921123505,-0.02161099575459957,-0.2955905497074127,0.4147052764892578,-0.8420384526252747,-9.898694038391113
1745654035.9082859,0.059252701699733734,-0.023333165794610977,-0.29261907935142517,0.5863853693008423,-0.7750211954116821,-9.679491996765137
1745654035.9117548,0.05112285539507866,-0.02390347421169281,-0.2930055856704712,0.37154391407966614,-0.7829079627990723,-9.711705207824707
1745654035.9139876,0.07004948705434799,-0.01855475641787052,-0.2952028214931488,0.5206881761550903,-0.7286199331283569,-9.702776908874512
1745654035.9465783,0.05580674484372139,-0.021812034770846367,-0.2959415316581726,0.4825712740421295,-0.5295727252960205,-9.71588134765625
1745654035.9518526,0.04601635783910751,-0.013675689697265625,-0.3027084171772003,0.45220670104026794,-0.9097548723220825,-9.823829650878906
1745654035.9616055,0.04283419996500015,-0.014220332726836205,-0.30224913358688354,0.546556293964386,-0.7900885939598083,-9.88653564453125
1745654035.9620016,0.046648312360048294,-0.0129970358684659,-0.301303505897522,0.38905295729637146,-0.8809833526611328,-9.766453742980957
1745654035.9620802,0.03594435378909111,-0.0161818265914917,-0.299713671207428,0.5696762800216675,-0.8733318448066711,-9.588233947753906
1745654035.993924,0.029308244585990906,-0.020362701267004013,-0.29952144622802734,0.507654070854187,-0.8668017387390137,-9.745865821838379
1745654035.9942427,0.03769098222255707,-0.01248604990541935,-0.30133765935897827,0.5263090133666992,-0.878735363483429,-9.809077262878418
1745654035.996136,0.025277376174926758,-0.01767159067094326,-0.30138808488845825,0.5161172747612,-0.7872790694236755,-9.654094696044922
1745654035.9996367,0.025103267282247543,-0.012150214985013008,-0.30143705010414124,0.45729613304138184,-0.9328948259353638,-9.650736808776855
1745654036.0341473,0.02591882087290287,-0.01746862567961216,-0.30086860060691833,0.5184048414230347,-0.8183517456054688,-9.738177299499512
1745654036.034934,0.021465862169861794,-0.0178370401263237,-0.3010213077068329,0.350650817155838,-0.783344566822052,-9.935420989990234
1745654036.0377514,0.03294806927442551,-0.012163125909864902,-0.30200275778770447,0.5600297451019287,-0.7923726439476013,-9.691351890563965
1745654036.0382977,0.02356705628335476,-0.019521716982126236,-0.30143606662750244,0.41838979721069336,-0.7413228154182434,-9.569775581359863
1745654036.081915,0.03651604428887367,-0.01624971255660057,-0.30155131220817566,0.5470606684684753,-0.8899720311164856,-9.746978759765625
1745654036.0819945,0.01950889639556408,-0.02171686850488186,-0.30079278349876404,0.589414119720459,-0.8694983720779419,-9.799112319946289
1745654036.082057,0.030939817428588867,-0.013380415737628937,-0.2992783188819885,0.38783615827560425,-0.9713284373283386,-9.84211540222168
1745654036.0821066,0.019427325576543808,-0.01675311103463173,-0.2984105050563812,0.550569474697113,-0.8216201066970825,-9.538602828979492
1745654036.0846896,0.014875342138111591,-0.01763232983648777,-0.2978614866733551,0.36588746309280396,-0.771418571472168,-9.73352336883545
1745654036.1549537,0.027162503451108932,-0.015309685841202736,-0.3006475865840912,0.5666643381118774,-0.8067773580551147,-9.829893112182617
1745654036.1550963,0.021228179335594177,-0.020749464631080627,-0.30480268597602844,0.43556100130081177,-0.6025991439819336,-9.674654006958008
1745654036.1552036,0.030204350128769875,-0.014430612325668335,-0.302238792181015,0.4641510546207428,-0.9233630895614624,-9.675984382629395
1745654036.1564996,0.024303244426846504,-0.01671157032251358,-0.30145785212516785,0.4726468026638031,-0.7393540143966675,-9.667916297912598
1745654036.1834242,0.026868244633078575,-0.016030926257371902,-0.30223071575164795,0.43045178055763245,-0.9846115112304688,-9.835570335388184
1745654036.183477,0.022850414738059044,-0.016225513070821762,-0.29876765608787537,0.5753291249275208,-0.8656636476516724,-9.727964401245117
1745654036.1852353,0.021817855536937714,-0.016962604597210884,-0.2980145812034607,0.4240325093269348,-0.8832033276557922,-9.765380859375
1745654036.1852906,0.02392563223838806,-0.01830844208598137,-0.2994519770145416,0.5444900393486023,-0.8226250410079956,-9.712287902832031
1745654036.1853232,0.014098870567977428,-0.02074950560927391,-0.2966221272945404,0.4665449559688568,-0.7544736862182617,-9.771282196044922
1745654036.2070343,0.026853885501623154,-0.01726699247956276,-0.3008047640323639,0.44574251770973206,-0.9030941724777222,-9.75505256652832
1745654036.2106483,0.01941957138478756,-0.021793227642774582,-0.3002314865589142,0.41694459319114685,-0.7668039202690125,-9.603361129760742
1745654036.2137578,0.012626862153410912,-0.01573094166815281,-0.29881441593170166,0.4456351697444916,-0.9048706293106079,-9.74498176574707
1745654036.2252934,0.02135631814599037,-0.017099807038903236,-0.29647061228752136,0.5739321708679199,-0.8389825820922852,-9.70361614227295
1745654036.2507398,0.01617170311510563,-0.019065309315919876,-0.30112823843955994,0.39013931155204773,-0.7596441507339478,-9.831499099731445
1745654036.2522166,0.02280091680586338,-0.015589619986712933,-0.29838860034942627,0.5711982846260071,-0.8922185897827148,-9.76494026184082
1745654036.2945035,0.015957806259393692,-0.02269422635436058,-0.29807248711586,0.43309450149536133,-0.777533769607544,-9.748048782348633
1745654036.294658,0.026224028319120407,-0.014865674078464508,-0.2969200015068054,0.48160848021507263,-0.9169601202011108,-9.719082832336426
1745654036.2947395,0.007305152714252472,-0.022757872939109802,-0.29734835028648376,0.5094393491744995,-0.8703371286392212,-9.689630508422852
1745654036.3001997,0.019167935475707054,-0.015073406510055065,-0.29715901613235474,0.3528590202331543,-0.9057154655456543,-9.805307388305664
1745654036.3034625,-0.00458794180303812,-0.020407594740390778,-0.29079169034957886,0.4358949661254883,-0.7722393274307251,-9.694995880126953
1745654036.31067,0.003912522457540035,-0.022256111726164818,-0.2899553179740906,0.5593785643577576,-0.9051605463027954,-9.79853630065918
1745654036.3526292,0.0021543873008340597,-0.022205498069524765,-0.29047125577926636,0.34787675738334656,-0.6895848512649536,-9.847627639770508
1745654036.3527598,0.005630264990031719,-0.019858647137880325,-0.28690388798713684,0.5217949748039246,-0.9840377569198608,-9.760260581970215
1745654036.3528302,0.006047745700925589,-0.023143120110034943,-0.2859959006309509,0.3640199601650238,-0.7491132020950317,-9.699087142944336
1745654036.3529115,0.012518821284174919,-0.019929395988583565,-0.28571581840515137,0.42590826749801636,-0.8857951164245605,-9.788399696350098
1745654036.3529654,0.0034152227453887463,-0.02454015240073204,-0.2850283980369568,0.4996965825557709,-0.7341400384902954,-9.706832885742188
1745654036.4074314,0.01255443412810564,-0.018588799983263016,-0.2863120138645172,0.3343406617641449,-0.8346537351608276,-9.757133483886719
1745654036.40749,0.00958727952092886,-0.019126206636428833,-0.28861239552497864,0.5637860298156738,-0.7804527282714844,-9.653393745422363
1745654036.4075377,-0.0013791676610708237,-0.021910741925239563,-0.2880059778690338,0.3233608305454254,-0.7997339367866516,-9.762819290161133
1745654036.407585,0.0011861579259857535,-0.017084311693906784,-0.2885720431804657,0.4959403872489929,-1.0511525869369507,-9.85228443145752
1745654036.4211466,0.0015988681698217988,-0.021399473771452904,-0.287937730550766,0.40735769271850586,-0.6996036767959595,-9.727697372436523
1745654036.421907,-0.0011977549875155091,-0.017312204465270042,-0.2859129309654236,0.4381796419620514,-0.9553285837173462,-9.736122131347656
1745654036.4293056,0.006805836223065853,-0.02166171185672283,-0.2856634259223938,0.5431069135665894,-0.6886053085327148,-9.774307250976562
1745654036.4294753,0.010643599554896355,-0.01982368342578411,-0.2849755883216858,0.3358108401298523,-0.8226712346076965,-9.836816787719727
1745654036.4300926,0.009694132953882217,-0.01709314063191414,-0.28351983428001404,0.513475775718689,-0.7947942018508911,-9.667741775512695
1745654036.466252,0.009341355413198471,-0.020918821915984154,-0.2838670313358307,0.3389705419540405,-0.8042573928833008,-9.697789192199707
1745654036.5000699,0.013029794208705425,-0.017484892159700394,-0.2832084894180298,0.41236191987991333,-0.8568213582038879,-9.7931489944458
1745654036.500337,0.004548911936581135,-0.02127467468380928,-0.2824443578720093,0.4108479619026184,-0.7003613710403442,-9.794133186340332
1745654036.5010524,0.008057916536927223,-0.017469458281993866,-0.28653156757354736,0.42278480529785156,-0.9628976583480835,-9.785409927368164
1745654036.5147078,0.008652165532112122,-0.02136637642979622,-0.2834828197956085,0.51518714427948,-0.7733280062675476,-9.692670822143555
1745654036.5148294,0.00262021878734231,-0.018760506063699722,-0.2855655252933502,0.4519025683403015,-0.7985326051712036,-9.777456283569336
1745654036.5162818,0.004802868701517582,-0.017783908173441887,-0.2833947539329529,0.5601785182952881,-0.9304011464118958,-9.74524974822998
1745654036.5183263,0.0005783328670077026,-0.021420588716864586,-0.2818840444087982,0.32341092824935913,-0.6857699155807495,-9.842426300048828
1745654036.5529315,0.0030930698849260807,-0.012948594987392426,-0.28145068883895874,0.3240465819835663,-0.8728916049003601,-9.846588134765625
1745654036.5545855,0.0003136111481580883,-0.02228657901287079,-0.2827473282814026,0.4634275436401367,-0.7061164975166321,-9.649820327758789
1745654036.5584323,-0.0005372691666707397,-0.01725012995302677,-0.28250962495803833,0.36459484696388245,-0.820098876953125,-9.776571273803711
1745654036.5642502,0.0048776669427752495,-0.019851239398121834,-0.2839987576007843,0.5672138333320618,-0.8588536977767944,-9.759172439575195
1745654036.5941525,0.0035432022996246815,-0.01776139996945858,-0.2816404104232788,0.3577657639980316,-0.7392085790634155,-9.716079711914062
1745654036.600927,-0.008649375289678574,-0.013995066285133362,-0.281119167804718,0.5400840640068054,-1.0427534580230713,-9.707659721374512
1745654036.601328,-0.0006577543681487441,-0.02068091556429863,-0.2794162631034851,0.4069643020629883,-0.713858962059021,-9.750326156616211
1745654036.602086,-0.004374597687274218,-0.016550328582525253,-0.2805214524269104,0.3996078372001648,-0.8564106225967407,-9.951044082641602
1745654036.6021276,-0.0009496150305494666,-0.017636600881814957,-0.28109902143478394,0.4788466989994049,-0.6616768836975098,-9.727002143859863
1745654036.6397617,5.356003384804353e-05,-0.01904662325978279,-0.2830692529678345,0.28793004155158997,-0.7751105427742004,-9.636838912963867
1745654036.6399333,-0.00017072996706701815,-0.018737884238362312,-0.28044596314430237,0.5413742065429688,-0.762956440448761,-9.675978660583496
1745654036.6400943,-0.006059151608496904,-0.019416596740484238,-0.2851192355155945,0.3654673397541046,-0.8462725877761841,-9.852304458618164
1745654036.6422515,-0.013782230205833912,-0.014898213557898998,-0.28006410598754883,0.48624467849731445,-0.8910272717475891,-9.450166702270508
1745654036.680189,-0.005201623309403658,-0.01931832544505596,-0.27995043992996216,0.3349115252494812,-0.5958012342453003,-9.514876365661621
1745654036.6916282,-0.014831389300525188,-0.016009587794542313,-0.28520074486732483,0.5866729021072388,-0.7431144714355469,-10.005738258361816
1745654036.695641,0.0009701086091808975,-0.016733095049858093,-0.2810512185096741,0.4109724164009094,-0.6508600115776062,-9.919797897338867
1745654036.696478,0.0024503159802407026,-0.012877079658210278,-0.2833020091056824,0.31820186972618103,-0.69694584608078,-9.58357048034668
1745654036.7231495,-0.0010752183152362704,-0.02011827565729618,-0.2800884544849396,0.5587167739868164,-0.8611068725585938,-9.574583053588867
1745654036.7269375,0.0004258137778379023,-0.021865233778953552,-0.2791024148464203,0.34462857246398926,-0.7471118569374084,-10.010141372680664
1745654036.7292106,-0.0003133501741103828,-0.014257977716624737,-0.27768197655677795,0.534346342086792,-0.8815916776657104,-9.9197416305542
1745654036.7311656,-0.007969616912305355,-0.02039274014532566,-0.2778353691101074,0.3195856213569641,-0.704554557800293,-9.486335754394531
1745654036.7322452,-0.007528678979724646,-0.017208157107234,-0.2789134681224823,0.44843101501464844,-0.9107400178909302,-9.505839347839355
1745654036.8022952,-0.010122915729880333,-0.021349547430872917,-0.28142350912094116,0.5343616604804993,-0.591953456401825,-9.820215225219727
1745654036.80737,-0.01219992246478796,-0.01277262531220913,-0.28118473291397095,0.3292294144630432,-0.7676854133605957,-10.023401260375977
1745654036.8077686,-0.010255585424602032,-0.015482607297599316,-0.280573308467865,0.495849072933197,-0.8328339457511902,-9.585954666137695
1745654036.8078396,-0.001548919128254056,-0.019031409174203873,-0.28044724464416504,0.2854457199573517,-0.640600860118866,-9.575883865356445
1745654036.8098056,-0.009919369593262672,-0.0189030971378088,-0.2773593068122864,0.49890607595443726,-0.8714504241943359,-9.876981735229492
1745654036.8132513,0.006429447792470455,-0.016386788338422775,-0.277264267206192,0.36864712834358215,-0.5216639637947083,-9.86478042602539
1745654036.8134737,0.0010204932186752558,-0.012977316975593567,-0.27740949392318726,0.4405158460140228,-0.8362249135971069,-9.610363960266113
1745654036.818939,0.006375598255544901,-0.020087379962205887,-0.277315616607666,0.4943601191043854,-0.6205292344093323,-9.541912078857422
1745654036.8621655,0.0031818891875445843,-0.016032138839364052,-0.27743440866470337,0.44282588362693787,-0.8179391622543335,-9.939939498901367
1745654036.8623118,0.00456216698512435,-0.019895900040864944,-0.2783719003200531,0.4850316047668457,-0.7852230668067932,-9.953325271606445
1745654036.862475,-0.007630815263837576,-0.014322226867079735,-0.2785260081291199,0.32523199915885925,-0.7534478902816772,-9.677632331848145
1745654036.8625643,-0.01205049641430378,-0.018838847056031227,-0.2793734669685364,0.5004388689994812,-0.9080930948257446,-9.499394416809082
1745654036.894119,-0.0038935826160013676,-0.013918260112404823,-0.28057458996772766,0.2850760221481323,-0.6695799827575684,-9.563101768493652
1745654036.9010072,-0.004245172254741192,-0.021487418562173843,-0.27784156799316406,0.5596914291381836,-0.7556742429733276,-9.786554336547852
1745654036.9011197,0.003951612859964371,-0.01751943863928318,-0.2802800238132477,0.29346680641174316,-0.6018773317337036,-9.946925163269043
1745654036.9014063,0.004328771959990263,-0.01559610664844513,-0.2779766619205475,0.4920702576637268,-0.852658748626709,-9.723993301391602
1745654036.9024334,-0.0005473066121339798,-0.02334499917924404,-0.277973473072052,0.37377530336380005,-0.6120554804801941,-9.575164794921875
1745654036.9423347,-0.004181496798992157,-0.01618368923664093,-0.2790660858154297,0.45235008001327515,-0.8525406122207642,-9.815122604370117
1745654036.94241,-0.0007574744522571564,-0.021260583773255348,-0.28153195977211,0.5174587965011597,-0.687533974647522,-9.781604766845703
1745654036.9424427,-0.00407535070553422,-0.014455191791057587,-0.28182297945022583,0.3320329785346985,-0.732587456703186,-9.678391456604004
1745654036.9438794,-0.015914957970380783,-0.01855488307774067,-0.28209277987480164,0.5772982239723206,-0.8557320833206177,-9.628511428833008
1745654037.0187964,-0.005043655168265104,-0.018573548644781113,-0.27905696630477905,0.29716283082962036,-0.6545737385749817,-9.786962509155273
1745654037.0189457,-0.011769372038543224,-0.016439402475953102,-0.2796187400817871,0.4547438621520996,-0.801470935344696,-9.940391540527344
1745654037.0190337,0.0004404946230351925,-0.017772173509001732,-0.2804853320121765,0.34307318925857544,-0.48759084939956665,-9.708169937133789
1745654037.0191114,-5.05085324675747e-07,-0.01666164956986904,-0.28177204728126526,0.38348525762557983,-0.6887080073356628,-9.60887336730957
1745654037.0296226,0.00447210855782032,-0.016813814640045166,-0.2818945646286011,0.47449249029159546,-0.8435029983520508,-9.62242317199707
1745654037.031942,0.00807491410523653,-0.02476268820464611,-0.2797545790672302,0.3806183338165283,-0.6673557162284851,-9.667519569396973
1745654037.0321043,0.0060286931693553925,-0.0186935905367136,-0.2808971703052521,0.37899309396743774,-0.7018007040023804,-9.946556091308594
1745654037.0322216,0.00430040480569005,-0.021038085222244263,-0.28245142102241516,0.47970372438430786,-0.7148841619491577,-9.824203491210938
1745654037.0322998,0.020490985363721848,-0.017973005771636963,-0.280790239572525,0.2805226743221283,-0.7182754278182983,-9.650469779968262
1745654037.0706048,0.006299629807472229,-0.02077316679060459,-0.2805728316307068,0.5422151684761047,-0.7157620787620544,-9.525564193725586
1745654037.0755887,0.01342795044183731,-0.022491514682769775,-0.2819896638393402,0.40072327852249146,-0.6907168626785278,-9.852605819702148
1745654037.0796254,0.01426638476550579,-0.014690553769469261,-0.280679851770401,0.4156358242034912,-0.7124455571174622,-9.93602180480957
1745654037.0802321,0.012474150396883488,-0.021931471303105354,-0.28187841176986694,0.49093660712242126,-0.7486159205436707,-9.666436195373535
1745654037.1132746,0.013497446663677692,-0.01732678711414337,-0.28089892864227295,0.36881908774375916,-0.7381033301353455,-9.690521240234375
1745654037.1133704,0.006429273635149002,-0.02677171863615513,-0.28148365020751953,0.5235881209373474,-0.8243293762207031,-9.889793395996094
1745654037.1155715,0.009692491963505745,-0.019758328795433044,-0.2810242176055908,0.2891448140144348,-0.6706294417381287,-9.890382766723633
1745654037.1175227,-0.00038218460395000875,-0.017640430480241776,-0.27955517172813416,0.48032307624816895,-0.8523405194282532,-9.622528076171875
1745654037.1601846,0.00766518572345376,-0.026433739811182022,-0.2827557921409607,0.39198037981987,-0.6497839093208313,-9.577226638793945
1745654037.1602874,0.004483924247324467,-0.022868815809488297,-0.2804498076438904,0.45268210768699646,-0.7753598093986511,-9.868670463562012
1745654037.1605265,-0.0008447334403172135,-0.023378686979413033,-0.2808763384819031,0.5020421147346497,-0.706821084022522,-9.967828750610352
1745654037.16457,0.012522680684924126,-0.017174694687128067,-0.28121432662010193,0.2799842953681946,-0.7208567261695862,-9.680763244628906
1745654037.1694465,0.000594324606936425,-0.025679294019937515,-0.27978652715682983,0.47228461503982544,-0.7615188360214233,-9.544898986816406
1745654037.2016287,0.015852684155106544,-0.023065045475959778,-0.27978089451789856,0.3725830912590027,-0.6127998232841492,-9.881319046020508
1745654037.2019217,0.0068306163884699345,-0.021112220361828804,-0.2800750136375427,0.5054710507392883,-0.754001259803772,-9.978460311889648
1745654037.2025378,0.015011267736554146,-0.023771215230226517,-0.2806212306022644,0.3901592791080475,-0.64139324426651,-9.660375595092773
1745654037.2075214,0.004407286643981934,-0.02292775548994541,-0.2816132605075836,0.4487842917442322,-0.804366409778595,-9.538178443908691
1745654037.2386594,0.005309268832206726,-0.026856129989027977,-0.2818666994571686,0.47049030661582947,-0.7550503015518188,-9.828139305114746
1745654037.2405558,0.006674306001514196,-0.022646421566605568,-0.2801275849342346,0.4516647458076477,-0.588733971118927,-9.767682075500488
1745654037.2461946,0.014599351212382317,-0.025250975042581558,-0.28042593598365784,0.3385632634162903,-0.5872365236282349,-9.863945960998535
1745654037.2480795,0.025045383721590042,-0.013051626272499561,-0.28109535574913025,0.40252676606178284,-0.5811463594436646,-9.688161849975586
1745654037.2481933,0.016202984377741814,-0.028334205970168114,-0.2805328965187073,0.5101940631866455,-0.771357536315918,-9.611103057861328
1745654037.2852316,0.026376795023679733,-0.020862143486738205,-0.2810411751270294,0.34455442428588867,-0.7454966306686401,-9.830612182617188
1745654037.2859666,0.010296043939888477,-0.020941317081451416,-0.2780807614326477,0.5282715559005737,-0.9384995698928833,-9.91946792602539
1745654037.309733,0.01833747699856758,-0.020148541778326035,-0.27898430824279785,0.2817385196685791,-0.7234986424446106,-9.74659538269043
1745654037.3102157,0.0034704268909990788,-0.020493822172284126,-0.27620750665664673,0.5216655731201172,-0.7925035953521729,-9.624654769897461
1745654037.3279169,0.0043388791382312775,-0.026024799793958664,-0.28026819229125977,0.4391135573387146,-0.6862431764602661,-9.775050163269043
1745654037.328974,0.017548995092511177,-0.01633426360785961,-0.27965879440307617,0.35405847430229187,-0.7088257670402527,-9.866375923156738
1745654037.329068,0.0009738650405779481,-0.024588827043771744,-0.28206008672714233,0.4785270094871521,-0.6735725998878479,-9.713920593261719
1745654037.3303645,0.016753681004047394,-0.01778264157474041,-0.2799108624458313,0.29276975989341736,-0.7540907859802246,-9.599858283996582
1745654037.3332844,0.008935491554439068,-0.020701099187135696,-0.278184711933136,0.46584200859069824,-0.6929060220718384,-9.737287521362305
1745654037.371986,0.009024440310895443,-0.019969752058386803,-0.27879661321640015,0.3861268162727356,-0.6657561659812927,-9.62625503540039
1745654037.3736606,0.021978698670864105,-0.015275046229362488,-0.2818579077720642,0.291995108127594,-0.5963113903999329,-9.743310928344727
1745654037.377062,0.006208275444805622,-0.015341773629188538,-0.28267377614974976,0.5084015727043152,-0.7810809016227722,-9.75636100769043
1745654037.4162228,0.022510221228003502,-0.01600133813917637,-0.2823182940483093,0.36705946922302246,-0.7217105031013489,-9.788139343261719
1745654037.4163663,0.00888991542160511,-0.012729805894196033,-0.2820555567741394,0.5227932929992676,-0.7675846815109253,-9.725019454956055
1745654037.4216301,0.0014834338799118996,-0.019805774092674255,-0.28182926774024963,0.40981975197792053,-0.7738201022148132,-9.82563591003418
1745654037.4217503,0.009477140381932259,-0.009219964034855366,-0.2814751863479614,0.3325413167476654,-0.8359681367874146,-9.846901893615723
1745654037.42381,0.003377919550985098,-0.017484094947576523,-0.27962130308151245,0.4650533199310303,-0.6604576110839844,-9.641459465026855
1745654037.4569116,0.011681775562465191,-0.015918847173452377,-0.280162513256073,0.29611918330192566,-0.6572911143302917,-9.691638946533203
1745654037.4602256,0.009494176134467125,-0.01427370123565197,-0.28299006819725037,0.4592820107936859,-0.5441933870315552,-9.795214653015137
1745654037.4633052,0.012467147782444954,-0.016985943540930748,-0.2836768329143524,0.3034517765045166,-0.6349597573280334,-9.810214042663574
1745654037.4658847,0.019972488284111023,-0.011751757934689522,-0.2845741808414459,0.41067132353782654,-0.722822368144989,-9.669572830200195
1745654037.4980087,0.011565768159925938,-0.018671754747629166,-0.2837170362472534,0.4524897634983063,-0.7489087581634521,-9.7384614944458
1745654037.4991384,0.016629833728075027,-0.013119757175445557,-0.28189000487327576,0.369695246219635,-0.7990100979804993,-9.93700885772705
1745654037.5015414,0.0015147727681323886,-0.016294894739985466,-0.28224849700927734,0.49828585982322693,-0.7654048204421997,-9.79814624786377
1745654037.509689,0.010343179106712341,-0.01209346204996109,-0.2821691334247589,0.32962411642074585,-0.7475244998931885,-9.638583183288574
1745654037.5100305,0.01053612306714058,-0.015337894670665264,-0.28352516889572144,0.41673755645751953,-0.712851881980896,-9.658638954162598
1745654037.540759,0.005914053414016962,-0.01837070658802986,-0.2829597592353821,0.360149085521698,-0.5193241834640503,-9.875774383544922
1745654037.5427792,0.011380295269191265,-0.009637648239731789,-0.28282368183135986,0.3796822726726532,-0.775144636631012,-9.793416976928711
1745654037.5443554,0.007971036247909069,-0.014944078400731087,-0.2868257164955139,0.3025798797607422,-0.5474685430526733,-9.594674110412598
1745654037.5471303,0.014792603440582752,-0.012596589513123035,-0.2867382764816284,0.3836541175842285,-0.7672414779663086,-9.75288200378418
1745654037.5848255,0.011040947400033474,-0.017171502113342285,-0.286125510931015,0.4812179505825043,-0.7054895758628845,-9.868972778320312
1745654037.5900729,0.0021494408138096333,-0.016040008515119553,-0.2830252945423126,0.3676770031452179,-0.5733996629714966,-9.726547241210938
1745654037.6014695,0.007206804119050503,-0.00951710157096386,-0.2859104573726654,0.4077795147895813,-0.7182746529579163,-9.785104751586914
1745654037.6015542,0.01040636282414198,-0.019810747355222702,-0.28755706548690796,0.44611454010009766,-0.6227442026138306,-9.819780349731445
1745654037.6289885,0.01029217429459095,-0.015577671118080616,-0.2887977957725525,0.2661348283290863,-0.7381932139396667,-9.890164375305176
1745654037.6337438,0.011467671021819115,-0.011080598458647728,-0.2846747040748596,0.5368682146072388,-0.8108356595039368,-9.679670333862305
1745654037.6338487,0.005076819099485874,-0.019261453300714493,-0.28197988867759705,0.3564341068267822,-0.7901045083999634,-9.701048851013184
1745654037.6343622,0.011946691200137138,-0.012995615601539612,-0.2824868857860565,0.5101372003555298,-0.7895596623420715,-9.778759956359863
1745654037.6710756,-0.0021727625280618668,-0.020478691905736923,-0.28195619583129883,0.4518462121486664,-0.6969028115272522,-9.780381202697754
1745654037.675515,0.013660525903105736,-0.013748766854405403,-0.2837478518486023,0.30452027916908264,-0.7012616395950317,-9.784682273864746
1745654037.6764126,-0.003844877239316702,-0.01787004992365837,-0.2832319140434265,0.47239309549331665,-0.5832902193069458,-9.658645629882812
1745654037.681536,0.0031820200383663177,-0.017965596169233322,-0.28638407588005066,0.2709920406341553,-0.7189137935638428,-9.851882934570312
1745654037.6821966,0.008111529052257538,-0.015413698740303516,-0.2847211956977844,0.4570886194705963,-0.7804409265518188,-9.86806583404541
1745654037.721744,-0.00020113997743465006,-0.01924576237797737,-0.2847568392753601,0.34131836891174316,-0.6260675191879272,-9.63764476776123
1745654037.7218022,0.006738788448274136,-0.012767699547111988,-0.283909410238266,0.4503715932369232,-0.8839931488037109,-9.619850158691406
1745654037.7220814,0.017502035945653915,-0.01569712720811367,-0.2815907299518585,0.4354037344455719,-0.7220731973648071,-9.671490669250488
1745654037.7426074,0.011850455775856972,-0.019306398928165436,-0.2835843563079834,0.2523922324180603,-0.657781720161438,-9.645650863647461
1745654037.7565124,0.015543174929916859,-0.016190608963370323,-0.2813177704811096,0.4747849404811859,-0.802183985710144,-9.776002883911133
1745654037.7606084,0.012020737864077091,-0.020519787445664406,-0.2839706838130951,0.31355518102645874,-0.5934883952140808,-9.890941619873047
1745654037.7620692,0.022051872685551643,-0.01478961855173111,-0.28365224599838257,0.42826882004737854,-0.7669157385826111,-9.723840713500977
1745654037.7636633,0.009126718156039715,-0.02265777438879013,-0.2823488414287567,0.4445432722568512,-0.6597326993942261,-9.568199157714844
1745654037.7655618,0.017838720232248306,-0.014072994701564312,-0.2821623682975769,0.3463137149810791,-0.8036874532699585,-9.82835865020752
1745654037.8002949,0.015559750609099865,-0.017312539741396904,-0.2816983163356781,0.528251051902771,-0.6309604048728943,-9.80490493774414
1745654037.8225439,0.011476555839180946,-0.015497392043471336,-0.28333768248558044,0.26248422265052795,-0.6649866104125977,-9.715825080871582
1745654037.8226378,0.012406429275870323,-0.012819083407521248,-0.28214168548583984,0.49179530143737793,-0.7788714170455933,-9.650650024414062
1745654037.8239906,0.01655072718858719,-0.02007312700152397,-0.283122718334198,0.3642410933971405,-0.49128207564353943,-9.80787467956543
1745654037.8422296,0.015708845108747482,-0.014755262061953545,-0.2844166159629822,0.4006943106651306,-0.7624914646148682,-9.940118789672852
1745654037.8469222,0.017484623938798904,-0.015624605119228363,-0.28640007972717285,0.42841219902038574,-0.59611976146698,-9.681172370910645
1745654037.8472998,0.0163222998380661,-0.014952296391129494,-0.2841586172580719,0.31540316343307495,-0.862703800201416,-9.614738464355469
1745654037.850357,0.012477846816182137,-0.018007641658186913,-0.282550573348999,0.5185021162033081,-0.7256452441215515,-9.729883193969727
1745654037.8845186,0.010661073960363865,-0.015105563215911388,-0.28282180428504944,0.3263038396835327,-0.7331981658935547,-9.960107803344727
1745654037.8881414,0.016719892621040344,-0.010482119396328926,-0.28143900632858276,0.4087587296962738,-0.7012742757797241,-9.745041847229004
1745654037.8915522,0.006216270849108696,-0.016101201996207237,-0.2851411700248718,0.36083313822746277,-0.572116494178772,-9.565277099609375
1745654037.8930833,0.012845955789089203,-0.015899354591965675,-0.283958375453949,0.4209132194519043,-0.7729223966598511,-9.849252700805664
1745654037.89698,0.014482386410236359,-0.01742003671824932,-0.28517401218414307,0.4146364629268646,-0.6816354393959045,-9.99915599822998
1745654037.9332144,0.015494981780648232,-0.010967105627059937,-0.2835537791252136,0.2831169664859772,-0.6229235529899597,-9.704813003540039
1745654037.9333203,0.011682666838169098,-0.014852484688162804,-0.2828742563724518,0.4706341624259949,-0.8200313448905945,-9.429356575012207
1745654037.9366887,0.015488934703171253,-0.010985134169459343,-0.2833731770515442,0.30929428339004517,-0.7222129702568054,-9.99942684173584
1745654037.9432101,0.02196933887898922,-0.009407942183315754,-0.2823500335216522,0.48709431290626526,-0.6796128749847412,-9.698686599731445
1745654037.9781046,0.018490852788090706,-0.013666504994034767,-0.2831270098686218,0.2907868027687073,-0.5741713643074036,-9.49096393585205
1745654037.984962,0.012893070466816425,-0.010620717890560627,-0.28450706601142883,0.5265274047851562,-0.8321934938430786,-9.768877983093262
1745654037.9890647,0.022864550352096558,-0.013662944547832012,-0.28354281187057495,0.36230722069740295,-0.6066967248916626,-9.979275703430176
1745654037.9894705,0.015555811114609241,-0.006672739051282406,-0.28195735812187195,0.3356875777244568,-0.7561812996864319,-9.874703407287598
1745654038.0212784,0.023761535063385963,-0.009976420551538467,-0.2828521132469177,0.4454900324344635,-0.6305218935012817,-9.52981948852539
1745654038.0214183,0.01635473594069481,-0.01292940229177475,-0.2823914885520935,0.31040579080581665,-0.6827466487884521,-9.733806610107422
1745654038.0214834,0.019494611769914627,-0.01335086952894926,-0.2825888991355896,0.558423638343811,-0.7548792362213135,-9.901285171508789
1745654038.0299888,0.013447538018226624,-0.01422521285712719,-0.28421658277511597,0.3113102316856384,-0.6957394480705261,-9.86433219909668
1745654038.0300941,0.017507191747426987,-0.007861687801778316,-0.28159618377685547,0.37742185592651367,-0.8668066263198853,-9.637722969055176
1745654038.0567467,0.006650902330875397,-0.015399901196360588,-0.2819724678993225,0.37235015630722046,-0.6162034869194031,-9.579203605651855
1745654038.0592048,0.006685084197670221,-0.01039410475641489,-0.28300708532333374,0.4118660092353821,-0.7434269189834595,-9.93737506866455
1745654038.0603032,0.010514977388083935,-0.014183945953845978,-0.28014063835144043,0.4620138108730316,-0.6969054341316223,-9.98137378692627
1745654038.065813,0.013953114859759808,-0.019345052540302277,-0.2771991789340973,0.3010157644748688,-0.6506025195121765,-9.841253280639648
1745654038.099456,0.010792749002575874,-0.013342490419745445,-0.2791231870651245,0.3722575902938843,-0.6350387930870056,-9.728594779968262
1745654038.1012063,0.013550412841141224,-0.016023194417357445,-0.27899807691574097,0.4327585697174072,-0.6048303842544556,-9.562942504882812
1745654038.1043906,0.022220473736524582,-0.009533151984214783,-0.27947431802749634,0.32989877462387085,-0.5371183753013611,-9.706164360046387
1745654038.1319413,0.02175500988960266,-0.019679490476846695,-0.2806684076786041,0.5947582125663757,-0.7378604412078857,-9.87210464477539
1745654038.1322324,0.02971360646188259,-0.0173641350120306,-0.27950146794319153,0.24454447627067566,-0.6192260384559631,-9.926712036132812
1745654038.1460724,0.027440795674920082,-0.011363949626684189,-0.2760944962501526,0.41407474875450134,-0.8834705352783203,-9.69803237915039
1745654038.1468437,0.022075362503528595,-0.01668517291545868,-0.27611279487609863,0.3046315312385559,-0.6076215505599976,-9.573163032531738
1745654038.1500642,0.01856244169175625,-0.014620008878409863,-0.2763597369194031,0.39907845854759216,-0.753439724445343,-9.811383247375488
1745654038.1565266,0.027108807116746902,-0.01792345568537712,-0.2803660035133362,0.5113802552223206,-0.6152238845825195,-9.754384994506836
1745654038.1880987,0.02650832012295723,-0.012837079353630543,-0.2787906229496002,0.2537575662136078,-0.6428477168083191,-9.685977935791016
1745654038.1907895,0.012746011838316917,-0.016319839283823967,-0.2803899049758911,0.5281603336334229,-0.8082517385482788,-9.671419143676758
1745654038.1920204,0.02548137679696083,-0.014894174411892891,-0.2798668146133423,0.28706270456314087,-0.6639723777770996,-9.8134183883667
1745654038.195695,0.017212096601724625,-0.012679134495556355,-0.2775135040283203,0.4387442469596863,-0.8112261891365051,-9.919797897338867
1745654038.1957583,0.025463173165917397,-0.01681225746870041,-0.2774825096130371,0.3911691904067993,-0.6264897584915161,-9.738779067993164
1745654038.2339242,0.023002909496426582,-0.013286350294947624,-0.27603086829185486,0.38137513399124146,-0.7223761677742004,-9.716917991638184
1745654038.2343009,0.0283635463565588,-0.021774735301733017,-0.2770625948905945,0.5305792093276978,-0.6458808183670044,-9.71580982208252
1745654038.2425926,0.02594102919101715,-0.017213409766554832,-0.27578625082969666,0.290019690990448,-0.696227490901947,-9.858189582824707
1745654038.2427053,0.028594261035323143,-0.014350004494190216,-0.2778143882751465,0.46649202704429626,-0.8067256808280945,-9.723444938659668
1745654038.2779863,0.02553522028028965,-0.016204798594117165,-0.2771095633506775,0.2942907512187958,-0.595892071723938,-9.60131549835205
1745654038.2780867,0.011348092928528786,-0.015869146212935448,-0.27833089232444763,0.4456101059913635,-0.85472571849823,-9.783175468444824
1745654038.2806902,0.018066400662064552,-0.019344765692949295,-0.2781847417354584,0.39757680892944336,-0.7074469327926636,-9.935097694396973
1745654038.2849715,0.014893176965415478,-0.011090673506259918,-0.27473515272140503,0.41354578733444214,-0.8534395098686218,-9.547555923461914
1745654038.3180506,0.01852291449904442,-0.02412031777203083,-0.2754271626472473,0.36166733503341675,-0.546407163143158,-9.678291320800781
1745654038.3287385,0.011075960472226143,-0.016330603510141373,-0.2773359715938568,0.3767613172531128,-0.6632320880889893,-9.992036819458008
1745654038.3292024,0.01705017127096653,-0.017293699085712433,-0.2797262668609619,0.4734818935394287,-0.7092215418815613,-9.833961486816406
1745654038.343557,0.023159848526120186,-0.015092955902218819,-0.27946585416793823,0.22490176558494568,-0.7316495776176453,-9.572532653808594
1745654038.364233,0.004933379590511322,-0.01961856335401535,-0.27849864959716797,0.6220053434371948,-0.8574239611625671,-9.57422161102295
1745654038.367768,0.012568851932883263,-0.017960472032427788,-0.2756994664669037,0.36077800393104553,-0.7160590291023254,-9.905731201171875
1745654038.3738525,0.006458485033363104,-0.010650227777659893,-0.2768182158470154,0.34628233313560486,-0.7330094575881958,-9.919422149658203
1745654038.3750193,0.01678035967051983,-0.0179375521838665,-0.2750470042228699,0.4461537301540375,-0.6537327170372009,-9.551198959350586
1745654038.3790014,0.01477428711950779,-0.01685570552945137,-0.27720949053764343,0.3444916307926178,-0.63246089220047,-9.700674057006836
1745654038.4034402,0.017917077988386154,-0.024303406476974487,-0.2761165499687195,0.46881788969039917,-0.6837329864501953,-9.998557090759277
1745654038.4060538,0.014612004160881042,-0.015675503760576248,-0.27925175428390503,0.2090684473514557,-0.6218484044075012,-9.892351150512695
1745654038.409881,0.01679736003279686,-0.012749351561069489,-0.2772657871246338,0.4067899286746979,-0.8720938563346863,-9.443016052246094
1745654038.4118824,0.019481908529996872,-0.021575234830379486,-0.27704691886901855,0.48206353187561035,-0.6249828338623047,-9.470073699951172
1745654038.446662,0.013535970821976662,-0.014077477157115936,-0.27427178621292114,0.2403613030910492,-0.5941122174263,-9.529393196105957
1745654038.4470656,0.0019118994241580367,-0.020590398460626602,-0.27560535073280334,0.473460853099823,-0.7873336672782898,-9.618711471557617
1745654038.450735,0.01603507623076439,-0.019505225121974945,-0.27407845854759216,0.33150753378868103,-0.6606096625328064,-10.013291358947754
1745654038.4509284,0.012068684212863445,-0.01447218842804432,-0.27393943071365356,0.4402143359184265,-0.7032450437545776,-9.845392227172852
1745654038.4538975,0.0118710333481431,-0.021165983751416206,-0.27411890029907227,0.4658113420009613,-0.7681436538696289,-9.529729843139648
1745654038.4896028,0.017689649015665054,-0.0178428515791893,-0.2732219099998474,0.4016727805137634,-0.6730020642280579,-9.669778823852539
1745654038.492904,0.008690021932125092,-0.022906212136149406,-0.2720349133014679,0.5334653854370117,-0.8167220950126648,-9.95008659362793
1745654038.4979508,0.018125751987099648,-0.01564711332321167,-0.27153366804122925,0.23508815467357635,-0.6489592790603638,-9.8407621383667
1745654038.4987721,0.007784190587699413,-0.01664094254374504,-0.2720334827899933,0.4718942642211914,-0.8458412289619446,-9.571154594421387
1745654038.5330443,0.0117352195084095,-0.02462891861796379,-0.2737653851509094,0.2729427218437195,-0.566520094871521,-9.689509391784668
1745654038.5331707,0.002972173970192671,-0.017182927578687668,-0.2723957598209381,0.42062464356422424,-0.7373319268226624,-9.972478866577148
1745654038.5349758,0.013609196059405804,-0.02096744440495968,-0.2738715708255768,0.41775327920913696,-0.675701379776001,-9.769795417785645
1745654038.5480025,0.01944829896092415,-0.015377332456409931,-0.2735869884490967,0.2558210790157318,-0.7040835618972778,-9.544958114624023
1745654038.5484605,0.0023269732482731342,-0.022050034254789352,-0.2726237177848816,0.5971332788467407,-0.7650111317634583,-9.65067195892334
1745654038.5734668,0.021351398900151253,-0.01539685856550932,-0.2724972367286682,0.3191533386707306,-0.666115403175354,-9.91966438293457
1745654038.5755224,0.010999093763530254,-0.015557142905890942,-0.2698841094970703,0.42831000685691833,-0.7320876717567444,-9.85158634185791
1745654038.576079,0.023578306660056114,-0.019294004887342453,-0.2720361351966858,0.3310353755950928,-0.5795870423316956,-9.60963249206543
1745654038.5778992,0.016498375684022903,-0.01527975033968687,-0.27180129289627075,0.37216702103614807,-0.6946398019790649,-9.760147094726562
1745654038.6158402,0.021991634741425514,-0.021081702783703804,-0.27310431003570557,0.46373802423477173,-0.6528171300888062,-9.872581481933594
1745654038.6220293,0.01396546233445406,-0.016051767393946648,-0.27424582839012146,0.3317036032676697,-0.7573564648628235,-9.812152862548828
1745654038.6247542,0.01670731231570244,-0.018846848979592323,-0.2727294862270355,0.47595128417015076,-0.8713375329971313,-9.615370750427246
1745654038.6251318,0.017708677798509598,-0.017377492040395737,-0.2725053131580353,0.35485196113586426,-0.6318948864936829,-9.647485733032227
1745654038.6671877,0.016460809856653214,-0.02083013765513897,-0.2735608220100403,0.4783506393432617,-0.8189207315444946,-9.729092597961426
1745654038.6678205,0.028160911053419113,-0.01705898717045784,-0.2723488211631775,0.3267154097557068,-0.6333346366882324,-9.79542064666748
1745654038.673604,0.01260398793965578,-0.013896982185542583,-0.27509453892707825,0.5003921985626221,-0.951052188873291,-9.782275199890137
1745654038.6752777,0.01953880488872528,-0.02022523619234562,-0.2722145915031433,0.39235788583755493,-0.7033815383911133,-9.748562812805176
1745654038.7032387,0.005655224435031414,-0.015588092617690563,-0.2716945707798004,0.4364646077156067,-0.8114795684814453,-9.815366744995117
1745654038.7079754,0.0062219202518463135,-0.020648904144763947,-0.2721700668334961,0.4153398871421814,-0.7294409275054932,-9.7877197265625
1745654038.7080572,0.021962694823741913,-0.014397727325558662,-0.2719041705131531,0.2467469424009323,-0.6177645921707153,-9.707075119018555
1745654038.7116685,0.008563872426748276,-0.020338933914899826,-0.27401891350746155,0.5240803956985474,-0.6444541811943054,-9.566736221313477
1745654038.713169,0.022404354065656662,-0.017973462119698524,-0.2721084654331207,0.30804243683815,-0.6306502223014832,-9.758855819702148
1745654038.7513695,0.020778536796569824,-0.013484137132763863,-0.27375856041908264,0.38143497705459595,-0.7215606570243835,-9.855985641479492
1745654038.751429,0.024309484288096428,-0.016292935237288475,-0.2720663547515869,0.41629600524902344,-0.7065762877464294,-9.797728538513184
1745654038.7518888,0.019546307623386383,-0.013772105798125267,-0.2731586992740631,0.3930169343948364,-0.7801843881607056,-9.725475311279297
1745654038.7528872,0.017055239528417587,-0.020419705659151077,-0.27121439576148987,0.5140807628631592,-0.8279770612716675,-9.739542007446289
1745654038.78978,0.017073146998882294,-0.01805039867758751,-0.27087321877479553,0.3302212357521057,-0.7187412977218628,-9.839153289794922
1745654038.796206,0.022336402907967567,-0.021365821361541748,-0.26835399866104126,0.30041009187698364,-0.6926237344741821,-9.828737258911133
1745654038.7987437,0.010113494470715523,-0.01644379086792469,-0.26785412430763245,0.385241836309433,-0.822174072265625,-9.704590797424316
1745654038.8019009,0.012395327910780907,-0.01710674725472927,-0.2682983875274658,0.40275949239730835,-0.760989248752594,-9.631368637084961
1745654038.8343034,0.01631835103034973,-0.015678804367780685,-0.2703982889652252,0.39187654852867126,-0.6680716872215271,-9.702713966369629
1745654038.8400068,-0.0005166867631487548,-0.0206658523529768,-0.2704007923603058,0.478924036026001,-0.762966513633728,-9.90992546081543
1745654038.8404574,0.015267481096088886,-0.015310617163777351,-0.2693597078323364,0.28545790910720825,-0.7593032121658325,-9.911161422729492
1745654038.8408027,0.006824520416557789,-0.01625470072031021,-0.2699507474899292,0.3856488764286041,-0.7144576907157898,-9.64329719543457
1745654038.847487,0.009951104409992695,-0.02247283235192299,-0.2686748504638672,0.28526705503463745,-0.6886675953865051,-9.647085189819336
1745654038.8775785,0.017045442014932632,-0.011122082360088825,-0.26764047145843506,0.39206719398498535,-0.5969789028167725,-9.802379608154297
1745654038.8817523,0.012284008786082268,-0.019027303904294968,-0.2712690234184265,0.4132523536682129,-0.6922885179519653,-9.746196746826172
1745654038.8857045,0.02099890634417534,-0.013272588141262531,-0.26880764961242676,0.36764878034591675,-0.6993042826652527,-9.729926109313965
1745654038.889216,0.007061611860990524,-0.020464424043893814,-0.2683612108230591,0.50119549036026,-0.8776871562004089,-9.796895980834961
1745654038.918171,0.02141689695417881,-0.017239730805158615,-0.2693955600261688,0.21069326996803284,-0.6567793488502502,-9.923949241638184
1745654038.9232664,0.004007864743471146,-0.013569697737693787,-0.2666906714439392,0.43879246711730957,-0.7740057706832886,-9.722833633422852
1745654038.927913,0.012760959565639496,-0.01819814369082451,-0.2687841057777405,0.31917449831962585,-0.6409894227981567,-9.605392456054688
1745654038.928008,0.020018722862005234,-0.01494649052619934,-0.2698659300804138,0.3649515211582184,-0.6847702860832214,-9.738954544067383
1745654038.9321814,0.008046005852520466,-0.02042585238814354,-0.26945048570632935,0.5107556581497192,-0.5864383578300476,-9.82125473022461
1745654038.9640315,0.021574504673480988,-0.01118503324687481,-0.27139902114868164,0.31388065218925476,-0.7835977673530579,-9.816171646118164
1745654038.9651864,0.012238340452313423,-0.015554258599877357,-0.2707155644893646,0.41184693574905396,-0.7176485657691956,-9.667927742004395
1745654038.9669394,0.01830807700753212,-0.01715816929936409,-0.26824951171875,0.3245012164115906,-0.7744110822677612,-9.84402084350586
1745654038.9757457,0.01267976500093937,-0.01201648823916912,-0.26558923721313477,0.4171694815158844,-0.7690476179122925,-9.885876655578613
1745654039.0078356,0.019604526460170746,-0.01802368275821209,-0.2666150629520416,0.33622753620147705,-0.6874728798866272,-9.708247184753418
1745654039.0083938,0.007235032506287098,-0.018325548619031906,-0.26866379380226135,0.3410657048225403,-0.6515029668807983,-9.869319915771484
1745654039.009289,0.022122474387288094,-0.00979672186076641,-0.2683616280555725,0.40663009881973267,-0.6350402235984802,-9.766489028930664
1745654039.011486,0.010012011043727398,-0.01758449710905552,-0.27038079500198364,0.41212931275367737,-0.7122158408164978,-9.695155143737793
1745654039.0462635,0.02427411451935768,-0.012561604380607605,-0.2713783383369446,0.3281284272670746,-0.6641644239425659,-9.806547164916992
1745654039.0515425,0.005407552234828472,-0.016121063381433487,-0.27116063237190247,0.4847855567932129,-0.8649852871894836,-9.774937629699707
1745654039.0517051,0.020735492929816246,-0.015006372705101967,-0.2703340947628021,0.2577647566795349,-0.68194180727005,-9.758185386657715
1745654039.06133,0.004240160807967186,-0.01247658021748066,-0.27310124039649963,0.4867766499519348,-0.7442988157272339,-9.688750267028809
1745654039.0633714,0.00436950009316206,-0.01821853779256344,-0.27085644006729126,0.38630571961402893,-0.7364333868026733,-9.814858436584473
1745654039.0937624,0.014789116568863392,-0.01107937004417181,-0.27149826288223267,0.45312047004699707,-0.7546106576919556,-9.89177131652832
1745654039.0987182,-0.0025985222309827805,-0.021324601024389267,-0.27432435750961304,0.4453330636024475,-0.6590015888214111,-9.717438697814941
1745654039.0992134,0.013777139596641064,-0.010686153545975685,-0.2715608775615692,0.2811603844165802,-0.7537484765052795,-9.708030700683594
1745654039.1007442,0.006236416287720203,-0.01527500431984663,-0.2738993465900421,0.42694178223609924,-0.6823793649673462,-9.656855583190918
1745654039.1627016,0.013155050575733185,-0.01693119667470455,-0.27115732431411743,0.33028364181518555,-0.6866713762283325,-9.77438735961914
1745654039.1630323,0.011007621884346008,-0.0128676388412714,-0.2711828649044037,0.4514586329460144,-0.7221387028694153,-9.804010391235352
1745654039.1641269,0.023249533027410507,-0.018231447786092758,-0.27378350496292114,0.28168386220932007,-0.6767361164093018,-9.834165573120117
1745654039.1641777,0.012041768059134483,-0.01715737022459507,-0.2733474373817444,0.4841606616973877,-0.6897881031036377,-9.733044624328613
1745654039.1747565,0.01656159572303295,-0.019500713795423508,-0.2742263376712799,0.28241801261901855,-0.7281866073608398,-9.712691307067871
1745654039.1782966,0.022199299186468124,-0.012551669962704182,-0.2740539610385895,0.4611120820045471,-0.7585331797599792,-9.629538536071777
1745654039.1788287,0.01172298938035965,-0.02381093241274357,-0.2748188078403473,0.39512038230895996,-0.6958140134811401,-9.714677810668945
1745654039.18067,0.013681275770068169,-0.01050564181059599,-0.2729763388633728,0.4209703803062439,-0.8257910013198853,-9.896615028381348
1745654039.1851907,0.014165043830871582,-0.0201689712703228,-0.2702339291572571,0.45070481300354004,-0.6671282052993774,-9.778654098510742
1745654039.2204168,0.014279785566031933,-0.019553858786821365,-0.273244708776474,0.2503719627857208,-0.7400718927383423,-9.796455383300781
1745654039.2236164,0.01933637447655201,-0.013713519088923931,-0.2717985212802887,0.47753915190696716,-0.6200937032699585,-9.624252319335938
1745654039.2270653,0.01421899814158678,-0.022463930770754814,-0.2735188901424408,0.310634583234787,-0.6733965277671814,-9.707173347473145
1745654039.2587833,0.025341827422380447,-0.014272731728851795,-0.27125799655914307,0.4284140467643738,-0.7057147026062012,-9.793329238891602
1745654039.3007886,0.011717965826392174,-0.02181887812912464,-0.27233821153640747,0.4099043905735016,-0.7218750715255737,-9.737642288208008
1745654039.3009615,0.028236448764801025,-0.01508699543774128,-0.2722631096839905,0.2927703261375427,-0.7655808925628662,-9.753314018249512
1745654039.301992,0.0140932472422719,-0.018584635108709335,-0.27147525548934937,0.5188239812850952,-0.6714135408401489,-9.697507858276367
1745654039.3020275,0.017930317670106888,-0.018521983176469803,-0.27220264077186584,0.3298521339893341,-0.7500184178352356,-9.879168510437012
1745654039.319935,0.026194408535957336,-0.013422866351902485,-0.27107101678848267,0.49889564514160156,-0.7882245182991028,-9.823941230773926
1745654039.3202016,0.016864458099007607,-0.02256537415087223,-0.27045851945877075,0.3410143256187439,-0.6472463607788086,-9.644372940063477
1745654039.3202634,0.023039231076836586,-0.014982323162257671,-0.2702087461948395,0.38162022829055786,-0.8456752896308899,-9.685262680053711
1745654039.3203142,0.016670575365424156,-0.018862944096326828,-0.27112627029418945,0.3407895565032959,-0.5854285359382629,-9.734354019165039
1745654039.323386,0.021093931049108505,-0.01545735914260149,-0.2721017003059387,0.319052129983902,-0.7877820730209351,-9.814391136169434
1745654039.3610978,0.0176151804625988,-0.01863170601427555,-0.27208811044692993,0.4856953024864197,-0.7047296762466431,-9.725680351257324
1745654039.3614123,0.01800018548965454,-0.022438054904341698,-0.2720349133014679,0.34159573912620544,-0.7883924245834351,-9.876274108886719
1745654039.3617492,0.01807897724211216,-0.013122444972395897,-0.2735954225063324,0.39281418919563293,-0.6869117021560669,-9.925907135009766
1745654039.3730402,0.02403419092297554,-0.014978274703025818,-0.27054503560066223,0.4621097445487976,-0.7070501446723938,-9.693416595458984
1745654039.391808,0.016555285081267357,-0.018829545006155968,-0.27294039726257324,0.2827160656452179,-0.7240737676620483,-9.73888111114502
1745654039.3952646,0.026356209069490433,-0.01792505383491516,-0.2715417742729187,0.4593592584133148,-0.8027015924453735,-9.810734748840332
1745654039.3960886,0.016980450600385666,-0.01843474991619587,-0.26988300681114197,0.2945328652858734,-0.6617127656936646,-9.840505599975586
1745654039.404114,0.026099884882569313,-0.012432239949703217,-0.271880567073822,0.3897164463996887,-0.8020523190498352,-9.643563270568848
1745654039.4359853,0.007858367636799812,-0.022390680387616158,-0.27022263407707214,0.5092876553535461,-0.7335630059242249,-9.585226058959961
1745654039.4483116,0.020246874541044235,-0.01797436736524105,-0.2736967206001282,0.33599740266799927,-0.7925664186477661,-9.971808433532715
1745654039.4483976,0.017333190888166428,-0.01669967733323574,-0.2724209725856781,0.4675529897212982,-0.667983889579773,-9.769218444824219
1745654039.4687545,0.005939655005931854,-0.018354211002588272,-0.2718093693256378,0.28238362073898315,-0.7066377401351929,-9.668328285217285
1745654039.4695764,0.016205472871661186,-0.016111232340335846,-0.271838515996933,0.4584820866584778,-0.8661379814147949,-9.70433235168457
1745654039.4834194,0.010484924539923668,-0.02433447167277336,-0.2714404761791229,0.37119078636169434,-0.5951506495475769,-9.868825912475586
1745654039.483518,0.01696469821035862,-0.013661215081810951,-0.27083173394203186,0.3072493076324463,-0.8088635206222534,-9.867940902709961
1745654039.485234,0.016792187467217445,-0.017308373004198074,-0.2734658122062683,0.41482335329055786,-0.5615972280502319,-9.498025894165039
1745654039.488324,0.023616766557097435,-0.017351049929857254,-0.2645222544670105,0.4279581606388092,-0.6881678104400635,-9.998825073242188
1745654039.5308936,0.03227399289608002,-0.009577745571732521,-0.2656397819519043,0.2322864979505539,-0.8053749203681946,-9.97781753540039
1745654039.5309763,0.023011382669210434,-0.012553076259791851,-0.26781564950942993,0.4247286915779114,-0.6888396739959717,-9.442266464233398
1745654039.5310426,0.019088152796030045,-0.016568686813116074,-0.2680622637271881,0.34407687187194824,-0.7245065569877625,-9.5878267288208
1745654039.531076,0.028182080015540123,-0.013636311516165733,-0.26899656653404236,0.5290126204490662,-0.8306468725204468,-9.922350883483887
1745654039.564006,0.01896403729915619,-0.01724768429994583,-0.2691345512866974,0.32242655754089355,-0.7147849798202515,-9.886312484741211
1745654039.57074,0.0159860011190176,-0.006764447782188654,-0.26769381761550903,0.3230859041213989,-0.9052196741104126,-9.651311874389648
1745654039.5709832,0.018791120499372482,-0.016975555568933487,-0.2662685513496399,0.4126383662223816,-0.6920257806777954,-9.523553848266602
1745654039.5764532,0.016032245010137558,-0.014458050951361656,-0.2669776380062103,0.3103954792022705,-0.7152316570281982,-9.953222274780273
1745654039.5803175,0.02692539617419243,-0.012471141293644905,-0.26723507046699524,0.5308778285980225,-0.6779035329818726,-9.928635597229004
1745654039.6067133,0.02428111620247364,-0.01622099056839943,-0.26693785190582275,0.25666069984436035,-0.6761642694473267,-9.66736125946045
1745654039.6130617,0.03083304688334465,-0.013359487056732178,-0.2666589915752411,0.4190157353878021,-0.8063530921936035,-9.547866821289062
1745654039.613136,0.015414038673043251,-0.021569443866610527,-0.266014963388443,0.385026752948761,-0.7964441776275635,-9.776270866394043
1745654039.6216404,0.03086141124367714,-0.009613663889467716,-0.26577135920524597,0.2756335735321045,-0.8341201543807983,-9.955615043640137
1745654039.6737194,0.017635023221373558,-0.012991572730243206,-0.26404887437820435,0.4747576117515564,-0.6780354380607605,-9.57512092590332
1745654039.673823,0.014371134340763092,-0.016782335937023163,-0.26684385538101196,0.32687538862228394,-0.7749791145324707,-9.655561447143555
1745654039.6739063,0.02049940824508667,-0.015948092564940453,-0.2665639817714691,0.546899676322937,-0.8439887166023254,-9.875574111938477
1745654039.675924,0.014137247577309608,-0.018428850919008255,-0.26631662249565125,0.31475380063056946,-0.6560263633728027,-9.913569450378418
1745654039.6783068,0.019365813583135605,-0.011824098415672779,-0.2677953839302063,0.3565705716609955,-0.9398456811904907,-9.701172828674316
1745654039.6943777,0.012892523780465126,-0.015339751727879047,-0.2657904624938965,0.40646544098854065,-0.647942841053009,-9.45462417602539
1745654039.6979852,0.012507552281022072,-0.015301242470741272,-0.26513996720314026,0.3957800567150116,-0.898774266242981,-9.827413558959961
1745654039.6999424,0.015459400601685047,-0.016480864956974983,-0.26341527700424194,0.45860177278518677,-0.6976103782653809,-9.92732048034668
1745654039.7050722,0.01582414098083973,-0.014910900965332985,-0.26563704013824463,0.29099780321121216,-0.7524071931838989,-9.86445140838623
1745654039.7389765,0.010426000691950321,-0.018087560310959816,-0.26401740312576294,0.3673609793186188,-0.7418457269668579,-9.609796524047852
1745654039.7411895,0.00307150324806571,-0.016557268798351288,-0.2681339383125305,0.41255101561546326,-0.7993535399436951,-9.605714797973633
1745654039.7417197,0.005693678278476,-0.019344540312886238,-0.26415306329727173,0.5230140089988708,-0.75807785987854,-9.749223709106445
1745654039.746359,0.006379550788551569,-0.018830647692084312,-0.26536768674850464,0.27514058351516724,-0.6683632135391235,-10.019649505615234
1745654039.77928,0.011543221771717072,-0.014085988514125347,-0.26710647344589233,0.4457830488681793,-0.778753399848938,-9.771990776062012
1745654039.7829063,0.005866184365004301,-0.019893163815140724,-0.2648908495903015,0.3421115279197693,-0.711394190788269,-9.593109130859375
1745654039.7960272,0.0150203388184309,-0.018546007573604584,-0.2650325894355774,0.3957700729370117,-0.7865179777145386,-9.751980781555176
1745654039.8002343,0.0010502703953534365,-0.02081005834043026,-0.2662828862667084,0.4300059378147125,-0.7873311638832092,-9.859113693237305
1745654039.801592,0.01582879200577736,-0.011223445646464825,-0.2647956907749176,0.2874259948730469,-0.8440702557563782,-9.757490158081055
1745654039.8267264,0.0035970197059214115,-0.017572423443198204,-0.2653190791606903,0.551533043384552,-0.7364773750305176,-9.448041915893555
1745654039.826911,-0.0016960703069344163,-0.02306206151843071,-0.2652847468852997,0.32754236459732056,-0.7855149507522583,-9.836443901062012
1745654039.8271322,0.003232146380469203,-0.013312953524291515,-0.2648736238479614,0.4403421878814697,-0.8844980001449585,-10.027366638183594
1745654039.8879514,0.005465435329824686,-0.022972241044044495,-0.2678510248661041,0.30882951617240906,-0.5230517387390137,-9.63862419128418
1745654039.8880975,0.0054206037893891335,-0.01756034418940544,-0.2670888602733612,0.39896005392074585,-0.8559353947639465,-9.841028213500977
1745654039.888435,0.005511025432497263,-0.020184006541967392,-0.2648918330669403,0.4317001402378082,-0.6740943193435669,-9.760698318481445
1745654039.8897626,0.007092452608048916,-0.018832271918654442,-0.26779335737228394,0.2850080132484436,-0.7522293925285339,-9.777544975280762
1745654039.9081678,0.002874048426747322,-0.02298804558813572,-0.26661720871925354,0.4369202256202698,-0.7310066223144531,-9.766942977905273
1745654039.9092436,-0.0029278334695845842,-0.019214417785406113,-0.26710981130599976,0.2967842221260071,-0.6914010047912598,-9.81812858581543
1745654039.9134963,0.0066552916541695595,-0.020548444241285324,-0.2687612473964691,0.5063413381576538,-0.8368865847587585,-9.728702545166016
1745654039.9135876,0.002016741316765547,-0.024851705878973007,-0.2661191523075104,0.3305465579032898,-0.6503386497497559,-9.680902481079102
1745654039.9149382,-0.004465825855731964,-0.016604037955403328,-0.2673701345920563,0.4040496349334717,-0.7954163551330566,-9.788387298583984
1745654039.9603138,0.004648204892873764,-0.020326262339949608,-0.26840463280677795,0.4646495282649994,-0.6791919469833374,-9.673001289367676
1745654039.961612,-0.0009005451574921608,-0.021900730207562447,-0.2667684555053711,0.280178427696228,-0.6433143615722656,-9.837228775024414
1745654039.9617257,0.0055511994287371635,-0.01882045343518257,-0.2703157663345337,0.5067945718765259,-0.7206746935844421,-9.868491172790527
1745654039.9617908,0.0040484522469341755,-0.024769790470600128,-0.26780709624290466,0.2958175241947174,-0.6359789371490479,-9.868416786193848
1745654040.0020695,0.006655871868133545,-0.020792048424482346,-0.2707800567150116,0.4619280695915222,-0.871242344379425,-9.694936752319336
1745654040.00227,-0.006931378040462732,-0.03008599579334259,-0.2653072476387024,0.35913732647895813,-0.7322370409965515,-9.651928901672363
1745654040.002848,0.003708231495693326,-0.0177321694791317,-0.26732051372528076,0.30772560834884644,-0.8112949132919312,-9.839624404907227
1745654040.0029082,-0.00033380946842953563,-0.019394654780626297,-0.2668147385120392,0.4712492823600769,-0.5884643197059631,-9.636815071105957
1745654040.004002,-0.0017397177871316671,-0.022429781034588814,-0.26771870255470276,0.31521618366241455,-0.649898886680603,-9.695116996765137
1745654040.037596,0.001391884172335267,-0.018976489081978798,-0.2700391709804535,0.48548755049705505,-0.7391301393508911,-9.852886199951172
1745654040.040845,0.009657299146056175,-0.023144613951444626,-0.2701790928840637,0.24501562118530273,-0.5278012156486511,-9.93585205078125
1745654040.044437,0.009908623993396759,-0.01592112146317959,-0.2715846002101898,0.3807526230812073,-0.8180634379386902,-9.68582534790039
1745654040.0470793,0.008663790300488472,-0.02146466076374054,-0.27115148305892944,0.4216333329677582,-0.5998978018760681,-9.511941909790039
1745654040.0824485,0.00638724397867918,-0.018826929852366447,-0.2700948119163513,0.3622512221336365,-0.8757963180541992,-9.820260047912598
1745654040.0830832,-0.007665955927222967,-0.022321058437228203,-0.2676670253276825,0.3110007345676422,-0.5914328694343567,-9.84339714050293
1745654040.0837295,-0.001054459484294057,-0.015352845191955566,-0.2715103030204773,0.3726043403148651,-0.8266744613647461,-9.93891716003418
1745654040.0863693,0.0046862103044986725,-0.019699783995747566,-0.2719149887561798,0.37040895223617554,-0.6260994076728821,-9.635499954223633
1745654040.1252759,-0.004632436670362949,-0.01953345164656639,-0.2706347107887268,0.3989684283733368,-0.7001148462295532,-9.57296085357666
1745654040.1254177,-0.00018368707969784737,-0.018556464463472366,-0.2711451053619385,0.5291393995285034,-0.7546592950820923,-9.773002624511719
1745654040.133622,0.0015987239312380552,-0.017409715801477432,-0.2703675329685211,0.2857831120491028,-0.6250852942466736,-9.978631019592285
1745654040.1352372,0.0040966239757835865,-0.01641026698052883,-0.268004834651947,0.5375404357910156,-0.8713083267211914,-9.780119895935059
1745654040.1352828,-0.0012016994878649712,-0.021729983389377594,-0.26719075441360474,0.2907699942588806,-0.6284390091896057,-9.679487228393555
1745654040.187774,0.005532034672796726,-0.018120091408491135,-0.26728200912475586,0.3523842394351959,-0.834304690361023,-9.842918395996094
1745654040.1883283,-0.004314541816711426,-0.01958162523806095,-0.2671823799610138,0.3571447432041168,-0.5833977460861206,-9.765923500061035
1745654040.1883724,-0.0006717193755321205,-0.014982625842094421,-0.2703006863594055,0.2869930863380432,-0.719828724861145,-9.683995246887207
1745654040.188754,0.004527420271188021,-0.016347913071513176,-0.27207517623901367,0.5007622241973877,-0.6445254683494568,-9.547441482543945
1745654040.208262,-0.0006410382920876145,-0.01927432045340538,-0.26961955428123474,0.2886370122432709,-0.6089709401130676,-9.857221603393555
1745654040.211904,-0.0045845480635762215,-0.01691758632659912,-0.2697520852088928,0.4712604582309723,-0.7396507263183594,-9.711118698120117
1745654040.2134366,0.004937910474836826,-0.017228761687874794,-0.27260440587997437,0.2610267996788025,-0.5540304780006409,-9.79272747039795
1745654040.2175856,-0.0039857057854533195,-0.01763857528567314,-0.2704160213470459,0.45147138833999634,-0.7836349606513977,-9.812469482421875
1745654040.2551632,0.011008581146597862,-0.014192208647727966,-0.27122583985328674,0.26178357005119324,-0.49057117104530334,-9.738131523132324
1745654040.266801,0.005821222439408302,-0.015246549621224403,-0.2699507772922516,0.42248764634132385,-0.7862661480903625,-9.647676467895508
1745654040.2759182,0.011395429261028767,-0.017386840656399727,-0.270804226398468,0.4271377623081207,-0.548522412776947,-9.685506820678711
1745654040.2820268,0.007955632172524929,-0.013376230373978615,-0.27160578966140747,0.4155508577823639,-0.8121590614318848,-9.903446197509766
1745654040.2824612,0.009524926543235779,-0.02008337341248989,-0.2708891034126282,0.4712664484977722,-0.6716228723526001,-9.830672264099121
1745654040.3016176,-0.0016942055663093925,-0.01680729165673256,-0.27138444781303406,0.31747037172317505,-0.722253143787384,-9.749994277954102
1745654040.3490558,-0.002489730017259717,-0.018515657633543015,-0.27035146951675415,0.5009687542915344,-0.898827075958252,-9.680492401123047
1745654040.3491766,0.002809276105836034,-0.02156853675842285,-0.27044957876205444,0.2643710970878601,-0.5971993803977966,-9.774848937988281
1745654040.349704,-0.00977418851107359,-0.012946605682373047,-0.2721721827983856,0.45308318734169006,-0.6814731359481812,-9.759590148925781
1745654040.3506947,0.00326065206900239,-0.01758059859275818,-0.2733536958694458,0.34642294049263,-0.5810726881027222,-9.602900505065918
1745654040.3518012,0.001368065015412867,-0.012620660476386547,-0.2742677330970764,0.27084141969680786,-0.6043044924736023,-9.6770658493042
1745654040.3519168,0.006736862473189831,-0.021962562575936317,-0.272941529750824,0.5609055161476135,-0.7225350141525269,-9.888608932495117
1745654040.353101,0.009379114024341106,-0.017062503844499588,-0.2726662755012512,0.2718626856803894,-0.6503053903579712,-9.995317459106445
1745654040.3987727,0.008365213871002197,-0.01802467741072178,-0.2716872990131378,0.4659426212310791,-0.8365647196769714,-9.746591567993164
1745654040.399302,0.004894999787211418,-0.02032933384180069,-0.26896756887435913,0.2936837077140808,-0.5787581205368042,-9.521177291870117
1745654040.3993523,0.007674975786358118,-0.013073734939098358,-0.2694229483604431,0.4470303952693939,-0.8323358297348022,-9.715394973754883
1745654040.4013805,0.009219469502568245,-0.020509030669927597,-0.2708483636379242,0.4591381549835205,-0.5180536508560181,-9.75839900970459
1745654040.4018424,0.0066190361976623535,-0.01374753750860691,-0.27399128675460815,0.2607855200767517,-0.6627955436706543,-9.815518379211426
1745654040.4259439,0.0026469454169273376,-0.014171482995152473,-0.27359330654144287,0.4652841091156006,-0.7081449627876282,-9.664527893066406
1745654040.4317966,0.008188044652342796,-0.014196230098605156,-0.2706918716430664,0.31580787897109985,-0.7054232358932495,-9.866259574890137
1745654040.4318838,0.016050230711698532,-0.01598806492984295,-0.2714315950870514,0.43369418382644653,-0.6595536470413208,-9.905808448791504
1745654040.4326615,0.012203255668282509,-0.013956579379737377,-0.27144932746887207,0.2581378221511841,-0.5361148118972778,-9.707222938537598
1745654040.4682674,0.0042245397344231606,-0.016322627663612366,-0.27333688735961914,0.42822784185409546,-0.7614442110061646,-9.652938842773438
1745654040.5574543,0.01689830981194973,-0.016185862943530083,-0.27406588196754456,0.31426912546157837,-0.622228741645813,-9.784039497375488
1745654040.557578,0.009036536328494549,-0.011318037286400795,-0.2750512957572937,0.41804662346839905,-0.7050914764404297,-9.804193496704102
1745654040.5576339,0.010264960117638111,-0.017711205407977104,-0.27462077140808105,0.4772929549217224,-0.7340481877326965,-9.6747465133667
1745654040.5581503,0.014691248536109924,-0.012588287703692913,-0.2725256383419037,0.3173883557319641,-0.6397942304611206,-9.711584091186523
1745654040.559169,0.009232373908162117,-0.01723320223391056,-0.2698480188846588,0.5241467952728271,-0.7855663299560547,-9.799825668334961
1745654040.5592463,0.01898704655468464,-0.014788322150707245,-0.2706547975540161,0.22586853802204132,-0.5505166053771973,-9.851226806640625
1745654040.5593326,0.017780747264623642,-0.012865965254604816,-0.27028679847717285,0.4578232765197754,-0.7525539398193359,-9.761124610900879
1745654040.5593874,0.01811324618756771,-0.02012721076607704,-0.2712705135345459,0.2651252746582031,-0.5226703882217407,-9.710893630981445
1745654040.5603747,0.017446082085371017,-0.011511685326695442,-0.2717423737049103,0.33163103461265564,-0.719346821308136,-9.783392906188965
1745654040.5604653,0.01909826695919037,-0.01559342723339796,-0.27250656485557556,0.415987491607666,-0.6604463458061218,-9.65239429473877
1745654040.5622253,0.01958218403160572,-0.01124899834394455,-0.26695120334625244,0.3175892233848572,-0.5157742500305176,-9.700607299804688
1745654040.5660489,0.011162795126438141,-0.012552755884826183,-0.2692013084888458,0.36848118901252747,-0.7168799638748169,-9.509801864624023
1745654040.5981252,0.010758558288216591,-0.019538700580596924,-0.2700956165790558,0.437436580657959,-0.6904528737068176,-9.808465957641602
1745654040.6018572,0.02154599130153656,-0.011376017704606056,-0.2698315382003784,0.3234423100948334,-0.6474990844726562,-10.08017349243164
1745654040.6042268,0.011244012974202633,-0.015594057738780975,-0.2697904706001282,0.4370282292366028,-0.78303062915802,-9.781176567077637
1745654040.605715,0.023107951506972313,-0.010220522992312908,-0.26832494139671326,0.27994513511657715,-0.573546290397644,-9.448305130004883
1745654040.6574929,0.008642712607979774,-0.015951864421367645,-0.26821061968803406,0.48200902342796326,-0.8345314264297485,-9.623437881469727
1745654040.657637,0.021799694746732712,-0.016513699665665627,-0.26649659872055054,0.35783544182777405,-0.5361677408218384,-9.976887702941895
1745654040.6576984,0.014755490235984325,-0.00709233433008194,-0.27004221081733704,0.4138081967830658,-0.7657510042190552,-9.850759506225586
1745654040.6577458,0.018954673781991005,-0.016451800242066383,-0.26895907521247864,0.34131091833114624,-0.6273688077926636,-9.578424453735352
1745654040.657814,0.012678849510848522,-0.012951905839145184,-0.26997169852256775,0.2752472758293152,-0.6411267518997192,-9.739346504211426
1745654040.690235,0.005972790531814098,-0.01773742213845253,-0.2691088318824768,0.4695974886417389,-0.8287709951400757,-9.93282699584961
1745654040.6945784,0.02244417369365692,-0.009401149116456509,-0.2707727551460266,0.2570597529411316,-0.6771565675735474,-9.834993362426758
1745654040.6975605,0.005126929841935635,-0.012358665466308594,-0.26962411403656006,0.48494070768356323,-0.7273619771003723,-9.499157905578613
1745654040.6976676,0.01315445639193058,-0.01659744791686535,-0.26831841468811035,0.36625999212265015,-0.6920211911201477,-9.660828590393066
1745654040.728473,0.013064083643257618,-0.00920059997588396,-0.2703128457069397,0.3684592545032501,-0.6711757183074951,-9.939266204833984
1745654040.731432,0.010730095207691193,-0.016256943345069885,-0.26973724365234375,0.47289881110191345,-0.7317408919334412,-9.873822212219238
1745654040.7317817,0.016723468899726868,-0.010073475539684296,-0.26849299669265747,0.22722280025482178,-0.661436915397644,-9.67951774597168
1745654040.7318335,0.012182507663965225,-0.015350060537457466,-0.26610687375068665,0.4687715470790863,-0.763107180595398,-9.678915023803711
1745654040.7322938,0.010246475227177143,-0.017018873244524002,-0.26854613423347473,0.24844257533550262,-0.5901090502738953,-9.882468223571777
1745654040.770348,0.00786786712706089,-0.010647473856806755,-0.2695624828338623,0.44707727432250977,-0.8173225522041321,-9.817215919494629
1745654040.774576,0.016917424276471138,-0.014844712801277637,-0.2687850594520569,0.3605780005455017,-0.541061520576477,-9.532413482666016
1745654040.787019,0.015150798484683037,-0.011658420786261559,-0.26800036430358887,0.4168938994407654,-0.7833811640739441,-9.827278137207031
1745654040.7871842,0.0209234356880188,-0.018152592703700066,-0.26810428500175476,0.3878812789916992,-0.6231822967529297,-9.797082901000977
1745654040.8174121,0.01195389125496149,-0.011705373413860798,-0.26975733041763306,0.3637174069881439,-0.8220903277397156,-9.719051361083984
1745654040.8175907,0.01642194762825966,-0.016707027330994606,-0.26710453629493713,0.41155046224594116,-0.7841582894325256,-9.71086597442627
1745654040.8176925,0.011948011815547943,-0.011080008931457996,-0.2685137689113617,0.3234237730503082,-0.6853293180465698,-9.766140937805176
1745654040.8177702,0.0013507105177268386,-0.015104164369404316,-0.2677764892578125,0.525588870048523,-0.8429290056228638,-9.818422317504883
1745654040.8592672,0.012774263508617878,-0.012499229051172733,-0.2657063901424408,0.2759125828742981,-0.6731847524642944,-9.832822799682617
1745654040.8629506,0.008516068570315838,-0.012967647984623909,-0.2668617367744446,0.4008820950984955,-0.6726773977279663,-9.687519073486328
1745654040.8722823,0.006759422831237316,-0.01665433682501316,-0.26882725954055786,0.3676750063896179,-0.6663380861282349,-9.658679962158203
1745654040.88995,0.014543898403644562,-0.009807046502828598,-0.26638564467430115,0.3270370662212372,-0.6098834872245789,-9.776403427124023
1745654040.8900793,0.007554057985544205,-0.017865577712655067,-0.2671247720718384,0.511741042137146,-0.74796462059021,-9.7904634475708
1745654040.901377,0.01741008833050728,-0.012787079438567162,-0.26714715361595154,0.24675679206848145,-0.637603759765625,-9.78516960144043
1745654040.903762,0.006556463893502951,-0.011936260387301445,-0.2676311135292053,0.520573616027832,-0.8572450876235962,-9.74243450164795
1745654040.9109545,0.012297950685024261,-0.01835315302014351,-0.26715606451034546,0.3184133470058441,-0.6306310892105103,-9.774236679077148
1745654040.911,0.013546966016292572,-0.02024872414767742,-0.2604248821735382,0.2768612504005432,-0.6255495548248291,-9.67868423461914
1745654040.9439,0.0036096740514039993,-0.018446043133735657,-0.2600781321525574,0.4547432065010071,-0.8018484115600586,-9.753908157348633
1745654040.9499285,0.020302247256040573,-0.01672215387225151,-0.2622779309749603,0.3358510136604309,-0.5986896753311157,-9.715497970581055
1745654040.9503758,0.011442892253398895,-0.016782641410827637,-0.2623366713523865,0.4094625413417816,-0.7239707708358765,-9.670626640319824
1745654040.9522805,0.0057465978898108006,-0.020872095599770546,-0.2613399624824524,0.4632919728755951,-0.7195521593093872,-9.761301040649414
1745654040.991828,0.018563520163297653,-0.013374151661992073,-0.261732816696167,0.3171648383140564,-0.7116037607192993,-9.82240104675293
1745654040.9978592,0.009099705144762993,-0.022245127707719803,-0.26099273562431335,0.4593612551689148,-0.7308390736579895,-9.792083740234375
1745654040.99837,0.020451653748750687,-0.014353876002132893,-0.2618470788002014,0.3277707099914551,-0.5783172249794006,-9.718552589416504
1745654040.9987106,0.008415566757321358,-0.021978864446282387,-0.2603713870048523,0.4803315997123718,-0.7775456309318542,-9.770121574401855
1745654040.999221,0.019192729145288467,-0.02269059792160988,-0.2616230845451355,0.3511074185371399,-0.6489108800888062,-9.785628318786621
1745654041.0270216,0.003594073001295328,-0.0174325630068779,-0.2600160241127014,0.4278322756290436,-0.874669075012207,-9.740178108215332
1745654041.030285,0.012162460945546627,-0.02351219952106476,-0.2601885497570038,0.38823914527893066,-0.7404053807258606,-9.737536430358887
1745654041.0353758,0.006528355181217194,-0.01642722077667713,-0.2593749165534973,0.30292925238609314,-0.6702517867088318,-9.728914260864258
1745654041.0382872,-0.0021694416645914316,-0.02217206358909607,-0.26045361161231995,0.46301430463790894,-0.7504290342330933,-9.797066688537598
1745654041.068626,0.017872164025902748,-0.01932103931903839,-0.25952616333961487,0.31002819538116455,-0.6286900639533997,-9.856878280639648
1745654041.0703783,0.0035610278137028217,-0.022247344255447388,-0.2617316246032715,0.48741254210472107,-0.6674270033836365,-9.723691940307617
1745654041.0725546,0.01418247353285551,-0.023716095834970474,-0.2593996524810791,0.2933959364891052,-0.6946438550949097,-9.732284545898438
1745654041.0746875,0.015961119905114174,-0.012113434262573719,-0.2604663074016571,0.2862616181373596,-0.6417273283004761,-9.64374828338623
1745654041.0772402,0.007900363765656948,-0.025505151599645615,-0.25958770513534546,0.5027735233306885,-0.7619891166687012,-9.659872055053711
1745654041.1150694,0.015879424288868904,-0.01776270568370819,-0.26048898696899414,0.3400190472602844,-0.6650981903076172,-9.893987655639648
1745654041.1178432,0.005461688153445721,-0.021490760147571564,-0.26020482182502747,0.5058361291885376,-0.8395520448684692,-9.944579124450684
1745654041.1227407,0.011704630218446255,-0.019651593640446663,-0.2622552812099457,0.2258652150630951,-0.6213961243629456,-9.7041015625
1745654041.1256917,0.010639999993145466,-0.023107245564460754,-0.26053252816200256,0.4818032383918762,-0.6300522685050964,-9.874812126159668
