timestamp,angular_vel_x,angular_vel_y,angular_vel_z,linear_acc_x,linear_acc_y,linear_acc_z
1745672132.8534615,0.007135810796171427,-0.06916899979114532,0.22106823325157166,0.24763314425945282,0.6285372972488403,-9.598876953125
1745672132.8535652,0.08791844546794891,-0.029940029606223106,0.1852681040763855,0.17554965615272522,1.3040683269500732,-8.510904312133789
1745672132.8536038,0.1369301974773407,-0.033063240349292755,0.17288944125175476,0.9489224553108215,1.4628734588623047,-9.186893463134766
1745672132.8536386,0.15647351741790771,-0.025574523955583572,0.1696464866399765,1.029748797416687,0.33198773860931396,-11.4556884765625
1745672132.853679,0.19249437749385834,-0.0015101227909326553,0.1697007566690445,0.7627328634262085,0.24245882034301758,-10.606304168701172
1745672132.853729,0.1766989678144455,-0.007969789206981659,0.17528198659420013,0.6449065804481506,-0.11391818523406982,-8.598727226257324
1745672132.8537786,0.13226816058158875,-0.01492372341454029,0.175432488322258,0.29278564453125,-0.23496079444885254,-9.117305755615234
1745672132.8538282,0.14133679866790771,0.0024959787260740995,0.16360194981098175,0.3878844678401947,0.2064656913280487,-10.36717700958252
1745672132.8539143,0.07419677823781967,0.01729447953402996,0.14258937537670135,0.36639583110809326,0.6940415501594543,-10.233694076538086
1745672132.85396,0.09037117660045624,0.021857012063264847,0.12044219672679901,0.44618502259254456,0.6125567555427551,-9.237951278686523
1745672132.8539937,0.06640208512544632,0.006879433058202267,0.10573890060186386,0.6420542597770691,0.5797556042671204,-9.280847549438477
1745672132.8540213,0.04860714450478554,0.020793339237570763,0.10415637493133545,0.5541538596153259,0.07607695460319519,-10.495037078857422
1745672132.8645916,0.08643496781587601,0.03362897038459778,0.10746897757053375,0.7721147537231445,0.23820741474628448,-10.129671096801758
1745672132.8680842,0.08309591561555862,0.04038846492767334,0.115950807929039,0.4409825801849365,0.5621686577796936,-9.216768264770508
1745672132.868175,0.19954368472099304,0.06322751939296722,0.05475718900561333,0.7286542057991028,-0.38005176186561584,-10.025802612304688
1745672132.8691494,0.20071570575237274,0.07592775672674179,0.053674280643463135,0.9494884610176086,-0.415766179561615,-9.77608585357666
1745672132.9051194,0.15565285086631775,0.06649491935968399,0.057425983250141144,0.9464532732963562,-0.08416276425123215,-9.670536041259766
1745672132.9064384,0.17922227084636688,0.06242064759135246,0.06195725128054619,0.18761461973190308,-0.02806907519698143,-9.996416091918945
1745672132.9083056,0.1718180626630783,0.07186700403690338,0.06403674185276031,-0.08011524379253387,0.173423171043396,-9.806422233581543
1745672132.9109662,0.15826238691806793,0.06348420679569244,0.06732527166604996,-0.14204041659832,-0.030265921726822853,-9.43049430847168
1745672132.9110668,0.17006507515907288,0.06674148142337799,0.06904532015323639,-0.9066364169120789,0.32377228140830994,-9.899385452270508
1745672132.9530752,0.14637281000614166,0.07364507764577866,0.06024947017431259,-0.48691803216934204,0.8881738781929016,-9.2764253616333
1745672132.9531398,0.19014620780944824,0.08193301409482956,0.05329560115933418,0.14657346904277802,0.6303257346153259,-9.186033248901367
1745672132.9537435,0.12711641192436218,0.054867714643478394,0.050129979848861694,0.7153533101081848,0.09969748556613922,-10.264820098876953
1745672132.9538097,0.2080269157886505,0.0564967580139637,0.052311234176158905,0.6884047985076904,0.08345232158899307,-10.569463729858398
1745672132.996716,0.11906850337982178,0.07237478345632553,0.0621253065764904,0.3053496479988098,0.08905713260173798,-9.747125625610352
1745672132.9988418,0.16775834560394287,0.054582346230745316,0.07577710598707199,0.26991623640060425,-0.681850790977478,-8.875813484191895
1745672133.0011828,0.16736739873886108,0.05310019850730896,0.08072847872972488,0.36520200967788696,1.1931684017181396,-9.152623176574707
1745672133.0139964,0.1778140515089035,0.030588816851377487,0.08467493206262589,0.2265981137752533,-0.09637521952390671,-12.248068809509277
1745672133.035307,0.19121135771274567,0.03424748405814171,0.08805833756923676,0.039567891508340836,-0.06783828884363174,-8.115358352661133
1745672133.0386765,0.14453808963298798,-0.0016963972011581063,0.09008824825286865,0.2501923143863678,-0.2899989187717438,-7.1073455810546875
1745672133.0426598,0.13453777134418488,-0.01673540100455284,0.09000228345394135,0.6143869161605835,-0.6699132323265076,-10.863271713256836
1745672133.043686,0.11446869373321533,0.027055328711867332,0.08941546082496643,0.43425315618515015,-0.21915817260742188,-12.19477653503418
1745672133.0772183,0.09915710985660553,0.03222975134849548,0.08810354024171829,0.5960171818733215,-0.6276403665542603,-8.979560852050781
1745672133.079435,0.09457073360681534,-0.010845203883945942,0.09350226074457169,0.4469048082828522,-0.19442670047283173,-7.5157012939453125
1745672133.0822732,0.06547708064317703,-0.013786097057163715,0.09872577339410782,0.515583872795105,-0.4814302325248718,-10.492718696594238
1745672133.0845459,0.073593869805336,0.011786062270402908,0.09905338287353516,0.31739646196365356,-0.3856503963470459,-11.82536506652832
1745672133.0870483,0.08214057981967926,0.031398750841617584,0.10517624765634537,-0.10848312079906464,-0.15223875641822815,-9.088432312011719
1745672133.1221943,0.07741223275661469,0.013636810705065727,0.11612088978290558,0.702318012714386,-0.32158419489860535,-7.468447208404541
1745672133.1254506,0.05860628932714462,-0.006131415255367756,0.12285323441028595,0.6361905336380005,-0.014763405546545982,-10.33788776397705
1745672133.1278217,0.07087297737598419,0.02291022799909115,0.12784603238105774,1.1162989139556885,-0.5075136423110962,-11.842556953430176
1745672133.1289797,0.04808567464351654,0.040112461894750595,0.13478532433509827,1.2380621433258057,-0.2423166036605835,-9.432780265808105
1745672133.1639278,0.022613201290369034,0.010281170718371868,0.14152731001377106,1.078574538230896,-0.3019488453865051,-8.198784828186035
1745672133.1722493,0.012952168472111225,-0.01924090087413788,0.1461612433195114,1.1822417974472046,-0.0759224146604538,-10.158445358276367
1745672133.1723325,0.009590284898877144,0.02888219617307186,0.149317666888237,0.6608098745346069,0.39659738540649414,-11.545699119567871
1745672133.172394,0.04824313148856163,0.02993626892566681,0.1523919701576233,0.5946891903877258,0.3634166717529297,-9.573857307434082
1745672133.172454,0.07635325193405151,0.004308043513447046,0.1534726321697235,0.3889841139316559,1.0175433158874512,-8.030553817749023
1745672133.2093658,0.09956778585910797,0.012544525787234306,0.15653502941131592,0.4742971956729889,0.37582293152809143,-9.979819297790527
1745672133.2111797,0.15833711624145508,0.026287436485290527,0.15766827762126923,0.45621806383132935,0.5372277498245239,-11.01060962677002
1745672133.214305,-0.11426559835672379,0.045145872980356216,0.1967703104019165,0.5918363332748413,-0.6391960382461548,-10.537450790405273
1745672133.250848,-0.12032409012317657,0.037754449993371964,0.2003336399793625,0.7344067692756653,-0.21263054013252258,-9.533395767211914
1745672133.2530873,-0.1110808253288269,0.03854236379265785,0.2097189873456955,0.5188924074172974,0.03307115659117699,-9.29749870300293
1745672133.2566876,-0.084151491522789,0.03220289573073387,0.2202983796596527,0.6602891683578491,0.22444316744804382,-9.892701148986816
1745672133.2578945,-0.03558984398841858,0.04376567155122757,0.22615234553813934,0.5634016990661621,0.6388031244277954,-10.123373985290527
1745672133.259881,0.009537317790091038,0.04643429443240166,0.2302130162715912,0.7859728932380676,0.6466695070266724,-9.662271499633789
1745672133.2987628,0.03707987815141678,0.029540982097387314,0.2318708449602127,0.5901820659637451,0.5033127665519714,-9.654367446899414
1745672133.301757,0.05665828660130501,0.04047512635588646,0.23103371262550354,0.5311561822891235,0.22226794064044952,-9.927294731140137
1745672133.303028,0.048166848719120026,0.04245087876915932,0.23176872730255127,0.7563515901565552,-0.07648545503616333,-9.861372947692871
1745672133.3045852,0.04356852173805237,0.029362285509705544,0.22612114250659943,0.7569181323051453,0.027510887011885643,-9.716837882995605
1745672133.3367202,0.00673964899033308,0.008483323268592358,0.21491935849189758,0.4199190139770508,-0.24779915809631348,-10.26544189453125
1745672133.3396354,0.009493338875472546,0.033761121332645416,0.2061200886964798,0.06734302639961243,-0.1940622329711914,-9.780415534973145
1745672133.3412046,0.00030658728792332113,0.021586980670690536,0.20112164318561554,0.10390587896108627,-0.009845113381743431,-9.114007949829102
1745672133.3422081,-0.00871562771499157,0.00864363182336092,0.20075564086437225,-0.123259998857975,-0.8495472073554993,-9.866795539855957
1745672133.3861074,0.004646294750273228,-0.023060793057084084,0.21341268718242645,1.2934808731079102,-0.15247850120067596,-8.800636291503906
1745672133.3882804,-0.07787463814020157,-0.03521077334880829,0.21856310963630676,1.9393342733383179,-0.298903226852417,-9.736594200134277
1745672133.38989,-0.07276561111211777,-0.04362701624631882,0.21826085448265076,1.3792915344238281,-0.46192559599876404,-11.639181137084961
1745672133.394318,-0.1107119470834732,-0.01540879625827074,0.2177266776561737,0.8233567476272583,-0.007073604967445135,-10.110334396362305
1745672133.4310253,-0.14801238477230072,-0.02376505173742771,0.22303366661071777,0.568830132484436,-0.27950477600097656,-8.14439582824707
1745672133.4311762,-0.11363919824361801,-0.04794104024767876,0.22874346375465393,0.6278626322746277,0.31642863154411316,-9.205620765686035
1745672133.4312873,-0.13240079581737518,-0.032393477857112885,0.23540644347667694,0.2744782567024231,0.3776063323020935,-11.416163444519043
1745672133.4313657,-0.04666498303413391,0.006293348968029022,0.23846547305583954,0.04997038468718529,0.7603786587715149,-10.043004989624023
1745672133.431418,-0.037776511162519455,-0.008053978905081749,0.24115116894245148,0.4183998107910156,0.673717737197876,-7.902268409729004
1745672133.4659882,0.0035066797863692045,-0.036769699305295944,0.24654674530029297,0.7847856283187866,0.22197110950946808,-9.47709846496582
1745672133.468681,-0.005878548137843609,-0.007934640161693096,0.2521913945674896,0.8311313390731812,-0.3315207362174988,-11.831771850585938
1745672133.470827,-0.026856059208512306,0.007506682071834803,0.25838857889175415,0.5387755632400513,-0.8064640164375305,-10.073225021362305
1745672133.4730546,-0.052994828671216965,0.006190972868353128,0.26909610629081726,0.6786666512489319,-0.8844081163406372,-7.675830841064453
1745672133.5072062,-0.1594713032245636,-0.02678518369793892,0.27634957432746887,0.9255819320678711,-0.818800151348114,-9.32681655883789
1745672133.510957,-0.16543900966644287,-0.007695088628679514,0.26911839842796326,0.8685569763183594,-0.40547022223472595,-11.680131912231445
1745672133.5110123,-0.20563499629497528,0.019467702135443687,0.26484718918800354,0.6984370350837708,0.2397489994764328,-10.188611030578613
1745672133.513393,-0.2077949494123459,-0.00845610536634922,0.2620680630207062,0.49785804748535156,0.24391087889671326,-8.214517593383789
1745672133.515249,-0.1862562596797943,-0.024760296568274498,0.2660713791847229,0.8070727586746216,0.570462703704834,-9.270962715148926
1745672133.5515828,-0.17124715447425842,-0.008335500955581665,0.27312785387039185,0.5383940935134888,0.4266580641269684,-11.503886222839355
1745672133.5554981,-0.0881861224770546,0.016698135063052177,0.28486958146095276,0.46039074659347534,0.6445139646530151,-10.092933654785156
1745672133.5562549,-0.0748259574174881,0.000713985413312912,0.29573434591293335,0.5011494159698486,0.7098408341407776,-8.11457347869873
1745672133.559153,-0.17147305607795715,0.004459810443222523,0.3050328195095062,0.6349416971206665,-0.3553921580314636,-8.919448852539062
1745672133.6005273,-0.1827213317155838,-0.0038451768923550844,0.30904167890548706,0.7272993326187134,0.4260837435722351,-9.240669250488281
1745672133.6054556,-0.17431744933128357,0.005308064632117748,0.31288284063339233,0.3993774652481079,0.29972782731056213,-10.777593612670898
1745672133.60574,-0.11180772632360458,0.0166771300137043,0.3137575387954712,0.551493763923645,0.7261804342269897,-10.06701374053955
1745672133.607171,-0.11137060821056366,0.008755848743021488,0.31493327021598816,0.19017663598060608,0.8029905557632446,-9.039010047912598
1745672133.6376429,-0.07034291326999664,0.006299755070358515,0.3133067488670349,0.25236064195632935,0.4986240863800049,-9.372308731079102
1745672133.6398566,-0.07603631913661957,0.003897548420354724,0.3109985291957855,0.43962255120277405,0.6995140314102173,-10.072691917419434
1745672133.643038,-0.05892229080200195,0.013765858486294746,0.3051174581050873,0.5863825678825378,0.1767711639404297,-10.197717666625977
1745672133.6438935,-0.08085213601589203,0.010377934202551842,0.30268287658691406,0.7358103394508362,0.12261755764484406,-9.526545524597168
1745672133.6789246,-0.1028774231672287,-6.0219503211556e-05,0.30540698766708374,0.641380786895752,-0.2959342300891876,-9.602477073669434
1745672133.6884677,-0.10970202833414078,0.0026038128416985273,0.3066170811653137,0.8282709121704102,-0.178286612033844,-9.895517349243164
1745672133.6915314,-0.15589332580566406,-0.001742486609145999,0.3123365044593811,0.5920534133911133,-0.3881625533103943,-10.122323989868164
1745672133.6939332,-0.12629830837249756,0.005945251323282719,0.3181617856025696,0.5030045509338379,-0.004327070899307728,-9.596994400024414
1745672133.695984,-0.17122644186019897,0.0009646349353715777,0.31812095642089844,0.3373512923717499,0.27037784457206726,-9.449960708618164
1745672133.7243648,-0.12979134917259216,-0.001632049446925521,0.31865692138671875,0.3482946753501892,0.500729501247406,-9.748069763183594
1745672133.7269728,-0.06771087646484375,-0.00012563131167553365,0.3177855610847473,0.586090087890625,0.29542356729507446,-10.118252754211426
1745672133.7304478,-0.1168629378080368,-0.005751168821007013,0.3228667676448822,0.6225152015686035,-0.24226434528827667,-9.531524658203125
1745672133.7329721,-0.1130271926522255,-0.023216307163238525,0.32770490646362305,0.7524636387825012,0.02787121571600437,-9.217973709106445
1745672133.7678566,-0.13948069512844086,-0.007510978728532791,0.33491280674934387,0.9235893487930298,0.21920660138130188,-10.004557609558105
1745672133.7698987,-0.13697239756584167,-0.01397820096462965,0.3341849148273468,0.6714318990707397,0.49770379066467285,-10.429811477661133
1745672133.773989,-0.11576934903860092,-0.010073991492390633,0.3360065221786499,0.5976037979125977,0.9723941683769226,-9.574560165405273
1745672133.7740355,-0.1082105040550232,-0.017321297898888588,0.3341798186302185,0.6355547904968262,0.7875545024871826,-9.289743423461914
1745672133.8092165,-0.07576321065425873,-0.012500615790486336,0.3350836932659149,0.30238622426986694,1.0933917760849,-9.82619857788086
1745672133.8111956,-0.06925688683986664,-0.015858318656682968,0.3342207372188568,0.5540947914123535,0.638691246509552,-10.083335876464844
1745672133.8137472,-0.03645189851522446,-0.006930521689355373,0.3373923599720001,0.4954734742641449,0.916865348815918,-9.622929573059082
1745672133.8149154,-0.0335758775472641,-0.0058309948071837425,0.3390430510044098,0.6565643548965454,0.633061408996582,-9.498098373413086
1745672133.8177145,-0.02827734313905239,-0.01883349008858204,0.33958134055137634,0.6250499486923218,0.38044607639312744,-9.92331314086914
1745672133.8542264,-0.014258657582104206,-0.004252400249242783,0.34411677718162537,0.6659384965896606,0.33511441946029663,-9.993752479553223
1745672133.857082,-0.05804814025759697,-0.009687652811408043,0.34399065375328064,0.7409631013870239,0.08056912571191788,-9.730790138244629
1745672133.858679,-0.04742429405450821,-0.010268168523907661,0.34611332416534424,0.37303879857063293,0.13021419942378998,-9.576388359069824
1745672133.8604767,-0.08362285792827606,-0.0072784265503287315,0.34925419092178345,0.5696834921836853,0.09340766817331314,-9.661348342895508
1745672133.8958402,-0.10387657582759857,-0.005696571432054043,0.3498269021511078,0.4160519540309906,0.26528066396713257,-9.979854583740234
1745672133.8992026,-0.0937308594584465,-0.007593343500047922,0.3478849232196808,0.5947079062461853,0.305368036031723,-9.767555236816406
1745672133.9034576,-0.112749382853508,-0.004843064583837986,0.3480857014656067,0.5266619920730591,0.5289196372032166,-9.635818481445312
1745672133.9069262,-0.09720471501350403,-0.004773336928337812,0.34992215037345886,0.5385084748268127,0.4924756586551666,-9.772037506103516
1745672133.9107192,-0.09923461079597473,-0.00975064281374216,0.35385987162590027,0.7003971934318542,0.5037730932235718,-9.813726425170898
1745672133.939306,-0.07930494099855423,-0.0036015461664646864,0.3561682105064392,0.542229950428009,0.7062417268753052,-9.908788681030273
1745672133.9420605,-0.05412719398736954,-0.007427278906106949,0.35772767663002014,0.4871003031730652,0.3400495946407318,-9.734193801879883
1745672133.9446669,-0.053231943398714066,-0.010100592859089375,0.3611455261707306,0.7514230608940125,0.27266499400138855,-9.962608337402344
1745672133.945984,-0.063399538397789,-0.0010231712367385626,0.36465081572532654,0.4613114297389984,0.41938915848731995,-9.951332092285156
1745672133.9828196,-0.05515047907829285,0.0002036637597484514,0.3660122752189636,0.6070512533187866,0.4306918680667877,-9.47394847869873
1745672133.985205,-0.0708487331867218,-0.01287207193672657,0.3668169379234314,0.4504343867301941,0.5572860836982727,-9.666939735412598
1745672133.9853384,-0.048172734677791595,-0.0022199733648449183,0.3651145398616791,0.5306981801986694,0.47933563590049744,-10.028489112854004
1745672133.9866066,-0.07952801883220673,-0.0003571713459677994,0.3629045784473419,0.5238879323005676,0.5235522389411926,-9.905572891235352
1745672133.9887197,-0.06541282683610916,-0.002939382568001747,0.36403506994247437,0.4287422299385071,0.42825084924697876,-9.507159233093262
1745672134.0266194,-0.07146257162094116,-0.007260115351527929,0.3658691346645355,0.7241424322128296,0.4825344681739807,-9.50627326965332
1745672134.0313132,-0.0980219841003418,-0.0060316817834973335,0.3645840287208557,0.4162626266479492,0.47587957978248596,-10.17280101776123
1745672134.034397,-0.053790487349033356,0.0008756436291150749,0.3642473816871643,1.070825457572937,0.6210343837738037,-9.793639183044434
1745672134.0374446,-0.08949273079633713,-0.016430746763944626,0.36150163412094116,1.056333065032959,1.2564440965652466,-9.624361991882324
1745672134.0707815,0.0038584384601563215,-0.032494235783815384,0.3477780222892761,-0.20680224895477295,1.4607008695602417,-10.597236633300781
1745672134.0729759,0.028920527547597885,0.002115850802510977,0.3311569094657898,-0.16681964695453644,1.6141115427017212,-9.213530540466309
1745672134.090991,0.14218534529209137,-0.014496873132884502,0.08934013545513153,0.7192526459693909,0.8106802105903625,-10.848748207092285
1745672134.0911646,0.16340301930904388,0.003900295589119196,0.07783859968185425,0.7696935534477234,0.7334843277931213,-10.767194747924805
1745672134.111168,0.15505322813987732,-0.012007522396743298,0.07420101016759872,1.0846984386444092,0.15050487220287323,-9.242162704467773
1745672134.113684,0.13421206176280975,-0.02780664525926113,0.07051630318164825,0.7069616317749023,0.28914502263069153,-9.391303062438965
1745672134.1161559,0.13917356729507446,-0.007062328048050404,0.06855182349681854,0.45363181829452515,0.033121705055236816,-10.31901741027832
1745672134.1171844,0.11673973500728607,-0.0035511187743395567,0.06749391555786133,0.32486191391944885,0.0689023956656456,-9.85948371887207
1745672134.1529217,0.12268805503845215,-0.002968947868794203,0.06797820329666138,0.24419203400611877,0.49694281816482544,-9.210779190063477
1745672134.1557827,0.1323370635509491,-0.019854305312037468,0.0634201169013977,-0.11370982974767685,0.28446367383003235,-9.796734809875488
1745672134.1582627,0.1620303839445114,0.004960812162607908,0.06382874399423599,-0.4977017045021057,0.6015976667404175,-10.14921760559082
1745672134.1619525,0.1242997869849205,-0.003012608038261533,0.06301303207874298,0.3795594871044159,-0.3086840510368347,-9.470819473266602
1745672134.1650844,0.08463285118341446,-0.02538825012743473,0.06959478557109833,-0.32884639501571655,-0.31751757860183716,-10.037928581237793
1745672134.1963754,0.07532083988189697,-0.002476502675563097,0.06861367076635361,-0.04672260209918022,0.45581260323524475,-9.647539138793945
1745672134.1994581,0.04297246038913727,-0.01307678036391735,0.06539017707109451,0.17115192115306854,0.14903977513313293,-9.440061569213867
1745672134.2014115,0.037589799612760544,-0.02326579950749874,0.06539703905582428,0.629924476146698,0.24545399844646454,-9.776525497436523
1745672134.2030761,0.054927241057157516,-0.03693683445453644,0.0660070925951004,0.6340521574020386,0.814600944519043,-10.497962951660156
1745672134.2431204,0.04389644414186478,-0.024542856961488724,0.06844966858625412,-0.24174651503562927,0.7975584268569946,-10.615306854248047
1745672134.2432463,0.12612852454185486,-0.020999157801270485,0.07369574159383774,-0.020565573126077652,0.7041682004928589,-8.77716064453125
1745672134.2454283,0.08494039624929428,-0.03957078605890274,0.07282745838165283,-0.06386339664459229,1.2820208072662354,-8.775291442871094
1745672134.252183,0.18948373198509216,-0.04386986047029495,0.07098212093114853,-0.003937668167054653,0.6833857893943787,-10.792257308959961
1745672134.2524772,0.19854392111301422,-0.026994463056325912,0.06720716506242752,-0.21469846367835999,1.319226622581482,-10.568453788757324
1745672134.2853343,0.19537848234176636,-0.012386984191834927,0.06879226118326187,-0.08429209142923355,-0.1347474306821823,-9.085138320922852
1745672134.2876616,0.02723885141313076,-0.02562665566802025,0.0715763196349144,-0.07345536351203918,0.5590865612030029,-8.489107131958008
1745672134.290392,0.08992383629083633,-0.055006615817546844,0.07110704481601715,0.004053489770740271,0.783521294593811,-8.602996826171875
1745672134.3262742,0.10080287605524063,-0.043849460780620575,0.07177424430847168,0.09707379341125488,0.83006352186203,-10.792512893676758
1745672134.32829,0.1359979808330536,-0.02425132319331169,0.07100966572761536,-0.031822990626096725,0.5171912908554077,-10.909518241882324
1745672134.3306224,0.16021910309791565,-0.02434077486395836,0.07354159653186798,0.31766611337661743,0.6256276965141296,-8.689817428588867
1745672134.3327012,0.1336594521999359,-0.05872664600610733,0.07363876700401306,0.34185048937797546,0.10111937671899796,-9.015451431274414
1745672134.3357878,0.1421857625246048,-0.049653176218271255,0.06689450144767761,0.25646448135375977,0.22804442048072815,-10.850234985351562
1745672134.3699062,0.125250905752182,-0.027403270825743675,0.06753479689359665,0.1603643149137497,-0.16513782739639282,-10.517949104309082
1745672134.3744352,0.0898360162973404,-0.02236374095082283,0.07012622058391571,-0.022456277161836624,-0.03546451777219772,-8.634793281555176
1745672134.3767724,0.07102809846401215,-0.08179379254579544,0.07345923036336899,0.7508777976036072,-0.22372838854789734,-8.913204193115234
1745672134.3804154,0.10662704706192017,-0.046715088188648224,0.07011212408542633,-0.051192767918109894,0.6402092576026917,-11.452909469604492
1745672134.4111357,0.08578932285308838,-0.018136318773031235,0.06086951494216919,-0.3664713501930237,0.40132617950439453,-10.797730445861816
1745672134.412184,0.08683433383703232,-0.06316116452217102,0.053734444081783295,-0.050963353365659714,0.14207735657691956,-7.909060478210449
1745672134.4207993,0.12125825881958008,-0.056671421974897385,0.054372500628232956,0.04832975193858147,0.32292795181274414,-8.848806381225586
1745672134.4209473,0.017858529463410378,0.0024905491154640913,0.13205835223197937,0.9690097570419312,-0.42524486780166626,-10.187283515930176
1745672134.455719,0.01206148974597454,0.03144583851099014,0.13623714447021484,0.6959964632987976,0.3418735861778259,-9.976466178894043
1745672134.4583724,0.010692715644836426,0.027066010981798172,0.1418885886669159,0.5933138132095337,0.18679969012737274,-9.643606185913086
1745672134.460704,0.05023918300867081,0.013287569396197796,0.14027950167655945,0.3941958546638489,1.0710183382034302,-9.364395141601562
1745672134.4644656,0.05895984172821045,0.02466730773448944,0.14499084651470184,0.41234055161476135,0.36337965726852417,-10.117154121398926
1745672134.4680974,0.12295045703649521,0.0367744155228138,0.15146994590759277,0.09911880642175674,0.7883316874504089,-9.960009574890137
1745672134.5000834,0.11810346692800522,0.0490066260099411,0.15307459235191345,0.17019936442375183,0.0397854708135128,-9.296844482421875
1745672134.502611,0.15667521953582764,0.03836994990706444,0.16499754786491394,0.46384286880493164,-0.03672771900892258,-9.210958480834961
1745672134.5061424,0.10579552501440048,0.04606226831674576,0.17176282405853271,0.3934440612792969,-0.6396640539169312,-10.236303329467773
1745672134.50871,0.10342162847518921,0.0590212345123291,0.17580309510231018,0.5652121901512146,-0.8618575930595398,-10.151920318603516
1745672134.5430565,0.03287595510482788,0.06716759502887726,0.17750370502471924,0.46081000566482544,-0.6338609457015991,-9.18582820892334
1745672134.545332,-0.024882545694708824,0.05080056190490723,0.17874792218208313,0.738966166973114,-0.9706101417541504,-9.312701225280762
1745672134.5490742,-0.05288298800587654,0.05554544925689697,0.1817506104707718,0.6162973642349243,-0.5351870656013489,-10.097253799438477
1745672134.549144,-0.10202252864837646,0.07700202614068985,0.1846001148223877,0.4180189073085785,-0.3448692262172699,-10.308860778808594
1745672134.58637,-0.09864292293787003,0.06395865976810455,0.1910620778799057,0.5425998568534851,0.026156801730394363,-9.321696281433105
1745672134.5877585,-0.07378941029310226,0.06304994970560074,0.19599933922290802,0.45289430022239685,0.48642587661743164,-9.236268997192383
1745672134.5890179,-0.0666067972779274,0.06470571458339691,0.2018832266330719,0.5313844680786133,0.45306676626205444,-10.250517845153809
1745672134.5923717,-0.005127966869622469,0.07245807349681854,0.20633545517921448,0.3840045630931854,0.8626735806465149,-10.25374984741211
1745672134.5925019,0.03532782942056656,0.07144694030284882,0.2112051248550415,0.6032393574714661,0.6655706167221069,-9.318883895874023
1745672134.6281052,0.052067436277866364,0.05954058840870857,0.21328434348106384,0.43609189987182617,0.6204694509506226,-9.483627319335938
1745672134.6297674,0.07218127697706223,0.06248214840888977,0.21604366600513458,0.5620104074478149,0.1717412769794464,-10.241110801696777
1745672134.6319752,-0.04403197765350342,0.0735744833946228,0.24710476398468018,0.31298911571502686,0.2922665476799011,-9.92730712890625
1745672134.6736026,-0.03068821132183075,0.07006548345088959,0.24893724918365479,0.5768688917160034,0.3620367646217346,-9.555144309997559
1745672134.6761873,-0.03474786877632141,0.07141349464654922,0.24891319870948792,0.33131375908851624,0.344228595495224,-9.613195419311523
1745672134.678505,-0.02232038415968418,0.06546618789434433,0.24988225102424622,0.6710413098335266,0.020875271409749985,-9.718982696533203
1745672134.6801052,-0.03525284305214882,0.06738303601741791,0.24986162781715393,0.6729611158370972,0.2008785456418991,-9.792510032653809
1745672134.7129502,-0.04066311568021774,0.07036688178777695,0.2538207769393921,0.749397337436676,-0.16937382519245148,-9.95179271697998
1745672134.7150183,-0.05480955168604851,0.05354031175374985,0.2570991516113281,0.8040908575057983,0.17230889201164246,-9.709158897399902
1745672134.7182994,-0.045807819813489914,0.05919099971652031,0.2599402070045471,0.675704836845398,0.06196356937289238,-9.75067138671875
1745672134.7212734,-0.05883627384901047,0.054033320397138596,0.2618386149406433,0.7007883191108704,0.20277519524097443,-9.856420516967773
1745672134.722824,-0.046828798949718475,0.05218388885259628,0.2632601857185364,0.4396989941596985,0.16945627331733704,-9.859545707702637
1745672134.7581918,-0.03518601879477501,0.04978709667921066,0.2663199305534363,0.6616853475570679,0.28885748982429504,-9.495501518249512
1745672134.7624116,-0.04319962486624718,0.04691128805279732,0.267408162355423,0.3550659418106079,0.25929737091064453,-9.745728492736816
1745672134.7652943,-0.01832355186343193,0.04610660672187805,0.27097856998443604,0.5304578542709351,0.06363008916378021,-9.90617847442627
1745672134.769036,-0.03246380761265755,0.04503483697772026,0.2739192545413971,0.6149183511734009,0.16408291459083557,-9.65192699432373
1745672134.8014755,-0.11187906563282013,-0.04422147199511528,0.26538631319999695,0.675256609916687,-0.6786982417106628,-10.549294471740723
1745672134.805017,-0.14096640050411224,-0.025329619646072388,0.25992465019226074,0.26827025413513184,-0.5662148594856262,-10.815752983093262
1745672134.809462,-0.17936155200004578,-0.04193289950489998,0.25343555212020874,0.35936588048934937,-0.10014184564352036,-9.02037525177002
1745672134.8110814,-0.21151883900165558,-0.06065824627876282,0.24798929691314697,-0.001139728701673448,0.11269225925207138,-8.977696418762207
1745672134.8436036,-0.19869622588157654,-0.06010323762893677,0.23953738808631897,0.11498068273067474,0.4756253659725189,-10.351591110229492
1745672134.8444092,-0.20094580948352814,-0.05291542410850525,0.2318325936794281,-0.04727289453148842,1.1415057182312012,-10.461796760559082
1745672134.847302,-0.1247461661696434,-0.05342922359704971,0.22603006660938263,0.20497627556324005,1.1492537260055542,-9.159677505493164
1745672134.8497314,-0.08910036832094193,-0.0774136558175087,0.22077801823616028,0.3793802857398987,1.3544753789901733,-9.180400848388672
1745672134.8515804,-0.033184703439474106,-0.07854831963777542,0.2223254144191742,0.265609472990036,0.9734547734260559,-10.6480073928833
1745672134.8866408,0.02735598012804985,-0.06720659881830215,0.2224765121936798,0.2511862516403198,0.6668154001235962,-10.361709594726562
1745672134.891607,0.025619711726903915,-0.06449496746063232,0.22448310256004333,0.0003236532211303711,0.4209102988243103,-9.10727596282959
1745672134.894632,0.02935701608657837,-0.07898789644241333,0.21548941731452942,0.5257149934768677,0.19225025177001953,-9.030485153198242
1745672134.8986611,-0.007084542419761419,-0.09181760996580124,0.21408195793628693,0.45242804288864136,0.0031754435040056705,-10.421747207641602
1745672134.9299114,0.018128646537661552,-0.06857839226722717,0.21401962637901306,-0.41149845719337463,0.03849783167243004,-10.840179443359375
1745672134.9310741,-0.018682971596717834,-0.05038170889019966,0.20235291123390198,0.06914213299751282,0.07998894900083542,-8.396414756774902
1745672134.9371877,-0.0633738785982132,-0.10193991661071777,0.19840070605278015,0.48233717679977417,-0.9016876220703125,-8.911418914794922
1745672134.9372325,-0.16423417627811432,-0.10854238271713257,0.20278863608837128,-0.12863121926784515,-1.1272319555282593,-11.727293014526367
1745672134.9717357,-0.15038476884365082,-0.051441263407468796,0.19627347588539124,-0.5016804933547974,0.42278018593788147,-10.58127212524414
1745672134.9762466,-0.17070409655570984,-0.057816170156002045,0.1952078491449356,0.24922828376293182,0.0833197608590126,-7.493873596191406
1745672134.9772801,-0.13854652643203735,-0.10422354936599731,0.1915605366230011,1.1172815561294556,0.5827429294586182,-8.817611694335938
1745672134.977325,-0.1293998807668686,-0.10986044257879257,0.18358854949474335,0.9585152864456177,1.3345286846160889,-12.776318550109863
1745672134.9783344,-0.036265779286623,-0.05987801402807236,0.16257163882255554,0.01044079102575779,-0.8199494481086731,-6.693098545074463
1745672135.0154858,-0.05116814374923706,-0.09704510867595673,0.16894951462745667,0.08965853601694107,0.42181891202926636,-7.403748989105225
1745672135.0180492,-0.05256382375955582,-0.0832868292927742,0.15687128901481628,0.16723141074180603,0.64616459608078,-12.738256454467773
1745672135.0192494,0.027239123359322548,-0.03504455089569092,0.1402469426393509,-0.3542070984840393,1.1762986183166504,-11.985313415527344
1745672135.0229027,0.004868662916123867,-0.03974668309092522,0.1323496550321579,-0.18669970333576202,0.363713800907135,-7.400279998779297
1745672135.0560858,-0.013415368273854256,-0.09568866342306137,0.13391828536987305,0.09973318874835968,0.18285386264324188,-7.7278289794921875
1745672135.061381,-0.02630138024687767,-0.07545642554759979,0.13440144062042236,0.2406848967075348,-0.13123850524425507,-11.980995178222656
1745672135.0632536,-0.036246731877326965,-0.03138201683759689,0.1337791234254837,0.37483930587768555,-0.18469929695129395,-11.634279251098633
1745672135.0653603,-0.03838969022035599,-0.03666059300303459,0.13676683604717255,0.5468254685401917,0.5100778341293335,-7.72519063949585
1745672135.0692453,-0.05901695042848587,-0.09163712710142136,0.13656248152256012,0.6739656329154968,0.3764265477657318,-8.519052505493164
1745672135.1036851,-0.013419750146567822,-0.07811843603849411,0.13471777737140656,0.20015260577201843,0.9527679681777954,-12.027708053588867
1745672135.106803,0.0029325205832719803,-0.03600194677710533,0.12909890711307526,-0.07915285974740982,0.6132672429084778,-11.56258773803711
1745672135.1114593,0.03361905738711357,-0.05200551077723503,0.12779632210731506,-0.45827922224998474,0.7906967401504517,-7.9159836769104
1745672135.1146064,0.04741956293582916,-0.06952089071273804,0.12822534143924713,-0.4085622727870941,0.7646697759628296,-8.009084701538086
1745672135.1443489,0.05598149821162224,-0.061901696026325226,0.12540458142757416,-0.13487198948860168,0.3156692087650299,-11.206155776977539
1745672135.1525505,0.04769987612962723,0.03964166343212128,0.1119953989982605,0.475618839263916,0.6811463236808777,-8.430850982666016
1745672135.1526103,0.05053593963384628,-0.008634032681584358,0.11512378603219986,0.5778124928474426,0.3967597186565399,-8.473655700683594
1745672135.1526694,0.06810374557971954,-0.010848070494830608,0.12038153409957886,0.7148136496543884,0.11495969444513321,-11.118144989013672
1745672135.1898186,0.06294337660074234,0.02825607731938362,0.12647536396980286,0.3591439723968506,-0.09115700423717499,-11.380475044250488
1745672135.192083,0.09191931039094925,0.03405063971877098,0.1376475840806961,-0.011493748053908348,0.1099807471036911,-8.561359405517578
1745672135.1938448,0.07106610387563705,-0.0013497999170795083,0.14093145728111267,0.1345944106578827,0.18405869603157043,-8.118654251098633
1745672135.1954231,0.07438100874423981,0.0026070468593388796,0.1383252590894699,-0.026129186153411865,0.4172935485839844,-10.86693000793457
1745672135.2297633,0.08550611883401871,0.037782710045576096,0.12554627656936646,0.062227439135313034,0.35688668489456177,-11.352517127990723
1745672135.2320826,0.06261292845010757,0.030316650867462158,0.11574385315179825,0.01548692025244236,0.23018181324005127,-8.781095504760742
1745672135.233772,0.044516392052173615,0.018389150500297546,0.11821573972702026,0.22043125331401825,-0.6730731129646301,-8.214190483093262
1745672135.2360723,-0.01622679829597473,0.027628105133771896,0.1344088464975357,0.7981703281402588,-1.0506575107574463,-10.296568870544434
1745672135.242563,-0.03154156729578972,0.03942079097032547,0.14960739016532898,0.8506637811660767,-0.7686764001846313,-11.228740692138672
1745672135.276795,-0.06698247045278549,0.058449286967515945,0.16786471009254456,0.9745823740959167,-0.6656566858291626,-9.414985656738281
1745672135.279232,-0.07369086891412735,0.044571761041879654,0.18252360820770264,1.0147396326065063,0.3067668080329895,-8.374018669128418
1745672135.2817643,-0.07227366417646408,0.02550182305276394,0.18193671107292175,0.9895421862602234,0.9437283277511597,-10.189146995544434
1745672135.2837868,-0.039615876972675323,0.036987029016017914,0.1752055585384369,0.6480334401130676,1.056369423866272,-11.175910949707031
1745672135.3164062,0.002953851129859686,0.06578025221824646,0.1688593178987503,0.27480533719062805,1.47922682762146,-9.427450180053711
1745672135.319718,0.009931931272149086,0.037646543234586716,0.16749918460845947,0.06651600450277328,1.0197792053222656,-8.383048057556152
1745672135.3233953,0.07940362393856049,0.047833580523729324,0.16969352960586548,0.3251926302909851,1.0966899394989014,-9.469368934631348
1745672135.3263164,0.09022260457277298,0.06449874490499496,0.17611362040042877,0.6976144313812256,0.6948717832565308,-10.95461654663086
1745672135.3582504,-0.0930514708161354,0.07541482150554657,0.2258918583393097,0.6967765688896179,0.24474480748176575,-9.463152885437012
1745672135.3605351,-0.06886265426874161,0.06439969688653946,0.23686209321022034,0.6315991282463074,0.5592317581176758,-9.98886489868164
1745672135.3635392,-0.014532308094203472,0.0745275467634201,0.24490585923194885,0.5302351117134094,0.8856750726699829,-9.95851993560791
1745672135.3744624,0.0026199768763035536,0.07372574508190155,0.24416036903858185,0.4771198332309723,1.0231720209121704,-9.477717399597168
1745672135.3745146,0.041218630969524384,0.07299034297466278,0.23725667595863342,0.25736966729164124,1.1714409589767456,-9.340786933898926
1745672135.4017763,0.054844968020915985,0.06676657497882843,0.23001015186309814,0.6953314542770386,0.737105667591095,-9.742301940917969
1745672135.40392,0.05576539784669876,0.06595044583082199,0.2233186960220337,0.5981745719909668,0.564906120300293,-10.225306510925293
1745672135.405718,0.046865448355674744,0.0691554993391037,0.22634875774383545,0.7677971124649048,-0.3187432885169983,-9.908428192138672
1745672135.4096303,0.022455332800745964,0.0626261755824089,0.23333533108234406,0.6494248509407043,-0.2527214586734772,-9.234903335571289
1745672135.4458466,-0.003157746745273471,0.06918845325708389,0.2457868754863739,0.7647144198417664,-0.6031643152236938,-9.515162467956543
1745672135.447556,-0.01621006615459919,0.055959392338991165,0.25366127490997314,0.7492161393165588,-0.16668064892292023,-9.961709976196289
1745672135.4500031,-0.039121802896261215,0.06567768007516861,0.26036909222602844,0.6095794439315796,-0.30940714478492737,-10.091256141662598
1745672135.4515018,-0.014037217013537884,0.06474976241588593,0.25795164704322815,0.5196081399917603,0.29623866081237793,-9.457551956176758
1745672135.4914274,-0.04783172160387039,0.05627576261758804,0.2596362233161926,0.11516813188791275,0.28015121817588806,-9.542837142944336
1745672135.4950213,-0.025945663452148438,0.06035204604268074,0.25808873772621155,0.49021077156066895,-0.0357443168759346,-9.82250690460205
1745672135.4982672,-0.04766871780157089,0.0640881210565567,0.2579755187034607,0.4046739935874939,0.3606846332550049,-9.687528610229492
1745672135.498334,-0.02722644805908203,0.0009302789112553,0.30516475439071655,0.6339758634567261,0.4009656310081482,-9.846851348876953
1745672135.4999714,-0.03987347334623337,0.005390851758420467,0.3065156936645508,0.3967553675174713,0.38182300329208374,-9.60225772857666
1745672135.5395024,-0.030862485989928246,0.004841202404350042,0.30986732244491577,0.6404041051864624,0.05353881046175957,-9.639849662780762
1745672135.539598,-0.03391408547759056,-0.009544351138174534,0.30707985162734985,0.5602251887321472,1.0188952684402466,-9.816740036010742
1745672135.539672,-0.031759969890117645,-0.03741047531366348,0.28732743859291077,0.25585120916366577,0.4139253497123718,-10.471610069274902
1745672135.5406163,0.01333850622177124,-0.00802986603230238,0.27439212799072266,-0.22319798171520233,1.28261137008667,-9.597360610961914
1745672135.5733478,-0.01883479207754135,-0.026969289407134056,0.2628682255744934,-0.22531411051750183,0.04573524743318558,-9.274957656860352
1745672135.574857,0.02903085947036743,-0.05162915587425232,0.2557522654533386,-0.5379441380500793,0.26439258456230164,-9.660772323608398
1745672135.578482,-0.0033600791357457638,-0.010071463882923126,0.2590090334415436,-0.4099818766117096,-0.6621422171592712,-10.147324562072754
1745672135.5839536,-0.02174626663327217,-0.006797134876251221,0.26709118485450745,-0.043137528002262115,-0.9650723338127136,-9.41758918762207
1745672135.5873547,-0.057880885899066925,-0.04677964746952057,0.26923006772994995,0.28562039136886597,-0.3614885210990906,-9.132255554199219
1745672135.6176245,-0.08679280430078506,-0.043859463185071945,0.26699817180633545,0.8119364976882935,-0.7559224367141724,-10.450170516967773
1745672135.6194403,-0.12862706184387207,-0.028243765234947205,0.25656238198280334,0.24244654178619385,0.040857862681150436,-10.844038009643555
1745672135.6230667,-0.13656699657440186,-0.05057477205991745,0.24742081761360168,0.27404507994651794,0.05035725235939026,-9.290517807006836
1745672135.6236632,-0.18075495958328247,-0.06348033249378204,0.2385551631450653,0.22735881805419922,0.27515655755996704,-8.747953414916992
1745672135.6580894,-0.17309615015983582,-0.05810178443789482,0.23352093994617462,0.029915492981672287,0.7266658544540405,-10.241289138793945
1745672135.6612835,-0.1604687124490738,-0.05831954628229141,0.22412240505218506,0.050370953977108,0.9187192916870117,-10.668644905090332
1745672135.6644511,-0.0987541526556015,-0.056894589215517044,0.22038796544075012,0.16833169758319855,1.491593599319458,-9.203473091125488
1745672135.6675825,-0.05362459272146225,-0.06969583034515381,0.21415510773658752,0.3896932303905487,1.3960402011871338,-9.179551124572754
1745672135.70533,-0.06383605301380157,-0.09042929857969284,0.19351494312286377,-0.10186226665973663,1.3169480562210083,-10.006816864013672
1745672135.710494,-0.0013256706297397614,-0.07858019322156906,0.18837961554527283,0.14887109398841858,1.3705050945281982,-10.327146530151367
1745672135.7152255,0.02299949899315834,-0.08469425141811371,0.18483729660511017,-0.33691859245300293,1.1659371852874756,-9.91251277923584
1745672135.72005,0.058335233479738235,-0.07400752604007721,0.1751786172389984,-0.13638435304164886,0.8115999102592468,-9.224132537841797
1745672135.7472198,-0.01223462913185358,-0.1122206598520279,0.16653314232826233,0.6029378175735474,-0.19856564700603485,-9.700475692749023
1745672135.7504737,-0.016575699672102928,-0.08537895977497101,0.16971983015537262,-0.05721135064959526,-0.2234187126159668,-11.065266609191895
1745672135.752685,-0.046061690896749496,-0.0787537544965744,0.1652773767709732,0.4527418613433838,0.3764806389808655,-9.638700485229492
1745672135.7548058,-0.037570662796497345,-0.07993796467781067,0.15892323851585388,0.8175100088119507,0.263324111700058,-8.746976852416992
1745672135.7880352,-0.031849198043346405,-0.11059167236089706,0.15652233362197876,1.0507630109786987,0.4495941996574402,-10.079694747924805
1745672135.7939909,-0.018695296719670296,-0.09597054123878479,0.15702056884765625,0.27225273847579956,0.4132399559020996,-11.587486267089844
1745672135.8000765,0.014748585410416126,-0.0744318813085556,0.16213983297348022,-0.3424389362335205,0.4024595618247986,-9.968291282653809
1745672135.8041227,0.02519373968243599,-0.08301436901092529,0.16958770155906677,-0.7724611163139343,-0.3627012372016907,-8.233412742614746
1745672135.8076413,0.003951170481741428,-0.07893170416355133,0.16754405200481415,-0.15873359143733978,0.994057834148407,-8.725606918334961
1745672135.834533,0.00018585026555228978,-0.08299949020147324,0.151044100522995,0.22620287537574768,0.2225145399570465,-11.34208869934082
1745672135.8393352,0.06279276311397552,-0.04257550090551376,0.13067801296710968,0.1461637318134308,1.4278720617294312,-10.496960639953613
1745672135.842777,-0.016420308500528336,-0.05625051259994507,0.11854267120361328,0.8228672742843628,-0.0005567669868469238,-8.720158576965332
1745672135.84804,0.03787756711244583,-0.019170770421624184,0.07617883384227753,0.27890104055404663,0.139404296875,-10.258933067321777
1745672135.8773737,0.04693148657679558,-0.0018520026933401823,0.07331320643424988,0.18933239579200745,0.28055763244628906,-10.564321517944336
1745672135.881223,0.04319796711206436,-0.0018149148672819138,0.07773882895708084,0.3045555055141449,-0.11873248964548111,-9.633807182312012
1745672135.884525,0.054113782942295074,-0.006808458361774683,0.08567579835653305,0.0731690526008606,0.16879203915596008,-9.055498123168945
1745672135.8882914,0.061061520129442215,-0.008185964077711105,0.09085153043270111,0.170769602060318,0.08631853759288788,-9.851075172424316
1745672135.9180403,0.06753744930028915,0.0007448418764397502,0.08988004177808762,0.07355637103319168,0.34877705574035645,-10.391075134277344
1745672135.9232335,0.08030594885349274,0.012319961562752724,0.08386483043432236,0.028734708204865456,0.7127723693847656,-9.827913284301758
1745672135.9245162,0.08007066696882248,0.0006715686176903546,0.07752921432256699,0.05224502086639404,0.44368258118629456,-9.24069595336914
1745672135.9279022,0.07802002131938934,0.011698050424456596,0.06956477463245392,0.031143581494688988,0.5846852660179138,-9.504980087280273
1745672135.930784,0.06032990291714668,0.00322171114385128,0.068382129073143,0.5006227493286133,-0.13491377234458923,-10.028329849243164
1745672135.962701,0.06378506124019623,0.016703655943274498,0.06726551055908203,0.24212341010570526,0.2244526445865631,-10.035520553588867
1745672135.9656572,0.04991425201296806,0.02657201886177063,0.07561932504177094,0.3740025460720062,-0.09127800166606903,-9.521227836608887
1745672135.967387,0.053312938660383224,0.01001206785440445,0.08130740374326706,0.3730887770652771,0.17957904934883118,-9.326835632324219
1745672135.9697585,0.07201822847127914,0.015015488490462303,0.0858212262392044,0.31009095907211304,0.4591960906982422,-10.075169563293457
1745672136.0059373,0.07808490097522736,0.026030253618955612,0.08428797125816345,0.1356201469898224,0.5408296585083008,-10.289752006530762
1745672136.0094707,0.10953245311975479,0.034390125423669815,0.08414886891841888,-0.014065638184547424,0.6982632875442505,-9.291570663452148
1745672136.0128064,0.10695041716098785,0.019600436091423035,0.0812612920999527,0.22601766884326935,0.36657044291496277,-9.099403381347656
1745672136.014254,0.10366730391979218,0.01724233664572239,0.08127570897340775,0.1485196053981781,0.207540363073349,-10.238380432128906
1745672136.0464842,0.11481872946023941,0.03284067660570145,0.08361998200416565,0.4329289495944977,0.016115695238113403,-10.423813819885254
1745672136.0492058,0.08169665932655334,0.03351610153913498,0.08581201732158661,0.3158860504627228,-0.11059534549713135,-9.465478897094727
1745672136.0505252,0.09134162217378616,0.024486135691404343,0.09038325399160385,0.5468832850456238,-0.005189972929656506,-8.974882125854492
1745672136.0526924,0.06722857058048248,0.04814255237579346,0.11371946334838867,0.6882836222648621,-0.4059325158596039,-10.749948501586914
1745672136.055006,0.06265021115541458,0.05844992399215698,0.1202370896935463,0.5069880485534668,0.08009476959705353,-9.441934585571289
1745672136.0929284,0.042056359350681305,0.040320638567209244,0.12220446765422821,0.6865618824958801,0.07777933031320572,-8.754980087280273
1745672136.0943117,0.03684457391500473,0.028642524033784866,0.12001113593578339,0.4037754535675049,0.4057650566101074,-10.13474178314209
1745672136.0970943,0.0499289371073246,0.051654569804668427,0.11767934262752533,0.3787916302680969,0.48114174604415894,-10.576603889465332
1745672136.1021314,0.057550907135009766,0.04797782376408577,0.11769014596939087,0.29103443026542664,0.4685765206813812,-9.428203582763672
1745672136.1343317,0.073705293238163,0.039991918951272964,0.1167818084359169,0.20803013443946838,0.5280658602714539,-8.940542221069336
1745672136.1360202,0.07975196838378906,0.028977995738387108,0.12362541258335114,0.3756537139415741,0.17390456795692444,-10.055002212524414
1745672136.1387343,0.12222661823034286,0.05522793531417847,0.13031885027885437,0.35630959272384644,0.24076731503009796,-10.379756927490234
1745672136.1407225,0.0982094556093216,0.0548165962100029,0.13336606323719025,0.4041142463684082,-0.10527108609676361,-9.37190055847168
1745672136.14447,0.11458893865346909,0.029873982071876526,0.1412612795829773,0.42098182439804077,-0.1839393824338913,-9.068903923034668
1745672136.177387,0.08503250032663345,0.04176366701722145,0.1415061056613922,0.39596548676490784,-0.23132863640785217,-10.100343704223633
1745672136.1791437,0.06253544241189957,0.04686034098267555,0.1395682692527771,0.20838601887226105,-0.2666729688644409,-10.345833778381348
1745672136.1824226,0.05185462161898613,0.05529693514108658,0.14016607403755188,0.29327327013015747,-0.2737581133842468,-9.189077377319336
1745672136.186708,-0.002968571614474058,0.03753266483545303,0.1404021680355072,0.43861740827560425,-0.38429293036460876,-9.097167015075684
1745672136.223368,0.042828239500522614,-0.007155320141464472,0.09529753029346466,0.07368278503417969,-0.23751163482666016,-9.413679122924805
1745672136.2253473,-0.006397986318916082,-0.02081598900258541,0.09617437422275543,0.41298770904541016,-0.8772220611572266,-9.412714958190918
1745672136.2270498,-0.027514483779668808,-0.02193620055913925,0.09824702888727188,0.2923380732536316,-0.5784116983413696,-10.097694396972656
1745672136.2311902,-0.05689153075218201,-0.014708717353641987,0.10231667757034302,0.4059039056301117,-0.656406044960022,-10.219232559204102
1745672136.2716694,-0.06328887492418289,-0.01576864905655384,0.10568839311599731,0.18617601692676544,-0.10836539417505264,-9.491503715515137
1745672136.271817,-0.05869842320680618,-0.01994265615940094,0.10575326532125473,0.16333362460136414,0.2741910219192505,-9.357879638671875
1745672136.2723234,-0.04420683532953262,-0.029433097690343857,0.10444261878728867,0.1382695436477661,0.5254060626029968,-10.010358810424805
1745672136.2747312,-0.004421784542500973,-0.014975912868976593,0.096910260617733,-0.03849701210856438,0.9681528210639954,-10.189430236816406
1745672136.3051057,0.016735918819904327,-0.020913006737828255,0.09232090413570404,0.16535168886184692,0.5684113502502441,-9.60153579711914
1745672136.3079836,0.04483525827527046,-0.024821516126394272,0.08995715528726578,0.07586726546287537,0.6704500317573547,-9.336490631103516
1745672136.3093011,0.05102970078587532,-0.028115149587392807,0.089615598320961,0.3432931900024414,0.04208800196647644,-9.952672004699707
1745672136.3118417,0.06454554200172424,-0.025841528549790382,0.0963992103934288,0.29229971766471863,0.06442438066005707,-10.223610877990723
1745672136.3148005,0.06607431173324585,-0.020151924341917038,0.09915988147258759,0.1436392217874527,-0.12213263660669327,-9.734421730041504
1745672136.3507636,0.047142088413238525,-0.02928772009909153,0.09908229112625122,0.2767259180545807,-0.29166561365127563,-9.37651538848877
1745672136.3541188,0.0054910918697714806,-0.04806743934750557,0.09501458704471588,0.189218670129776,-0.3920711576938629,-10.065967559814453
1745672136.3548148,-0.023755988106131554,-0.03859267383813858,0.09134481102228165,0.05473529174923897,-0.5168275833129883,-10.606837272644043
1745672136.3649094,-0.04107419401407242,-0.027481531724333763,0.0849107876420021,-0.04816116765141487,0.15774564445018768,-9.546549797058105
1745672136.392647,-0.023439835757017136,-0.02481495589017868,0.08249001204967499,0.4014977514743805,-0.10701262950897217,-8.960653305053711
1745672136.3944623,-0.03482256457209587,-0.05060917139053345,0.07578355073928833,0.7367516756057739,0.3839212954044342,-9.635905265808105
1745672136.3975978,-0.009795425459742546,-0.038526501506567,0.08016534149646759,0.6604560613632202,-0.25854209065437317,-11.168920516967773
1745672136.4027898,0.01933365873992443,-0.028426185250282288,0.08751066029071808,0.17635181546211243,0.18490399420261383,-10.25036334991455
1745672136.435054,-0.0036273289006203413,-0.0038044159300625324,0.07106634974479675,0.22825005650520325,-0.36176425218582153,-8.83064079284668
1745672136.438273,0.02841481938958168,-0.02339407242834568,0.06974785029888153,0.20384669303894043,0.1860782653093338,-8.79210376739502
1745672136.4398136,0.025456592440605164,-0.02850809320807457,0.0643419474363327,0.3045010566711426,0.5291248559951782,-10.797314643859863
1745672136.4415889,0.044301535934209824,-0.011143654584884644,0.05006440728902817,-0.26436540484428406,0.3103768229484558,-11.346342086791992
1745672136.4766343,0.06130490452051163,-0.0013543216045945883,0.04600488021969795,-0.013268540613353252,0.2346591055393219,-8.920591354370117
1745672136.4789104,0.010006161406636238,-0.02773812785744667,0.046874675899744034,0.17849108576774597,-0.4560520648956299,-8.505643844604492
1745672136.482264,0.015820100903511047,-0.03001118265092373,0.04871664568781853,0.3941165506839752,-0.5435478687286377,-10.402032852172852
1745672136.4862864,-0.027556046843528748,-0.00723158847540617,0.05046631023287773,0.516663670539856,-0.34247368574142456,-11.026128768920898
1745672136.4896088,-0.024769404903054237,-0.0026972475461661816,0.05364613980054855,0.4192896783351898,-0.19443033635616302,-9.413653373718262
1745672136.5310073,-0.017917487770318985,-0.028053253889083862,0.0552515983581543,0.574823260307312,0.14502796530723572,-8.714240074157715
1745672136.5312307,-0.030702095478773117,-0.030372824519872665,0.0530276894569397,0.18190106749534607,0.38322538137435913,-10.433012008666992
1745672136.5313394,0.0248671006411314,-0.008907569572329521,0.0525975339114666,-0.06526609510183334,0.4074465334415436,-10.875312805175781
1745672136.5313995,0.02121206745505333,0.0004842465277761221,0.046902138739824295,-0.3796912133693695,0.6304105520248413,-9.007097244262695
1745672136.5634987,0.054040443152189255,-0.011092199012637138,0.04869835078716278,-0.10868092626333237,0.3131793141365051,-8.404052734375
1745672136.5652294,0.055774856358766556,-0.018167618662118912,0.04123227298259735,0.1023370623588562,0.29720550775527954,-10.15723991394043
1745672136.5677247,0.050790704786777496,0.0395648255944252,-0.009736989624798298,0.44746166467666626,-0.44523653388023376,-10.076089859008789
1745672136.569696,0.059681691229343414,0.03065500222146511,-0.015454506501555443,0.7536920309066772,-0.02792484685778618,-8.794498443603516
1745672136.5708885,-0.010744340717792511,0.006227230187505484,-0.012036199681460857,0.8235584497451782,-0.7028580904006958,-9.802045822143555
1745672136.611212,0.03365148976445198,0.031091388314962387,-0.01211661659181118,0.38367778062820435,-0.2114066183567047,-10.76086711883545
1745672136.6135888,-0.004986280109733343,0.04068458080291748,-0.007868696935474873,0.1953207552433014,-0.23557443916797638,-9.825550079345703
1745672136.6165195,0.03917025402188301,0.033952947705984116,-0.009194877929985523,0.13100892305374146,0.2557789981365204,-8.527424812316895
1745672136.619878,0.024195551872253418,0.0244212094694376,-0.01206596102565527,0.3653215765953064,0.48894748091697693,-9.464122772216797
1745672136.6513011,0.06292920559644699,0.027454059571027756,-0.02159702405333519,0.15647096931934357,0.38631901144981384,-11.063936233520508
1745672136.6535234,0.09759484231472015,0.052562177181243896,-0.029142308980226517,0.4481807351112366,0.7898207306861877,-9.834477424621582
1745672136.656813,0.07550203800201416,0.036292463541030884,-0.03390909731388092,0.410449743270874,-0.3071412444114685,-8.825603485107422
1745672136.6596534,0.10578791797161102,0.02376701682806015,-0.028992781415581703,0.5236695408821106,-0.1415063589811325,-9.33754825592041
1745672136.6949596,0.05891258642077446,0.03513483330607414,-0.027374163269996643,0.7679966688156128,-0.631553590297699,-10.628332138061523
1745672136.6992054,0.07776277512311935,0.05681050568819046,-0.025861889123916626,0.27574652433395386,-0.1446738988161087,-10.106708526611328
1745672136.7022424,0.05406041070818901,0.03972152993083,-0.02606033906340599,0.6046363711357117,-0.09108177572488785,-8.7658109664917
1745672136.7047107,0.052987683564424515,0.0239292960613966,-0.033138372004032135,0.4590698778629303,0.11378911882638931,-9.50709342956543
1745672136.7349017,0.05732297897338867,0.0378442220389843,-0.03942916542291641,0.2658296227455139,0.05865588039159775,-10.851155281066895
1745672136.737571,0.07266083359718323,0.0390230230987072,-0.04531795158982277,0.20189742743968964,-0.14395251870155334,-10.006316184997559
1745672136.739241,0.06084556505084038,0.04330151528120041,-0.044837839901447296,0.23683413863182068,-0.09088499844074249,-8.626991271972656
1745672136.7403271,0.05670515447854996,0.02481786534190178,-0.039797380566596985,0.48379844427108765,-0.5364001393318176,-9.391968727111816
1745672136.7431064,0.0597459077835083,0.03500533103942871,-0.037509284913539886,0.41187113523483276,-0.1271933764219284,-10.592486381530762
1745672136.7820768,0.07013669610023499,0.03748705983161926,-0.056012313812971115,0.5139860510826111,-0.1736331284046173,-9.356977462768555
1745672136.7826138,0.07887385785579681,0.017073528841137886,-0.05794556066393852,0.36312568187713623,-0.25144609808921814,-9.404897689819336
1745672136.7848983,0.08523143082857132,0.02880042791366577,-0.056574832648038864,0.39906275272369385,-0.24466367065906525,-9.998616218566895
1745672136.7872508,0.05136551707983017,0.030448421835899353,-0.05610322952270508,0.4300316870212555,-0.40927377343177795,-10.064064025878906
1745672136.8247306,0.07012584805488586,0.02866826020181179,-0.06083615496754646,0.3914869725704193,-0.1970161646604538,-9.436020851135254
1745672136.8265884,0.038411520421504974,0.020260142162442207,-0.06455098092556,0.5539926290512085,-0.21333029866218567,-9.41267204284668
1745672136.8285098,0.02743012271821499,0.02084699459373951,-0.0691041499376297,0.3823562562465668,-0.33420485258102417,-10.101204872131348
1745672136.8299193,0.03837495297193527,0.021747570484876633,-0.06932185590267181,0.6456354856491089,-0.3176213204860687,-9.955710411071777
1745672136.8655486,0.010993664152920246,0.018242573365569115,-0.0675973892211914,0.45879673957824707,-0.2998862862586975,-9.601320266723633
1745672136.8676176,0.028672169893980026,0.019430367276072502,-0.06647670269012451,0.42589545249938965,-0.20794770121574402,-9.569948196411133
1745672136.8691525,0.02340533956885338,0.011685624718666077,-0.06315741688013077,0.4461175501346588,-0.1914939135313034,-9.75252914428711
1745672136.871202,0.044731318950653076,0.018388990312814713,-0.06505200266838074,0.3122537434101105,0.1353173553943634,-9.887468338012695
1745672136.8736777,0.04232363775372505,0.01291732769459486,-0.06671852618455887,0.39450958371162415,-0.06986711919307709,-9.753412246704102
1745672136.9097793,0.07042056322097778,0.014581091701984406,-0.06875883042812347,0.20308026671409607,0.3574131727218628,-9.581204414367676
1745672136.9104455,0.054841917008161545,0.010680781677365303,-0.07502444088459015,0.44598665833473206,-0.17542116343975067,-9.674589157104492
1745672136.9131434,-0.011144286021590233,-0.01773839071393013,-0.09315495193004608,0.3952192962169647,-0.18268847465515137,-9.996671676635742
1745672136.917517,0.003627947997301817,-0.018401751294732094,-0.09523279964923859,0.6698135733604431,-0.23271453380584717,-9.654014587402344
1745672136.9530246,-0.004541795235127211,-0.019454900175333023,-0.09745331853628159,0.39118415117263794,0.06941024959087372,-9.62181568145752
1745672136.9547958,0.018187586218118668,-0.016991661861538887,-0.09915268421173096,0.7710915803909302,-0.15811872482299805,-9.776070594787598
1745672136.9565318,0.0224110409617424,-0.021432822570204735,-0.10186314582824707,0.6178691983222961,-0.02682468295097351,-10.053064346313477
1745672136.9587302,0.04559297487139702,-0.013401059433817863,-0.10301526635885239,0.6073476672172546,-0.17798277735710144,-9.957246780395508
1745672136.996966,0.04713789373636246,-0.01850956678390503,-0.10150791704654694,0.4373045563697815,-0.10880299657583237,-9.648289680480957
1745672136.9993992,0.050457913428545,-0.01299144048243761,-0.1062416210770607,0.373364120721817,-0.21158233284950256,-9.565652847290039
1745672137.0029123,0.050131864845752716,-0.013347956351935863,-0.11004237830638885,0.6086112260818481,-0.28501027822494507,-9.703325271606445
1745672137.0070417,0.017222583293914795,-0.01796051114797592,-0.11490766704082489,0.3425355851650238,-0.31427428126335144,-10.090331077575684
1745672137.0364065,0.04426002502441406,-0.010408948175609112,-0.11938817799091339,0.7071121335029602,-0.4521130621433258,-9.809701919555664
1745672137.0395641,-0.007688147481530905,-0.013297924771904945,-0.12047725915908813,0.44769343733787537,-0.3842484951019287,-9.68590259552002
1745672137.0422015,0.011543281376361847,-0.01450706273317337,-0.12292607873678207,0.6236776113510132,-0.6817130446434021,-9.774023056030273
1745672137.0441244,-0.010700339451432228,-0.018677953630685806,-0.1205059289932251,0.6737321019172668,-0.2385289967060089,-9.808761596679688
1745672137.0493424,-0.008633489720523357,-0.006038342602550983,-0.12078511714935303,0.3576238751411438,-0.3423607349395752,-9.985849380493164
1745672137.084918,0.009512638673186302,-0.013573323376476765,-0.12399206310510635,0.5998368263244629,-0.02841026522219181,-9.585408210754395
1745672137.0883822,0.009320661425590515,-0.010713741183280945,-0.12456072866916656,0.2890816330909729,0.13268236815929413,-9.698145866394043
1745672137.0972779,0.037987880408763885,-0.012280074879527092,-0.13028700649738312,0.4894522726535797,-0.09608162939548492,-10.051675796508789
1745672137.0973206,0.035515785217285156,-0.009749708697199821,-0.13219740986824036,0.43687400221824646,0.08846697211265564,-9.877290725708008
1745672137.1223567,0.05406593158841133,-0.004709202796220779,-0.1355256289243698,0.5066806674003601,-0.14870969951152802,-9.587820053100586
1745672137.1259336,0.03326116129755974,-0.013169022276997566,-0.13607579469680786,0.5552767515182495,-0.34238117933273315,-9.61536693572998
1745672137.1277435,0.04908696189522743,0.0034415621776133776,-0.1525081843137741,0.4610210061073303,-0.04976074770092964,-10.01180648803711
1745672137.129005,0.03138459846377373,0.002271444071084261,-0.15779165923595428,0.7774565815925598,-0.38441044092178345,-9.716316223144531
1745672137.1320338,0.03652637079358101,-0.0022663003765046597,-0.15788474678993225,0.443828284740448,-0.24450917541980743,-9.707967758178711
1745672137.1677988,0.0412604846060276,0.00014583700976800174,-0.1576707661151886,0.6132491827011108,-0.3039092421531677,-9.791909217834473
1745672137.17118,0.027294497936964035,0.0037794008385390043,-0.15975862741470337,0.5256590843200684,-0.2628897726535797,-9.876423835754395
1745672137.1753616,0.031107693910598755,0.004063925705850124,-0.1611952781677246,0.3767383396625519,-0.1394716203212738,-9.857385635375977
1745672137.1789165,0.04989950358867645,-0.0022445633076131344,-0.16477850079536438,0.5588974952697754,-0.1736426055431366,-9.636987686157227
1745672137.211907,0.04455171152949333,0.0054766833782196045,-0.16759559512138367,0.31496119499206543,0.06413033604621887,-9.724531173706055
1745672137.2142138,0.05436553806066513,0.0008976024691946805,-0.16872644424438477,0.6266552805900574,-0.4639948904514313,-9.97266674041748
1745672137.2176723,0.06589962542057037,0.005942516960203648,-0.16869281232357025,0.49763649702072144,-0.07417052984237671,-9.815144538879395
1745672137.2211933,0.05936811491847038,0.0011922137346118689,-0.16348376870155334,0.3235335648059845,-0.5738091468811035,-9.780492782592773
1745672137.2251341,0.0778442844748497,0.004652279894798994,-0.1596517264842987,0.0709991604089737,-0.5669377446174622,-9.536229133605957
1745672137.2558475,0.04620780423283577,0.01612427458167076,-0.14925932884216309,0.4118990898132324,-0.6700387001037598,-9.425947189331055
1745672137.2559342,0.014432561583817005,-0.01435956358909607,-0.14131489396095276,0.07277435064315796,-0.9000147581100464,-10.396120071411133
1745672137.2614625,0.014471362344920635,0.008054031059145927,-0.1407124102115631,-0.005743479821830988,-0.11012472957372665,-10.027958869934082
1745672137.2954106,-0.05809622257947922,-0.030892882496118546,-0.06639530509710312,0.24621467292308807,-0.41646909713745117,-10.606316566467285
1745672137.2973516,-0.04319404810667038,-0.011914696544408798,-0.06744107604026794,0.06552769243717194,-0.1261894404888153,-10.378016471862793
1745672137.2997205,-0.029058534651994705,-0.02195136249065399,-0.06470326334238052,0.28353574872016907,-0.04006211832165718,-9.011723518371582
1745672137.3010368,-0.010474981740117073,-0.029566925019025803,-0.06428232789039612,0.13869671523571014,0.2756601870059967,-9.279901504516602
1745672137.303523,0.016263874247670174,-0.025747140869498253,-0.061727799475193024,0.3186406195163727,-0.18386435508728027,-10.452548027038574
1745672137.3401937,0.018149925395846367,-0.018131708726286888,-0.06084182858467102,0.28432807326316833,-0.11046304553747177,-10.095033645629883
1745672137.3432786,0.028279637917876244,-0.018231604248285294,-0.05632568150758743,0.3807952105998993,-0.4819623529911041,-9.295682907104492
1745672137.3462174,0.014636573381721973,-0.03203495591878891,-0.05377392843365669,0.41995009779930115,-0.29681962728500366,-9.421770095825195
1745672137.3552969,0.0013224415015429258,-0.025680681690573692,-0.05468916893005371,0.30621421337127686,-0.43284058570861816,-10.250967025756836
1745672137.3810215,-0.0018915251130238175,-0.02057282254099846,-0.05799349024891853,0.6320849657058716,-0.3130515217781067,-10.03072452545166
1745672137.3839483,-0.02741919457912445,-0.026712551712989807,-0.06102345138788223,0.43001312017440796,-0.1516500562429428,-9.647680282592773
1745672137.3851607,-0.010331511497497559,-0.039300866425037384,-0.06732986867427826,0.23141388595104218,-0.20196151733398438,-9.786958694458008
1745672137.3876493,-0.018274860456585884,-0.022246871143579483,-0.07046844810247421,0.36278635263442993,-0.16443081200122833,-9.668973922729492
1745672137.3899791,0.002301554661244154,-0.021076012402772903,-0.06995562463998795,0.31573405861854553,-0.33374983072280884,-9.808313369750977
1745672137.4271753,-0.0004817944427486509,-0.036971233785152435,-0.06806068122386932,0.2598000466823578,-0.3959178328514099,-9.914146423339844
1745672137.4278536,0.02651701495051384,-0.013723470270633698,-0.06653370708227158,0.16835054755210876,-0.22359132766723633,-9.803911209106445
1745672137.4323194,0.012022892013192177,-0.012391920201480389,-0.06696508824825287,0.30838125944137573,-0.556990921497345,-9.514490127563477
1745672137.4357646,0.02841668389737606,-0.028357869014143944,-0.06805793941020966,0.3487740159034729,-0.3393592834472656,-9.519577026367188
1745672137.4667902,-0.015493658371269703,-0.01879650540649891,-0.07685955613851547,0.5207372903823853,-0.42322731018066406,-10.214735984802246
1745672137.4706445,-0.012345526367425919,-0.012827331200242043,-0.08108814805746078,0.1577078104019165,-0.613446831703186,-10.258344650268555
1745672137.4733987,0.018424317240715027,-0.019940979778766632,-0.09646181762218475,0.5215975046157837,-0.7107647657394409,-10.5831298828125
1745672137.4746728,0.010613145306706429,-0.00386681966483593,-0.09931226074695587,0.29068294167518616,-0.4423600733280182,-10.426095008850098
1745672137.5107021,-0.01642574369907379,-0.005815866403281689,-0.10007406771183014,0.572984516620636,-0.7471394538879395,-9.022481918334961
1745672137.5129006,-0.04591623693704605,-0.0242756437510252,-0.10169005393981934,0.41570720076560974,-0.5462374687194824,-9.262316703796387
1745672137.5162785,-0.04030517488718033,-0.01693855971097946,-0.10234574228525162,0.32191890478134155,-0.5014876127243042,-10.517560958862305
1745672137.5193553,-0.044327665120363235,-0.0019821387249976397,-0.09983141720294952,0.18428447842597961,-0.2341916859149933,-10.261066436767578
1745672137.554914,-0.024055035784840584,0.006097939796745777,-0.10174825042486191,0.18103602528572083,0.03437115624547005,-8.881953239440918
1745672137.5572398,-0.010803191922605038,-0.015677940100431442,-0.10222234576940536,0.2551214396953583,0.10651612281799316,-9.180401802062988
1745672137.5609286,-0.0013174496125429869,-0.0067909942008554935,-0.10510663688182831,0.1302512288093567,0.13180772960186005,-10.620936393737793
1745672137.5646415,0.04243491590023041,0.0075529105961322784,-0.10483093559741974,0.40089884400367737,-0.10684528201818466,-10.359082221984863
1745672137.5661051,0.026499133557081223,0.0035523746628314257,-0.1073836088180542,0.2595099210739136,-0.1009986624121666,-9.176515579223633
1745672137.5985544,0.04492112249135971,-0.004693925380706787,-0.10504641383886337,0.5063074827194214,-0.3401164412498474,-9.219877243041992
1745672137.599609,0.003433904144912958,-0.013513010926544666,-0.10648820549249649,0.45041999220848083,-0.43163761496543884,-10.381499290466309
1745672137.6034832,0.022853296250104904,0.01085137389600277,-0.11006252467632294,0.41900691390037537,-0.43004149198532104,-10.360535621643066
1745672137.6061013,-0.0057145277969539165,-3.011738954228349e-05,-0.11014703661203384,0.4389689564704895,-0.3669801652431488,-9.347816467285156
1745672137.6391673,-0.009806964546442032,-0.00986086018383503,-0.11348450183868408,0.21758823096752167,-0.38504326343536377,-9.399850845336914
1745672137.648023,0.0025375369004905224,0.007046740502119064,-0.13069143891334534,0.27687129378318787,-0.04618031904101372,-9.62263298034668
1745672137.6481242,0.034586429595947266,0.013431502506136894,-0.13175824284553528,0.3076777458190918,0.0061274380423128605,-9.8135986328125
1745672137.6482108,0.0320519283413887,0.009560713544487953,-0.13390183448791504,0.38061273097991943,-0.12991838157176971,-9.880617141723633
1745672137.6482697,0.05950937420129776,0.017400503158569336,-0.13523025810718536,0.24069614708423615,-0.10908125340938568,-9.776344299316406
1745672137.6847146,0.0422188825905323,0.0155723188072443,-0.1362631618976593,0.4704760015010834,-0.3652607500553131,-9.562652587890625
1745672137.6862557,0.04284151643514633,0.010767624713480473,-0.13609105348587036,0.37625834345817566,-0.44997698068618774,-9.71658992767334
1745672137.690313,0.03153697028756142,0.016982056200504303,-0.13872715830802917,0.5106715559959412,-0.4570694863796234,-9.893148422241211
1745672137.6951783,0.007321758661419153,0.013295991346240044,-0.1381845474243164,0.4114535450935364,-0.6111825704574585,-9.914579391479492
1745672137.7254055,0.020369604229927063,0.017420275136828423,-0.1400928646326065,0.43709883093833923,-0.29333677887916565,-9.577360153198242
1745672137.7289357,-0.015208115801215172,0.007963898591697216,-0.14045819640159607,0.5076404213905334,-0.5513638257980347,-9.8034029006958
1745672137.7319849,0.013014975003898144,0.01274859718978405,-0.14218971133232117,0.3293013274669647,-0.1059449091553688,-9.912861824035645
1745672137.735521,-0.013567650690674782,0.011075971648097038,-0.14275813102722168,0.44137734174728394,-0.4104860723018646,-9.878837585449219
1745672137.7402608,0.019747210666537285,0.01487043034285307,-0.1420411467552185,0.14138163626194,-0.12595234811306,-9.624249458312988
1745672137.7716699,0.018036911264061928,0.016250211745500565,-0.13973255455493927,0.4842396676540375,-0.14121924340724945,-9.477089881896973
1745672137.7746897,0.020410340279340744,0.007204550318419933,-0.14137887954711914,0.4138021469116211,-0.21020393073558807,-9.973834037780762
1745672137.7754476,0.04631021246314049,0.018121421337127686,-0.14242152869701385,0.4418449401855469,0.029272224754095078,-9.986184120178223
1745672137.7774765,0.03179232031106949,0.01231447421014309,-0.14501766860485077,0.513098955154419,-0.29710882902145386,-9.649618148803711
1745672137.8141868,0.04644086956977844,0.012014088220894337,-0.14666657149791718,0.34645184874534607,-0.08845949172973633,-9.56918716430664
1745672137.8183482,0.042985375970602036,0.005494331009685993,-0.14784064888954163,0.5540958642959595,-0.5153717994689941,-9.92612361907959
1745672137.8225882,0.02736373245716095,0.013154268264770508,-0.14649304747581482,0.28110235929489136,-0.23093727231025696,-9.959700584411621
1745672137.8270636,0.020390409976243973,0.00927009154111147,-0.1426708847284317,0.3221845030784607,-0.084991455078125,-10.110920906066895
1745672137.8555837,0.014144713059067726,0.0008395174518227577,-0.14196673035621643,0.35873836278915405,-0.32705196738243103,-9.78264331817627
1745672137.8574617,0.041581325232982635,0.00041160089313052595,-0.14351102709770203,0.2842460870742798,-0.0988958328962326,-9.42402172088623
1745672137.8596725,0.021581599488854408,-0.0005142837762832642,-0.14048157632350922,0.38582906126976013,-0.27427199482917786,-9.838607788085938
1745672137.8617694,0.03802408650517464,-0.008513083681464195,-0.14207535982131958,0.32634538412094116,-0.40784668922424316,-10.042196273803711
1745672137.899456,0.04567825049161911,0.006666353438049555,-0.13972753286361694,0.4236469864845276,-0.2261149138212204,-9.589956283569336
1745672137.9022377,0.014612707309424877,-0.0039907763712108135,-0.13928768038749695,0.32110217213630676,-0.5842726826667786,-9.66604232788086
1745672137.9070606,0.04546317830681801,-0.00799486879259348,-0.1401277333498001,0.33740395307540894,-0.3457030653953552,-9.748926162719727
1745672137.910137,0.0014262499753385782,-0.00208089267835021,-0.1399964541196823,0.5052050352096558,-0.5914082527160645,-9.928228378295898
1745672137.9135578,0.016251256689429283,0.0007943315431475639,-0.13994398713111877,0.22301706671714783,-0.3854631781578064,-9.869138717651367
1745672137.9432154,0.002206002827733755,-0.009299419820308685,-0.13711485266685486,0.4857242703437805,-0.41622939705848694,-9.54997444152832
1745672137.9468427,-0.0021654991433024406,-0.006049069110304117,-0.14140327274799347,0.3059301972389221,-0.29099246859550476,-9.705879211425781
1745672137.9504948,0.004964515101164579,-0.0029021124355494976,-0.14076945185661316,0.37429696321487427,-0.2233065366744995,-9.928750991821289
1745672137.9534774,0.003031933680176735,-0.008037223480641842,-0.1414264738559723,0.46079176664352417,-0.3358408808708191,-9.743524551391602
1745672137.9953055,0.013760825619101524,0.0014440278755500913,-0.14154992997646332,0.3108653724193573,-0.010109653696417809,-9.686312675476074
1745672137.9995599,0.01052101794630289,-0.011899635195732117,-0.14032717049121857,0.416716992855072,-0.435799777507782,-9.873678207397461
1745672138.006183,-0.014610262587666512,-0.016854703426361084,-0.13054195046424866,0.057828836143016815,-0.4661127030849457,-9.82556438446045
1745672138.0101895,0.0008539155242033303,-0.025935765355825424,-0.11914923042058945,0.004610913805663586,-0.7444658279418945,-9.129220962524414
1745672138.013311,-0.008768130093812943,-0.02448679320514202,-0.1057625561952591,0.17755529284477234,-0.4867015480995178,-9.551199913024902
1745672138.0278146,-0.021358121186494827,-0.019710686057806015,-0.0975102037191391,0.31459134817123413,-0.8487094044685364,-10.363882064819336
1745672138.0330462,0.01678062416613102,-0.009726343676447868,-0.09117066860198975,0.47367629408836365,0.031239986419677734,-9.65666389465332
1745672138.0364437,-0.0236556027084589,-0.019166266545653343,-0.09163360297679901,0.5962076783180237,-0.24414296448230743,-9.512228012084961
1745672138.0387576,0.008581123314797878,-0.03196403756737709,-0.09254861623048782,0.4482044279575348,-0.2617189288139343,-10.022294998168945
1745672138.0692685,-0.031108221039175987,-0.018490765243768692,-0.09093818068504333,0.3594547212123871,-0.44690537452697754,-10.185234069824219
1745672138.0714622,-0.04093579202890396,-0.013297827914357185,-0.08774751424789429,0.12787342071533203,-0.6633177399635315,-9.508410453796387
1745672138.0733345,-0.04611778259277344,-0.016955101862549782,-0.08164984732866287,0.48993295431137085,-0.38468432426452637,-9.056958198547363
1745672138.0752146,-0.07950641959905624,-0.025825832039117813,-0.07856595516204834,0.4347032904624939,-0.21357795596122742,-10.087238311767578
1745672138.077245,-0.03736776113510132,-0.015119467861950397,-0.07599543035030365,0.41357389092445374,0.10239811986684799,-10.446240425109863
1745672138.1154695,-0.022628087550401688,-0.012608910910785198,-0.07745848596096039,0.4937105178833008,0.20312292873859406,-9.696072578430176
1745672138.118919,0.0065260096453130245,-0.02156134508550167,-0.07227687537670135,0.2012699544429779,0.022091057151556015,-9.459188461303711
1745672138.121643,0.018261173740029335,-0.025639032945036888,-0.06387414783239365,0.3064896762371063,-0.26749536395072937,-9.86401081085205
1745672138.1255834,0.02635255455970764,-0.01324172131717205,-0.058854132890701294,0.001246070140041411,-0.2999219000339508,-10.074238777160645
1745672138.1591501,0.027128716930747032,-0.004974558483809233,-0.053682971745729446,0.11420490592718124,-0.5640231966972351,-9.513175010681152
1745672138.1634088,0.006819805596023798,-0.019703233614563942,-0.05418979376554489,0.2985737919807434,-0.37572920322418213,-9.345937728881836
1745672138.1643786,-0.005273871123790741,-0.016272254288196564,-0.0557498037815094,0.40927568078041077,-0.5821599960327148,-10.201799392700195
1745672138.169071,-0.034164909273386,-0.017148053273558617,-0.05868060514330864,0.5510494112968445,-0.6373028755187988,-10.274930953979492
1745672138.2027712,-0.04029160365462303,-0.007488636765629053,-0.024836428463459015,0.42421966791152954,-0.4886067509651184,-10.085283279418945
1745672138.2040472,-0.043971866369247437,0.0020165625028312206,-0.02964014746248722,0.5641368627548218,-0.2942182421684265,-9.843600273132324
1745672138.2147088,-0.07904337346553802,-0.021122315898537636,-0.0340861976146698,0.7639864087104797,-0.15849098563194275,-9.741154670715332
1745672138.2148187,-0.053515005856752396,-0.019794030115008354,-0.04123765230178833,-0.031265269964933395,0.0866960734128952,-10.254494667053223
1745672138.2425148,-0.03472629562020302,0.011530006304383278,-0.04591170698404312,0.35233792662620544,-0.09421500563621521,-9.442220687866211
1745672138.2456198,-0.022214803844690323,-0.009350243024528027,-0.04799173027276993,0.1115129217505455,0.016840238124132156,-9.250346183776855
1745672138.2487707,-0.023560116067528725,-0.016416464000940323,-0.04694528505206108,0.14482121169567108,-0.5997629165649414,-10.136702537536621
1745672138.2490613,-0.006073780823498964,-0.0005333911394700408,-0.045520417392253876,0.11548493057489395,-0.3030654489994049,-10.257288932800293
1745672138.2515445,-0.03274264559149742,0.02397078648209572,-0.045777469873428345,0.0006513774278573692,-0.6518619656562805,-9.57285213470459
1745672138.2881463,-0.014974144287407398,-0.0004127610591240227,-0.05427371338009834,0.6703295707702637,-0.25214964151382446,-8.785420417785645
1745672138.289419,-0.06779248267412186,-0.00823579914867878,-0.06426380574703217,0.9185488820075989,-0.12492795288562775,-10.082586288452148
1745672138.2928257,-0.0454021692276001,0.013657011091709137,-0.07171423733234406,0.7749162912368774,-0.7229760885238647,-11.065321922302246
1745672138.296121,-0.06421056389808655,0.017955470830202103,-0.07948470115661621,0.44090938568115234,-0.008989394642412663,-9.476377487182617
1745672138.327758,-0.08835267275571823,0.005088218487799168,-0.07729518413543701,0.5853812098503113,-0.7396057844161987,-8.760663032531738
1745672138.3306773,-0.07534610480070114,-0.00742638623341918,-0.07728683203458786,0.4552939534187317,-0.10058285295963287,-9.85918140411377
1745672138.3344898,-0.06568928062915802,0.023044373840093613,-0.08013507723808289,0.20254230499267578,0.1584480106830597,-10.856714248657227
1745672138.338113,0.03577209264039993,0.016703609377145767,-0.14530596137046814,0.4872100353240967,-0.17101475596427917,-10.154624938964844
1745672138.3399494,0.040314119309186935,0.03280369192361832,-0.14311139285564423,0.24423567950725555,-0.2840239405632019,-9.691362380981445
1745672138.3750303,0.048244379460811615,0.024216890335083008,-0.14362818002700806,0.4707408845424652,-0.27738457918167114,-9.235559463500977
1745672138.3789108,0.033622171729803085,0.01546829380095005,-0.14710509777069092,0.4147786498069763,-0.0469839945435524,-9.737643241882324
1745672138.381543,0.06024285405874252,0.030506232753396034,-0.1514536440372467,0.58845055103302,-0.07515235245227814,-10.209146499633789
1745672138.3862162,0.04605766385793686,0.027238383889198303,-0.15883055329322815,0.7407423257827759,-0.029976490885019302,-9.676650047302246
1745672138.4150262,0.06265244632959366,0.023651864379644394,-0.16527293622493744,0.7726861238479614,-0.21926605701446533,-9.409906387329102
1745672138.4174764,0.033467940986156464,0.016002107411623,-0.16337357461452484,0.7579666972160339,-0.45408153533935547,-9.90388011932373
1745672138.4189622,0.059677284210920334,0.028391938656568527,-0.16483978927135468,0.463385671377182,-0.29760751128196716,-10.051219940185547
1745672138.4219804,0.04860428348183632,0.029606711119413376,-0.16342762112617493,0.5486789345741272,-0.36002117395401,-9.444143295288086
1745672138.4230602,0.04608725756406784,0.022941503673791885,-0.1654905378818512,0.4740409851074219,-0.006757223512977362,-9.38097095489502
1745672138.4579427,0.06805036962032318,0.023058731108903885,-0.17249782383441925,0.5592550039291382,0.09027460962533951,-9.94881820678711
1745672138.462423,0.07935989648103714,0.024438586086034775,-0.17780600488185883,0.40607982873916626,0.0284486822783947,-10.185404777526855
1745672138.4674091,0.10142209380865097,0.03341977298259735,-0.18534937500953674,0.5496898293495178,-0.04915008693933487,-9.508459091186523
1745672138.472621,0.07944681495428085,0.01890621706843376,-0.18384221196174622,0.670539915561676,-0.5475819110870361,-9.409499168395996
1745672138.503462,0.08521990478038788,0.022927258163690567,-0.18451139330863953,0.5599349737167358,-0.4564638137817383,-9.944358825683594
1745672138.5068142,0.06182916834950447,0.02666153572499752,-0.18220628798007965,0.726710319519043,-0.7180445790290833,-10.128466606140137
1745672138.5100467,0.06466126441955566,0.02536708675324917,-0.1836736500263214,0.567815899848938,-0.3910255432128906,-9.618707656860352
1745672138.5123425,0.06099078059196472,0.0168123971670866,-0.18628478050231934,0.7882498502731323,-0.2538471221923828,-9.47506332397461
1745672138.544414,0.044169552624225616,0.01233760267496109,-0.1914098709821701,0.5608627200126648,-0.09931884706020355,-10.039946556091309
1745672138.5470006,0.06384158879518509,0.020215529948472977,-0.2160218209028244,0.6510164737701416,-0.3606813848018646,-9.914385795593262
1745672138.5480323,0.06496741622686386,0.005551573820412159,-0.2188275158405304,0.5776022672653198,-0.5377112627029419,-9.692390441894531
1745672138.5506785,0.089624784886837,0.005375026259571314,-0.2186100035905838,0.6069155931472778,-0.18152961134910583,-9.611190795898438
1745672138.5882077,0.061640866100788116,0.007312009576708078,-0.21833638846874237,0.5827568173408508,-0.5957318544387817,-9.94933795928955
1745672138.5908065,0.09392786771059036,0.01356135867536068,-0.21933944523334503,0.433908075094223,-0.19353243708610535,-9.687196731567383
1745672138.5947037,0.07366026937961578,0.005250916816294193,-0.21744561195373535,0.6902115941047668,-0.3975604176521301,-9.480849266052246
1745672138.600015,0.08519559353590012,0.0008774503949098289,-0.22172503173351288,0.4710546135902405,-0.17179760336875916,-9.9223051071167
1745672138.6025758,0.09597676992416382,0.0031544622033834457,-0.22664961218833923,0.6942470669746399,-0.3721306324005127,-10.017760276794434
1745672138.6391118,0.0797773003578186,0.002205419819802046,-0.2304016351699829,0.5913416147232056,-0.3708551228046417,-9.632894515991211
1745672138.639218,0.07319159060716629,0.0010306219337508082,-0.2298957109451294,0.618328332901001,-0.5181710124015808,-9.51323127746582
1745672138.6392806,0.0761602371931076,-0.0073182894848287106,-0.22628310322761536,0.5588133335113525,-0.6325305700302124,-9.742297172546387
1745672138.639329,0.06723085045814514,0.006250680889934301,-0.22802789509296417,0.3751068711280823,-0.3422372043132782,-9.889249801635742
1745672138.672064,0.07300648093223572,-0.002366836415603757,-0.22293329238891602,0.6237257719039917,-0.7547444105148315,-9.72136402130127
1745672138.674742,0.07777327299118042,-0.008165753446519375,-0.2259492576122284,0.29253333806991577,-0.12762323021888733,-9.615809440612793
1745672138.6759775,0.0693492442369461,-0.0015628341352567077,-0.22444495558738708,0.45395031571388245,-0.46539831161499023,-9.875005722045898
1745672138.6816711,0.08397607505321503,-0.0024685990065336227,-0.2256402224302292,0.2726539075374603,-0.2594805955886841,-9.744332313537598
1745672138.7173653,0.05377767235040665,-0.025671634823083878,-0.2269498109817505,0.42441290616989136,-0.417169988155365,-9.521000862121582
1745672138.7215323,0.05449193716049194,-0.04059543088078499,-0.23053446412086487,0.6381353139877319,-0.6844631433486938,-9.764482498168945
1745672138.7266693,0.04885415360331535,-0.029676485806703568,-0.23179328441619873,0.336029589176178,-0.34077686071395874,-10.09691047668457
1745672138.7297008,0.04442499950528145,-0.027802854776382446,-0.23377415537834167,0.535654604434967,-0.7496551871299744,-9.795122146606445
1745672138.7312613,0.03220450133085251,-0.03424309939146042,-0.23329707980155945,0.4404411315917969,-0.4887407720088959,-9.387728691101074
1745672138.7609925,0.028248658403754234,-0.036896709352731705,-0.23145131766796112,0.49276089668273926,-0.7459333539009094,-9.891077041625977
1745672138.7642808,0.035675786435604095,-0.03629009798169136,-0.2328978031873703,0.485576331615448,-0.5188388824462891,-10.088935852050781
1745672138.7681973,0.027115682139992714,-0.023880701512098312,-0.23223581910133362,0.35034382343292236,-0.4171905517578125,-9.680253982543945
1745672138.7694805,0.03012043796479702,-0.03583630174398422,-0.23006108403205872,0.5632756948471069,-0.6902965903282166,-9.420380592346191
1745672138.8031685,0.038339752703905106,-0.035762719810009,-0.23180046677589417,0.31876736879348755,-0.273380845785141,-9.891314506530762
1745672138.8049614,0.04123957082629204,-0.02755979262292385,-0.23160135746002197,0.518787145614624,-0.4981934428215027,-10.138524055480957
1745672138.8062017,0.05313155800104141,-0.029584089294075966,-0.22348585724830627,0.13951168954372406,-0.5053771734237671,-9.639513969421387
1745672138.8103993,0.05801255255937576,-0.027552763000130653,-0.2209480255842209,-0.04970565438270569,-0.5873399972915649,-9.38333797454834
1745672138.811608,0.029579441994428635,-0.04137609899044037,-0.21392416954040527,0.2894698977470398,-0.9793872833251953,-9.781805038452148
1745672138.8505719,0.015720734372735023,-0.04311323165893555,-0.20587196946144104,-0.476030170917511,-0.8478795886039734,-10.530214309692383
1745672138.850744,-0.00995051022619009,-0.029250677675008774,-0.20809292793273926,-0.09300388395786285,-0.6861716508865356,-9.558003425598145
1745672138.8533134,-0.02031787857413292,-0.03542611747980118,-0.20573143661022186,-0.014704590663313866,-0.15836581587791443,-8.955001831054688
1745672138.853719,-0.031625665724277496,-0.0591777078807354,-0.20675130188465118,0.43510833382606506,-0.9457842111587524,-9.964686393737793
1745672138.892275,-0.030369985848665237,-0.05788232758641243,-0.20283564925193787,0.29652902483940125,-0.3138330578804016,-10.686497688293457
1745672138.8954976,-0.0417313426733017,-0.04420623183250427,-0.19421640038490295,-0.03278130665421486,-0.8918005228042603,-10.160314559936523
1745672138.897841,-0.042434126138687134,-0.05673298239707947,-0.1493205577135086,0.022504452615976334,0.25006818771362305,-9.043953895568848
1745672138.902654,-0.03816450387239456,-0.0935940146446228,-0.16418258845806122,-0.3140425682067871,-0.05231640487909317,-9.572432518005371
1745672138.9057853,-0.016349023208022118,-0.04959065467119217,-0.1685110628604889,-0.6390039920806885,-0.6279711127281189,-10.15561580657959
1745672138.9322743,-0.04144454002380371,-0.022047678008675575,-0.15444089472293854,-0.11571333557367325,-1.1325128078460693,-9.312006950378418
1745672138.9337153,-0.05792861431837082,-0.08368422091007233,-0.12747487425804138,0.9583214521408081,-1.3081995248794556,-9.242216110229492
1745672138.935643,-0.0494324192404747,-0.055553991347551346,-0.1166100725531578,0.557673990726471,-0.7795658707618713,-11.023390769958496
1745672138.9388058,-0.09618961811065674,-0.02549326792359352,-0.11912474781274796,0.5342851281166077,-0.5557109117507935,-10.328798294067383
1745672138.9785466,-0.07391371577978134,-0.08231434971094131,-0.12896326184272766,0.4348495900630951,0.17121446132659912,-8.720544815063477
1745672138.981836,-0.09020372480154037,-0.07041002810001373,-0.13474972546100616,0.5510634779930115,-0.04891849681735039,-9.713827133178711
1745672138.987401,-0.09148972481489182,-0.06991492211818695,-0.1347145438194275,-0.2896624207496643,-0.34295812249183655,-11.365015029907227
1745672138.99224,-0.06859468668699265,-0.03620819374918938,-0.12988285720348358,-0.6728339195251465,-0.39705437421798706,-9.347153663635254
1745672139.0177193,-0.08027885854244232,-0.04496508464217186,-0.11920706182718277,0.3447151780128479,-0.2445092499256134,-7.494206428527832
1745672139.0203085,-0.040776655077934265,-0.07421623915433884,-0.11304835230112076,0.41359513998031616,0.28550171852111816,-10.253646850585938
1745672139.0231414,-0.0146616967394948,-0.058616816997528076,-0.11171875149011612,0.6551498174667358,-0.45523372292518616,-12.419106483459473
1745672139.0265827,0.02395642362535,-0.01731269061565399,-0.10927478224039078,0.159908264875412,0.03959772735834122,-9.516183853149414
1745672139.02879,-0.00147498887963593,-0.03916795551776886,-0.09775923192501068,0.2657949924468994,-1.0441097021102905,-7.480842590332031
1745672139.0621457,-0.049529846757650375,-0.007229571230709553,-0.06864221394062042,0.3669721484184265,-0.5242239236831665,-8.761905670166016
1745672139.062894,-0.07335342466831207,-0.014060884714126587,-0.0730641633272171,0.44863343238830566,-0.2960662543773651,-9.470372200012207
1745672139.0652947,-0.09452077001333237,-0.019570471718907356,-0.07837191969156265,0.8324519395828247,-0.6635242700576782,-10.854097366333008
1745672139.0700607,-0.08301210403442383,-0.002425184240564704,-0.07205770909786224,0.41332167387008667,-0.31017154455184937,-10.384930610656738
1745672139.103405,-0.0661659985780716,0.008225785568356514,-0.06641308963298798,-0.28481781482696533,-0.1712038516998291,-9.014544486999512
1745672139.1057878,-0.07424376159906387,-0.004499954637140036,-0.06221456453204155,0.021233683452010155,-0.44657737016677856,-8.682441711425781
1745672139.1080866,-0.08567751199007034,-0.04041697457432747,-0.05656938999891281,-0.060894209891557693,-0.5476183295249939,-10.443669319152832
1745672139.1094131,-0.10100183635950089,0.02155064046382904,-0.06130896881222725,-0.9379029273986816,-0.16615767776966095,-11.310258865356445
1745672139.1522913,-0.06528320163488388,0.024492556229233742,-0.07267791777849197,-0.3933388590812683,0.5640321373939514,-8.598888397216797
1745672139.1576724,-0.09983614832162857,-0.02048393338918686,-0.07499898970127106,0.6316819190979004,-0.7274661660194397,-8.1488037109375
1745672139.1597464,-0.11500971019268036,-0.009489623829722404,-0.0750230997800827,0.653528094291687,-0.019223427399992943,-11.091408729553223
1745672139.1624744,-0.07430903613567352,0.0033180236350744963,-0.07835279405117035,0.750154435634613,-0.4388549327850342,-11.708925247192383
1745672139.189555,-0.06000630930066109,0.025602752342820168,-0.06596384942531586,0.413916677236557,-0.34230583906173706,-8.958902359008789
1745672139.1925125,-0.10955774784088135,-0.0066149174235761166,-0.05513635277748108,0.5050857067108154,-0.8798109889030457,-8.00764274597168
1745672139.205176,-0.04602941870689392,-0.024681456387043,-0.045459914952516556,0.3380069136619568,0.023708129301667213,-10.436203002929688
1745672139.2052596,-0.08352506905794144,0.02288651466369629,-0.057350169867277145,-0.38348835706710815,0.6449236869812012,-11.721631050109863
1745672139.205326,-0.020186688750982285,0.03505867347121239,-0.07184953987598419,-0.16309070587158203,0.27886104583740234,-8.93324089050293
1745672139.233615,-0.028627609834074974,0.006954859010875225,-0.0874580666422844,0.08620741963386536,1.1392133235931396,-7.342044830322266
1745672139.2366085,-0.03876284509897232,-0.012262416072189808,-0.09781283885240555,0.4399278163909912,-0.6843663454055786,-10.824838638305664
1745672139.2410264,-0.024661410599946976,0.045769087970256805,-0.12006063759326935,0.9271630048751831,-0.4869422912597656,-9.754495620727539
1745672139.2440784,0.013152239844202995,0.022863272577524185,-0.11691421270370483,0.4491040110588074,0.051824815571308136,-8.591212272644043
1745672139.277786,-0.007337005343288183,0.04689148813486099,-0.11357295513153076,0.022083191201090813,-0.05802671238780022,-9.799542427062988
1745672139.2814245,0.02877899445593357,0.06148082762956619,-0.11691948026418686,0.07278288900852203,-0.18347468972206116,-10.148536682128906
1745672139.297923,0.041132017970085144,0.07002583891153336,-0.12698380649089813,0.28351062536239624,0.5990351438522339,-9.069391250610352
1745672139.2981174,0.022752422839403152,0.050062067806720734,-0.14113469421863556,0.6560531854629517,0.14928869903087616,-9.541091918945312
1745672139.319083,0.07293923199176788,0.06013604998588562,-0.15440325438976288,0.5942262411117554,0.22071845829486847,-10.4693021774292
1745672139.3236284,0.028897032141685486,0.07190746814012527,-0.15602385997772217,0.7829481959342957,-0.7658435106277466,-10.086944580078125
1745672139.3274286,0.008682158775627613,0.06345872581005096,-0.15147224068641663,0.8293420672416687,-1.1196048259735107,-9.093331336975098
1745672139.3311048,-0.021101299673318863,0.059566039592027664,-0.14231348037719727,0.6764331459999084,-0.6560631990432739,-9.518885612487793
1745672139.3338225,-0.0279884934425354,0.06313091516494751,-0.136368066072464,0.43509379029273987,-0.5670434236526489,-10.227241516113281
1745672139.3697314,-0.0021574744023382664,0.08476902544498444,-0.14395387470722198,0.4945172369480133,0.5103262662887573,-9.591939926147461
1745672139.3697917,-0.007709761615842581,0.057944655418395996,-0.1567661166191101,0.6420302391052246,0.43055519461631775,-9.523000717163086
1745672139.369839,0.044830743223428726,0.057238124310970306,-0.16848045587539673,0.21543553471565247,0.7969087958335876,-10.163039207458496
1745672139.3703156,0.061840277165174484,0.07367108762264252,-0.17644837498664856,0.319662868976593,0.2884075343608856,-10.120645523071289
1745672139.406757,0.09243819117546082,0.07292519509792328,-0.17498566210269928,0.3055165410041809,-0.1749560832977295,-9.076237678527832
1745672139.4089372,0.07744471728801727,0.06461503356695175,-0.1716621220111847,0.7532808184623718,-0.4287223815917969,-9.00416374206543
1745672139.4094865,0.020085085183382034,0.01508504431694746,-0.1246744766831398,0.2703340947628021,-0.3664639890193939,-9.348464965820312
1745672139.4111714,0.01564270257949829,0.006425467785447836,-0.12586617469787598,0.4254551827907562,-0.15118852257728577,-9.55911922454834
1745672139.4472213,0.017474833875894547,0.004583156201988459,-0.130548894405365,0.4126504361629486,0.014419068582355976,-10.207362174987793
1745672139.4488206,0.022602509707212448,0.019101332873106003,-0.138307586312294,0.05475365370512009,-0.03301510959863663,-9.993610382080078
1745672139.4509208,0.012171272188425064,-0.0012950777309015393,-0.13652153313159943,0.4204403758049011,-0.4401708245277405,-9.154108047485352
1745672139.453947,0.0045623742043972015,-0.0022923587821424007,-0.13202057778835297,0.2889309525489807,-0.32242804765701294,-9.548137664794922
1745672139.4640906,0.01874057576060295,0.006682796869426966,-0.12411724030971527,0.37311482429504395,-0.41207370162010193,-10.271894454956055
1745672139.491301,0.01846897602081299,0.0009741124813444912,-0.12198535352945328,0.49341458082199097,-0.048595625907182693,-9.760990142822266
1745672139.494252,0.03541884198784828,-0.0027337358333170414,-0.12190070003271103,0.5314501523971558,0.12031128257513046,-9.335561752319336
1745672139.49533,0.039239924401044846,-0.0161641426384449,-0.12395606189966202,0.5127600431442261,-0.033682189881801605,-9.86768627166748
1745672139.4967933,0.05906751751899719,-0.009974399581551552,-0.1267903596162796,0.14250774681568146,-0.015644211322069168,-10.328756332397461
1745672139.5347362,0.05377185344696045,-0.012215254828333855,-0.12303642183542252,0.3449077904224396,-0.41916531324386597,-9.685449600219727
1745672139.5351834,0.0560360848903656,-0.013348477892577648,-0.12150808423757553,0.10638675838708878,-0.2790849208831787,-9.183158874511719
1745672139.5369544,0.03445218503475189,-0.023358043283224106,-0.11902599036693573,0.30382490158081055,-0.5750059485435486,-9.763689041137695
1745672139.5397682,0.028397750109434128,-0.021174360066652298,-0.11993515491485596,0.43045759201049805,-0.38131773471832275,-10.141583442687988
1745672139.5411313,0.02403491549193859,-0.011907806620001793,-0.12067568302154541,0.45381346344947815,-0.3851338028907776,-9.812232971191406
1745672139.5827835,0.007265754975378513,-0.032890189439058304,-0.11858262121677399,0.534225344657898,-0.6045505404472351,-9.57304573059082
1745672139.5916429,0.007862535305321217,-0.03328657150268555,-0.1161525622010231,0.3783062994480133,-0.30724960565567017,-9.831365585327148
1745672139.596821,-0.011212541721761227,-0.024475615471601486,-0.11333008110523224,0.332158625125885,-0.6996939778327942,-10.043375968933105
1745672139.5969133,0.001359662041068077,-0.01795966923236847,-0.15480263531208038,0.3559776544570923,-0.4212617874145508,-9.665617942810059
1745672139.6280968,0.0028591975569725037,-0.030090993270277977,-0.1528020054101944,0.8202794790267944,-0.8059930801391602,-9.506261825561523
1745672139.628342,-0.010953662917017937,-0.027775272727012634,-0.15383422374725342,0.5361260771751404,-0.17395994067192078,-10.095234870910645
1745672139.6284206,0.0010681120911613107,-0.01511892955750227,-0.15173986554145813,0.39542192220687866,-0.3465081453323364,-10.309890747070312
1745672139.6284606,0.014751968905329704,-0.01825498789548874,-0.15627968311309814,0.48492640256881714,0.15047867596149445,-9.315902709960938
1745672139.6635396,0.027645844966173172,-0.023339763283729553,-0.15992125868797302,0.38350969552993774,0.11771976947784424,-9.371743202209473
1745672139.6698608,0.048907265067100525,-0.02809436060488224,-0.1634296178817749,0.423491895198822,0.1354418694972992,-10.26192855834961
1745672139.6719012,0.06674406677484512,-0.006389340851455927,-0.17042164504528046,0.1876285821199417,0.2396286427974701,-10.283998489379883
1745672139.6756866,0.08533526957035065,-0.011617733165621758,-0.17134924232959747,0.47313833236694336,-0.32267311215400696,-9.375940322875977
1745672139.7086115,0.07566152513027191,-0.022240513935685158,-0.1741277575492859,0.5170743465423584,-0.1586073338985443,-9.275440216064453
1745672139.7129366,0.07878251373767853,-0.0213350560516119,-0.1725887954235077,0.613848865032196,-0.5490044951438904,-10.325264930725098
1745672139.7143977,0.06496178358793259,-0.010994873009622097,-0.1727236658334732,0.4530624449253082,-0.5826258063316345,-10.359313011169434
1745672139.7199721,0.06151726841926575,-0.003800194012001157,-0.1727173626422882,0.44896960258483887,-0.49408841133117676,-9.35798454284668
1745672139.7474508,0.03856819123029709,-0.023713817819952965,-0.17220929265022278,0.5633898377418518,-0.6662303805351257,-9.34393310546875
1745672139.7506545,0.03746144101023674,-0.016149204224348068,-0.1759209930896759,0.2647942900657654,-0.19841210544109344,-10.317720413208008
1745672139.7536888,0.02688232623040676,-0.007400886621326208,-0.1788829118013382,0.35010698437690735,-0.4980209469795227,-10.277841567993164
1745672139.7567813,0.07523782551288605,0.012188402935862541,-0.21337124705314636,0.40113702416419983,-0.3085940480232239,-9.370359420776367
1745672139.7912285,0.07380719482898712,-0.003185210283845663,-0.21696922183036804,0.5487947463989258,-0.4061823785305023,-9.39863395690918
1745672139.7943826,0.0689009353518486,0.006282140500843525,-0.22097590565681458,0.44688430428504944,-0.13008275628089905,-10.080201148986816
1745672139.7974033,0.07211318612098694,0.006757701747119427,-0.22657561302185059,0.513420820236206,-0.6442093849182129,-10.194581031799316
1745672139.8003366,0.07089227437973022,0.006689222063869238,-0.2279471904039383,0.48703843355178833,-0.3901781439781189,-9.451921463012695
1745672139.8026972,0.05160118266940117,0.004594377242028713,-0.228000670671463,0.7495037913322449,-0.8144767880439758,-9.463804244995117
1745672139.835931,0.047080833464860916,0.0004108690773136914,-0.22545495629310608,0.5679453611373901,-0.5582547187805176,-9.94910717010498
1745672139.8383071,0.04163524881005287,0.013146852143108845,-0.22577449679374695,0.5955289006233215,-0.5237530469894409,-10.001507759094238
1745672139.8412523,0.037737973034381866,0.005657949484884739,-0.22642989456653595,0.5095710158348083,-0.46764031052589417,-9.646020889282227
1745672139.842514,0.05746578052639961,0.004153663758188486,-0.22894588112831116,0.4422977864742279,-0.10452829301357269,-9.552172660827637
1745672139.8802795,0.051620833575725555,0.001094743376597762,-0.2321147918701172,0.5712568163871765,-0.18749848008155823,-9.91680908203125
1745672139.883162,0.07243002951145172,0.007390289567410946,-0.23747961223125458,0.3575621545314789,-0.13665692508220673,-9.992925643920898
1745672139.887968,0.07948801666498184,0.012563074938952923,-0.2391010820865631,0.5873721837997437,-0.2805418372154236,-9.386869430541992
1745672139.8913214,0.06149020045995712,0.0038135491777211428,-0.2373032569885254,0.48465052247047424,-0.5246083736419678,-9.567156791687012
1745672139.8975112,0.09617170691490173,0.00774396350607276,-0.238782599568367,0.5495805144309998,-0.4252825677394867,-10.000992774963379
1745672139.9223707,0.06995492428541183,0.006366295274347067,-0.23997943103313446,0.5989416241645813,-0.5122880935668945,-9.9207124710083
1745672139.9233184,0.08787649869918823,0.016046691685914993,-0.24072885513305664,0.5735539793968201,-0.4239652156829834,-9.589595794677734
1745672139.925332,0.06597062200307846,0.0008276969310827553,-0.24266035854816437,0.6854748129844666,-0.5356827974319458,-9.534431457519531
1745672139.928284,0.06706973910331726,0.00515299616381526,-0.24455174803733826,0.4271356463432312,-0.4126036763191223,-9.971711158752441
1745672139.9646668,0.06571215391159058,0.007046265061944723,-0.24630913138389587,0.5087213516235352,-0.672817051410675,-9.990958213806152
1745672139.966525,0.07318209111690521,-0.0063852877356112,-0.2578100860118866,0.6668962240219116,-0.7083288431167603,-9.887853622436523
1745672139.9676003,0.06644077599048615,0.0008322197245433927,-0.25880002975463867,0.4248642921447754,-0.36828145384788513,-9.578126907348633
1745672139.9692273,0.0708470419049263,-0.005053550936281681,-0.2567637264728546,0.6259675025939941,-0.8089085817337036,-9.57963752746582
1745672140.0086162,0.06666572391986847,-0.0014943648129701614,-0.2569883465766907,0.42414742708206177,-0.3221145272254944,-9.621077537536621
1745672140.0121439,0.055601537227630615,0.002073894254863262,-0.2584518492221832,0.5765310525894165,-0.6348896622657776,-9.83239459991455
1745672140.0148082,0.07789752632379532,-0.006505221128463745,-0.260530024766922,0.46248549222946167,-0.407728374004364,-9.827743530273438
1745672140.017077,0.0673394426703453,-0.0035911970771849155,-0.26368090510368347,0.4363594055175781,-0.342132031917572,-9.715764999389648
1745672140.0185308,0.06701628118753433,-0.005888208281248808,-0.263141930103302,0.6542667150497437,-0.7398545145988464,-9.692378044128418
1745672140.0518308,0.06539182364940643,-0.00493907555937767,-0.264611154794693,0.4780285954475403,-0.3954608142375946,-9.620210647583008
1745672140.0540738,0.0550132617354393,-0.005505870096385479,-0.26381874084472656,0.7302218675613403,-0.8218708038330078,-9.805689811706543
1745672140.0569894,0.05244431644678116,-0.009243525564670563,-0.26121824979782104,0.43618661165237427,-0.514421284198761,-9.90644359588623
1745672140.0606115,0.06372956931591034,-0.006091516464948654,-0.26230666041374207,0.5712518095970154,-0.5820603370666504,-9.745858192443848
1745672140.0946286,0.05035608261823654,-0.013212422840297222,-0.2634480595588684,0.5674165487289429,-0.35183754563331604,-9.586128234863281
1745672140.0984983,0.06402827799320221,-0.010640104301273823,-0.2669075131416321,0.43616753816604614,-0.4501804709434509,-9.820907592773438
1745672140.101259,0.07032184302806854,-0.010029023513197899,-0.2671586871147156,0.5498523712158203,-0.36296185851097107,-9.665359497070312
1745672140.1049857,0.04992656037211418,-0.0034451677929610014,-0.27062591910362244,0.38535839319229126,-0.5019663572311401,-9.702951431274414
1745672140.134749,0.05348009616136551,-0.02000376209616661,-0.28259071707725525,0.4062660336494446,-0.37732332944869995,-9.617536544799805
1745672140.1376762,0.035710737109184265,-0.023577388375997543,-0.2819899022579193,0.5979427695274353,-0.6896622180938721,-9.827190399169922
1745672140.1399117,0.04427483305335045,-0.020311934873461723,-0.2822452187538147,0.3895697593688965,-0.4582972526550293,-9.872822761535645
1745672140.1419213,0.045570362359285355,-0.02093127742409706,-0.2837275564670563,0.6246358156204224,-0.7692291736602783,-9.75733470916748
1745672140.143174,0.03748432546854019,-0.0252335574477911,-0.2838137447834015,0.4650734066963196,-0.4518307149410248,-9.739962577819824
1745672140.181519,0.04504077881574631,-0.02071705088019371,-0.28143593668937683,0.5141993761062622,-0.7862979173660278,-9.858495712280273
1745672140.1830359,0.047967322170734406,-0.025415416806936264,-0.28409722447395325,0.4936787188053131,-0.5351963043212891,-9.694299697875977
1745672140.1877813,0.03611601144075394,-0.014940681867301464,-0.28240951895713806,0.4698909819126129,-0.5654875636100769,-9.648943901062012
1745672140.1927416,0.05114190652966499,-0.025344088673591614,-0.28184300661087036,0.5038113594055176,-0.7181814908981323,-9.7985200881958
1745672140.2221642,0.047341469675302505,-0.019288210198283195,-0.2855609357357025,0.3373495936393738,-0.43608999252319336,-9.872238159179688
1745672140.223825,0.04819381609559059,-0.020366068929433823,-0.28499823808670044,0.5752246975898743,-0.7288810014724731,-9.828588485717773
1745672140.2268915,0.0432184599339962,-0.021302342414855957,-0.28522759675979614,0.3850158751010895,-0.5428183078765869,-9.643620491027832
1745672140.2284722,0.04629788547754288,-0.01793084107339382,-0.2861503064632416,0.6085889935493469,-0.7240537405014038,-9.63351058959961
1745672140.2649682,0.029675954952836037,-0.026167217642068863,-0.2849157750606537,0.5255336761474609,-0.7611218094825745,-9.893699645996094
1745672140.2674286,0.03828713670372963,-0.017575280740857124,-0.2826119661331177,0.42885589599609375,-0.693604588508606,-9.943711280822754
1745672140.270563,0.026943664997816086,-0.02297912910580635,-0.28426676988601685,0.5398229360580444,-0.5839964151382446,-9.665085792541504
1745672140.2764525,0.029931331053376198,-0.020903754979372025,-0.2840731739997864,0.3115120232105255,-0.5429977774620056,-9.706876754760742
1745672140.2765548,0.0504305474460125,-0.02323412336409092,-0.28596600890159607,0.6081807017326355,-0.5493977069854736,-9.685201644897461
1745672140.3096795,0.023741643875837326,-0.02196005918085575,-0.2867656350135803,0.4432853162288666,-0.5090530514717102,-9.907176971435547
1745672140.3100195,0.057070184499025345,-0.015500190667808056,-0.2874387800693512,0.45064228773117065,-0.6676231622695923,-9.845427513122559
1745672140.311713,0.044840969145298004,-0.01654200628399849,-0.28631454706192017,0.5649315118789673,-0.5941274762153625,-9.904982566833496
1745672140.3141353,0.037780147045850754,-0.016491102054715157,-0.287541002035141,0.3761014938354492,-0.5956727266311646,-9.798179626464844
1745672140.3519619,0.05547342449426651,-0.016732176765799522,-0.2849081754684448,0.510453999042511,-0.6622815132141113,-9.593439102172852
1745672140.3554263,0.03716408088803291,-0.024231065064668655,-0.2851603329181671,0.5220967531204224,-0.6998921632766724,-9.711006164550781
1745672140.3557236,0.044142283499240875,-0.01426076889038086,-0.28624993562698364,0.42135292291641235,-0.6349035501480103,-9.93008041381836
1745672140.3588262,0.03370300680398941,-0.016671190038323402,-0.28609129786491394,0.542203962802887,-0.853449821472168,-9.8500337600708
1745672140.3933337,0.04087454080581665,-0.015144902281463146,-0.2864018678665161,0.39002230763435364,-0.4738752245903015,-9.588619232177734
1745672140.3958619,0.023723430931568146,-0.02042636275291443,-0.2891313433647156,0.5404141545295715,-0.8756383061408997,-9.76081657409668
1745672140.3978064,0.038450147956609726,-0.0189116932451725,-0.28686946630477905,0.35220175981521606,-0.6379125714302063,-9.892295837402344
1745672140.399529,0.028207486495375633,-0.012393777258694172,-0.2882806658744812,0.5268000364303589,-0.6286339163780212,-9.716407775878906
1745672140.4031947,0.027614152058959007,-0.016989776864647865,-0.28442269563674927,0.45933812856674194,-0.7977573871612549,-9.687482833862305
1745672140.4393764,0.04326117783784866,-0.013833457604050636,-0.28567856550216675,0.4006955623626709,-0.4519014358520508,-9.712860107421875
1745672140.4435027,0.02298557013273239,-0.01965915597975254,-0.28615516424179077,0.5715107917785645,-0.8152210116386414,-9.915961265563965
1745672140.4467914,0.041223932057619095,-0.016746247187256813,-0.28610730171203613,0.3448289632797241,-0.5499892830848694,-9.911282539367676
1745672140.4496133,0.03505954146385193,-0.016321798786520958,-0.2844689190387726,0.5984981656074524,-0.7565743923187256,-9.615903854370117
1745672140.4892,0.025717604905366898,-0.02021205425262451,-0.2846304774284363,0.39887064695358276,-0.6217491030693054,-9.637842178344727
1745672140.4892569,-0.0007703698938712478,-0.020066455006599426,-0.28054746985435486,0.5049690008163452,-0.8239706754684448,-9.662796020507812
1745672140.4893036,0.02405145950615406,-0.01469452865421772,-0.28241419792175293,0.35567235946655273,-0.7351521849632263,-9.895064353942871
1745672140.490349,0.018402421846985817,-0.01663896068930626,-0.28075194358825684,0.5657992362976074,-0.6235746145248413,-9.733268737792969
1745672140.5243351,0.008310837671160698,-0.012839280068874359,-0.28194984793663025,0.3517162799835205,-0.694363534450531,-9.705419540405273
1745672140.5263472,0.03429678827524185,-0.009653444401919842,-0.2791871726512909,0.4805256724357605,-0.5478491187095642,-9.604143142700195
1745672140.529719,0.01078054029494524,-0.01948881335556507,-0.2829379737377167,0.4618750512599945,-0.6752530336380005,-9.824777603149414
1745672140.5322113,0.03001151606440544,-0.010003222152590752,-0.282420814037323,0.3927463889122009,-0.6681212186813354,-9.967795372009277
1745672140.535117,0.019620776176452637,-0.019026098772883415,-0.2814745306968689,0.5286005735397339,-0.7972227334976196,-9.725253105163574
1745672140.5669186,0.017838742583990097,-0.01404580008238554,-0.2807381749153137,0.3662145733833313,-0.653557300567627,-9.607656478881836
1745672140.5694618,0.008460749872028828,-0.01822974905371666,-0.28165146708488464,0.6261515021324158,-0.9077848196029663,-9.705907821655273
1745672140.570983,0.01614091359078884,-0.01525029819458723,-0.2779155373573303,0.37472063302993774,-0.6437761187553406,-9.802385330200195
1745672140.5736864,0.004981346428394318,-0.009717961773276329,-0.28034210205078125,0.5084698796272278,-0.6679032444953918,-9.807111740112305
1745672140.610756,0.008983555249869823,-0.01779612898826599,-0.2785983681678772,0.41379308700561523,-0.7950516939163208,-9.7755765914917
1745672140.6121867,0.026471013203263283,-0.01474781148135662,-0.2793958783149719,0.3616235852241516,-0.4422833323478699,-9.6189546585083
1745672140.6144748,0.008616062812507153,-0.016685206443071365,-0.27961647510528564,0.5011674165725708,-0.7679958343505859,-9.769065856933594
1745672140.616169,0.02882349118590355,-0.0082139503210783,-0.27960529923439026,0.2924969494342804,-0.46227797865867615,-9.762399673461914
1745672140.6183038,0.023318221792578697,-0.011604183353483677,-0.28039437532424927,0.6075339913368225,-0.7930991649627686,-9.649274826049805
1745672140.656801,0.019064757972955704,-0.01367672998458147,-0.279644250869751,0.40765541791915894,-0.7115498781204224,-9.769128799438477
1745672140.6592684,0.023904839530587196,-0.015822390094399452,-0.2788490355014801,0.5189880132675171,-0.838172435760498,-9.899402618408203
1745672140.661901,0.007258913014084101,-0.016166871413588524,-0.27717486023902893,0.39914196729660034,-0.791946530342102,-9.830830574035645
1745672140.6649601,-0.0005589166539721191,-0.014242561534047127,-0.27773886919021606,0.3351549506187439,-0.6215603947639465,-9.734625816345215
1745672140.696411,0.022469310089945793,-0.01255517266690731,-0.27722352743148804,0.5015357732772827,-0.7879635691642761,-9.529471397399902
1745672140.7003996,-0.0020765371154993773,-0.016981882974505424,-0.27954602241516113,0.4390754699707031,-0.5651277303695679,-9.626875877380371
1745672140.7046952,0.007176225073635578,-0.009350383654236794,-0.2785373330116272,0.4277464747428894,-0.7786138653755188,-10.006784439086914
1745672140.7058465,0.019802378490567207,-0.01665506511926651,-0.2799374461174011,0.4244779944419861,-0.6180861592292786,-9.879302024841309
1745672140.7471,0.010617988184094429,-0.011471440084278584,-0.27813059091567993,0.30331477522850037,-0.5470739603042603,-9.622782707214355
1745672140.7473161,0.024889083579182625,-0.014731235802173615,-0.2751139998435974,0.5597578883171082,-0.811667263507843,-9.565921783447266
1745672140.7473984,0.015446883626282215,-0.01799936592578888,-0.2764747738838196,0.3583167493343353,-0.5901605486869812,-9.75085163116455
1745672140.7499897,0.020075317472219467,-0.00744840782135725,-0.27619990706443787,0.5536494851112366,-0.7743412852287292,-9.867278099060059
1745672140.7533436,0.013591515831649303,-0.017943939194083214,-0.27913880348205566,0.3926328122615814,-0.6770836710929871,-9.785913467407227
1745672140.781788,0.02090201899409294,-0.012844545766711235,-0.2761472165584564,0.44620323181152344,-0.7402550578117371,-9.745458602905273
1745672140.7839646,-0.002387288026511669,-0.021645188331604004,-0.27853840589523315,0.5226941704750061,-0.74908047914505,-9.763069152832031
1745672140.78606,0.010497461073100567,-0.014846762642264366,-0.279308944940567,0.35822856426239014,-0.7786177396774292,-9.824283599853516
1745672140.7871127,0.0024792824406176805,-0.014302322641015053,-0.2764815092086792,0.5323354005813599,-0.6760432124137878,-9.548913955688477
1745672140.8265264,-0.010949550196528435,-0.01318264938890934,-0.277884304523468,0.3614971339702606,-0.709832489490509,-9.717508316040039
1745672140.828528,0.020991016179323196,-0.01628161035478115,-0.2760312259197235,0.4890556335449219,-0.6485905647277832,-9.833444595336914
1745672140.8315778,0.002995563903823495,-0.02071145363152027,-0.2790899872779846,0.4446154236793518,-0.7343591451644897,-9.686134338378906
1745672140.8323667,0.020000625401735306,-0.0167249646037817,-0.27943500876426697,0.34479743242263794,-0.547826886177063,-9.805621147155762
1745672140.8706152,0.006839492358267307,-0.01630796119570732,-0.27944645285606384,0.585548996925354,-0.778292179107666,-9.782005310058594
1745672140.8730633,0.010755213908851147,-0.01727108098566532,-0.2777940630912781,0.3609277606010437,-0.6534115672111511,-9.731189727783203
1745672140.8800457,0.012108736671507359,-0.01640339568257332,-0.27738842368125916,0.559351921081543,-0.8858415484428406,-9.699061393737793
1745672140.8802085,-0.003860009368509054,-0.01800926774740219,-0.2782934606075287,0.3982509970664978,-0.6058748960494995,-9.772171020507812
1745672140.881115,0.0007660973933525383,-0.013168171048164368,-0.27759426832199097,0.4315524101257324,-0.8275030851364136,-9.881368637084961
1745672140.9126403,0.005070491228252649,-0.01983795128762722,-0.2788877487182617,0.4453260898590088,-0.5818599462509155,-9.616159439086914
1745672140.9156566,-0.006100366823375225,-0.011130047962069511,-0.2791140675544739,0.4481172561645508,-0.5426557064056396,-9.680922508239746
1745672140.9175577,0.008209498599171638,-0.016126247122883797,-0.27915626764297485,0.49000468850135803,-0.7644205093383789,-9.838462829589844
1745672140.9193368,0.0067777507938444614,-0.012705703265964985,-0.28244805335998535,0.2796443700790405,-0.4496535658836365,-9.821847915649414
1745672140.9546719,0.010022865608334541,-0.015257634222507477,-0.2803683280944824,0.5027503967285156,-0.8448734283447266,-9.739286422729492
1745672140.958847,0.007638256996870041,-0.018702145665884018,-0.27940279245376587,0.3318409025669098,-0.60543292760849,-9.706724166870117
1745672140.9628518,0.00962162297219038,-0.014962288551032543,-0.28013044595718384,0.5188040733337402,-0.7393798828125,-9.74912166595459
1745672140.9663007,7.127800199668854e-05,-0.01844951882958412,-0.27783432602882385,0.4836721420288086,-0.7138081192970276,-9.81692886352539
1745672140.96788,0.009282233193516731,-0.01207947451621294,-0.2777312099933624,0.4055505692958832,-0.6921465396881104,-9.785557746887207
1745672140.99949,0.0014363806694746017,-0.018953364342451096,-0.27783477306365967,0.5280622839927673,-0.6627053022384644,-9.676103591918945
1745672141.0015013,-0.006788262166082859,-0.017120644450187683,-0.27918872237205505,0.26882854104042053,-0.6852851510047913,-9.814537048339844
1745672141.003122,0.01237667165696621,-0.016944222152233124,-0.28028929233551025,0.47967463731765747,-0.7513051629066467,-9.735013008117676
1745672141.0073013,-0.009436303749680519,-0.016658546403050423,-0.27865737676620483,0.3241967558860779,-0.47858285903930664,-9.662721633911133
1745672141.0410507,0.010725860483944416,-0.012873033061623573,-0.2783220410346985,0.5154131650924683,-0.7015103101730347,-9.799798965454102
1745672141.0435822,-0.003036659210920334,-0.014848467893898487,-0.2776861786842346,0.3096175193786621,-0.6289225816726685,-9.755073547363281
1745672141.0455265,0.010575130581855774,-0.01397894136607647,-0.2751292884349823,0.47819942235946655,-0.7195825576782227,-9.73186206817627
1745672141.0478985,0.00351546099409461,-0.02033393085002899,-0.27812233567237854,0.3802160918712616,-0.5428988337516785,-9.790609359741211
1745672141.0868099,0.00999506190419197,-0.010669397190213203,-0.27828454971313477,0.43544116616249084,-0.5905941128730774,-9.811697006225586
1745672141.0931726,-0.00263052131049335,-0.01548466645181179,-0.2800524830818176,0.4597891867160797,-0.7928134799003601,-9.713353157043457
1745672141.099123,0.016148462891578674,-0.014832189306616783,-0.27933943271636963,0.35095542669296265,-0.5368250608444214,-9.572026252746582
1745672141.103412,-0.007902070879936218,-0.01415029913187027,-0.27671727538108826,0.48194026947021484,-0.8153039813041687,-9.815711975097656
1745672141.107153,0.005797748453915119,-0.013754406943917274,-0.27899616956710815,0.325533002614975,-0.7182935476303101,-10.005823135375977
1745672141.1276743,0.01090123038738966,-0.014216592535376549,-0.27602216601371765,0.49642258882522583,-0.5065926909446716,-9.626680374145508
1745672141.1321712,-0.003959419671446085,-0.015203339979052544,-0.27823513746261597,0.3846123516559601,-0.6671057343482971,-9.631579399108887
1745672141.1348948,0.028093282133340836,-0.011241848580539227,-0.27729642391204834,0.4240509569644928,-0.4640125334262848,-9.736543655395508
1745672141.1386886,0.002859054831787944,-0.017330218106508255,-0.2770882546901703,0.48347872495651245,-0.6811850070953369,-9.947519302368164
1745672141.171836,0.021527962759137154,-0.009467794559895992,-0.276588499546051,0.2864331305027008,-0.6237704753875732,-9.895662307739258
1745672141.173575,0.018461093306541443,-0.015366556122899055,-0.27690526843070984,0.4946764409542084,-0.7251248359680176,-9.607942581176758
1745672141.177049,0.013916942290961742,-0.01843508705496788,-0.27512332797050476,0.3402654528617859,-0.6149187684059143,-9.65435791015625
1745672141.1795008,0.01843700371682644,-0.016439180821180344,-0.2769961357116699,0.47789573669433594,-0.7501149773597717,-9.51757526397705
1745672141.2121434,0.00041157827945426106,-0.020118217915296555,-0.2735016345977783,0.41731008887290955,-0.5289722084999084,-9.635955810546875
1745672141.2133815,0.0029287838842719793,-0.011508557014167309,-0.2763548493385315,0.37694448232650757,-0.68980473279953,-9.968940734863281
1745672141.2161098,0.020433567464351654,-0.018231209367513657,-0.27740269899368286,0.45478758215904236,-0.6281365156173706,-9.842245101928711
1745672141.2176979,0.008225815370678902,-0.016134759411215782,-0.27664732933044434,0.3012208342552185,-0.5161685347557068,-9.637377738952637
1745672141.2219672,0.021987250074744225,-0.017654214054346085,-0.2723843455314636,0.5605779886245728,-0.7515133619308472,-9.714089393615723
1745672141.2567751,0.016126614063978195,-0.019408563151955605,-0.27597755193710327,0.3367822766304016,-0.547144889831543,-9.812868118286133
1745672141.2590294,0.021432898938655853,-0.011783352121710777,-0.2734617590904236,0.4957796037197113,-0.7025190591812134,-9.767026901245117
1745672141.2619886,0.008470071479678154,-0.019051015377044678,-0.2722499966621399,0.3747517168521881,-0.6791910529136658,-9.686700820922852
1745672141.2655778,0.02754608727991581,-0.016385238617658615,-0.27484315633773804,0.3562725782394409,-0.5967268347740173,-9.748600959777832
