timestamp,angular_vel_x,angular_vel_y,angular_vel_z,linear_acc_x,linear_acc_y,linear_acc_z
1745733118.3512456,0.12474358081817627,-0.029535368084907532,0.010866180062294006,0.1857786476612091,-0.3721645772457123,-9.797246932983398
1745733118.3512828,0.10288922488689423,-0.030212244018912315,0.013182766735553741,0.32540351152420044,-0.3904809355735779,-9.821616172790527
1745733118.3513205,0.11896425485610962,-0.029210513457655907,0.012252331711351871,0.12769632041454315,-0.22832997143268585,-9.770238876342773
1745733118.3513992,0.10068893432617188,-0.02394520863890648,0.011231849901378155,0.2622218728065491,-0.5341747999191284,-9.725723266601562
1745733118.3514373,0.10899384319782257,-0.02679550275206566,0.0144460778683424,0.1278655230998993,-0.18120065331459045,-9.667257308959961
1745733118.3514745,0.10477054119110107,-0.02034533955156803,0.015035854652523994,0.2190898209810257,-0.5352705121040344,-9.785242080688477
1745733118.3515,0.10098598897457123,-0.021237457171082497,0.013879047706723213,0.21768423914909363,-0.18482913076877594,-9.72335147857666
1745733118.3547468,0.08122280985116959,0.0006087460787966847,0.0129391523078084,0.14869216084480286,-0.3109027147293091,-9.744877815246582
1745733118.3580132,0.0651952475309372,0.002283207606524229,0.015783604234457016,0.3082795739173889,-0.6326058506965637,-9.78862476348877
1745733118.3913152,0.0664450004696846,0.002540210960432887,0.01465609110891819,0.17714807391166687,-0.2600044310092926,-9.667229652404785
1745733118.4030232,0.05808689445257187,0.006267924793064594,0.0112576549872756,0.27168771624565125,-0.6375624537467957,-9.736837387084961
1745733118.4031057,0.04646195471286774,0.0020318450406193733,0.012782631441950798,0.27445003390312195,-0.31413108110427856,-9.727206230163574
1745733118.403171,0.054946206510066986,0.008991849608719349,0.012187146581709385,0.18624791502952576,-0.5178126096725464,-9.794807434082031
1745733118.4344738,0.035059504210948944,0.009177369065582752,0.013484163209795952,0.2914537489414215,-0.4361819326877594,-9.6332426071167
1745733118.436021,0.05112094804644585,0.010880573652684689,0.013597953133285046,0.12228560447692871,-0.3639222979545593,-9.641446113586426
1745733118.436063,0.03382010757923126,0.011531083844602108,0.015310402028262615,0.2871410846710205,-0.5077470541000366,-9.731422424316406
1745733118.4394891,0.04575049504637718,0.012095545418560505,0.01401888020336628,0.1374535858631134,-0.20292973518371582,-9.728127479553223
1745733118.440767,0.041663192212581635,0.020157236605882645,0.012996286153793335,0.25713902711868286,-0.5472875237464905,-9.708930015563965
1745733118.4776063,0.03946639597415924,0.015546372160315514,0.014380499720573425,0.19499817490577698,-0.2524991035461426,-9.612201690673828
1745733118.4798465,0.043470531702041626,0.0227227620780468,0.014375817961990833,0.21604177355766296,-0.5919718742370605,-9.761848449707031
1745733118.482976,0.025998849421739578,0.020463749766349792,0.014154842123389244,0.2863934636116028,-0.42864006757736206,-9.705300331115723
1745733118.4857411,0.036450617015361786,0.022024119272828102,0.014061803929507732,0.16789814829826355,-0.4858969748020172,-9.700494766235352
1745733118.5192356,0.012544488534331322,0.024004783481359482,0.013715317472815514,0.34383073449134827,-0.5537400841712952,-9.682381629943848
1745733118.520501,-0.042213112115859985,0.0348164439201355,0.01853209361433983,0.21077533066272736,-0.34646835923194885,-9.757349967956543
1745733118.52445,-0.05882267281413078,0.03797588497400284,0.018137352541089058,0.3797202706336975,-0.5797618627548218,-9.76331901550293
1745733118.526296,-0.052501410245895386,0.03297554701566696,0.017297904938459396,0.255241334438324,-0.24349641799926758,-9.728336334228516
1745733118.5288072,-0.05753473564982414,0.0374162383377552,0.017466312274336815,0.3145650327205658,-0.5589949488639832,-9.791324615478516
1745733118.5624566,-0.06262083351612091,0.03362945839762688,0.019701309502124786,0.30505117774009705,-0.24093738198280334,-9.727859497070312
1745733118.565308,-0.052040159702301025,0.03861105442047119,0.019220594316720963,0.2546798586845398,-0.4593663215637207,-9.787412643432617
1745733118.5669816,-0.06802532821893692,0.0355084165930748,0.017422880977392197,0.3694151043891907,-0.3735061585903168,-9.74068832397461
1745733118.56806,-0.05274736136198044,0.0356140099465847,0.019887244328856468,0.22620825469493866,-0.3371121287345886,-9.775436401367188
1745733118.6105433,-0.07155884057283401,0.03637547418475151,0.02090858295559883,0.3920423686504364,-0.522770345211029,-9.760574340820312
1745733118.6121705,-0.06305717676877975,0.03507816791534424,0.01942390576004982,0.24738068878650665,-0.26327431201934814,-9.730247497558594
1745733118.6145387,-0.07233376801013947,0.03894603252410889,0.019244737923145294,0.3707239031791687,-0.6038018465042114,-9.784246444702148
1745733118.6274037,-0.07774785906076431,0.032454803586006165,0.020087670534849167,0.3285454213619232,-0.22827403247356415,-9.729188919067383
1745733118.6527975,-0.07280233502388,0.039632488042116165,0.019656952470541,0.3119892179965973,-0.4924958646297455,-9.8358154296875
1745733118.6529005,-0.08815345913171768,0.033230192959308624,0.02098638378083706,0.3822759687900543,-0.33113694190979004,-9.765267372131348
1745733118.652974,-0.07284104824066162,0.03500841557979584,0.020774846896529198,0.26208826899528503,-0.3506876826286316,-9.796232223510742
1745733118.6544926,-0.0931110605597496,0.03443785756826401,0.019534312188625336,0.41490697860717773,-0.41042137145996094,-9.777669906616211
1745733118.6599476,-0.07554695755243301,0.03250054642558098,0.021266914904117584,0.25283083319664,-0.20579032599925995,-9.790632247924805
1745733118.6975007,-0.08708545565605164,0.031843312084674835,0.022713426500558853,0.40527957677841187,-0.47623127698898315,-9.831151962280273
1745733118.6994429,-0.0798548012971878,0.030562156811356544,0.021737515926361084,0.30049264430999756,-0.17517945170402527,-9.752975463867188
1745733118.7049484,-0.08300545066595078,0.031300030648708344,0.022735770791769028,0.3680337369441986,-0.5020524859428406,-9.84550952911377
1745733118.7157016,-0.09072282165288925,0.019923582673072815,0.024520812556147575,0.30665236711502075,-0.13144734501838684,-9.808880805969238
1745733118.7356722,-0.10642023384571075,0.019778938964009285,0.025564786046743393,0.43825823068618774,-0.4389677047729492,-9.857281684875488
1745733118.7362416,-0.10445038229227066,0.01384552102535963,0.02426331490278244,0.3603682219982147,-0.08588705956935883,-9.76466178894043
1745733118.7472382,-0.1019795760512352,0.017556188628077507,0.024508440867066383,0.37895527482032776,-0.4090014398097992,-9.86777114868164
1745733118.7476823,-0.1132030040025711,0.012828268110752106,0.022103549912571907,0.41477519273757935,-0.15184375643730164,-9.827298164367676
1745733118.7768836,-0.09918157011270523,0.013343201950192451,0.025757256895303726,0.3180256485939026,-0.25648608803749084,-9.86631965637207
1745733118.780666,-0.1168229952454567,0.01019656378775835,0.024019867181777954,0.45919299125671387,-0.2608115077018738,-9.787884712219238
1745733118.7885387,-0.09946165233850479,0.009574506431818008,0.024690285325050354,0.26887744665145874,-0.08830614387989044,-9.787681579589844
1745733118.7885947,-0.11320469528436661,0.00969589315354824,0.02451391890645027,0.4492534101009369,-0.3715081810951233,-9.843477249145508
1745733118.788626,-0.10037088394165039,0.006198253482580185,0.025523856282234192,0.3015192449092865,-0.030115777626633644,-9.789384841918945
1745733118.8495226,-0.10526841878890991,0.009128350764513016,0.025775060057640076,0.3864733576774597,-0.360098659992218,-9.825403213500977
1745733118.8496299,-0.1100684180855751,0.00371232139877975,0.026179146021604538,0.3816066384315491,-0.07701591402292252,-9.769405364990234
1745733118.8596764,-0.10058671236038208,0.007789726369082928,0.026355654001235962,0.3407314121723175,-0.27028512954711914,-9.853057861328125
1745733118.859718,-0.11489927768707275,0.005232893396168947,0.025820588693022728,0.4454732835292816,-0.1877940595149994,-9.799909591674805
1745733118.8678071,-0.10089647769927979,0.0012440957361832261,0.02474280074238777,0.3017590343952179,-0.13046953082084656,-9.791418075561523
1745733118.8986738,-0.11862790584564209,0.0034557904582470655,0.025443067774176598,0.45574674010276794,-0.2713985741138458,-9.79309368133545
1745733118.9113815,-0.07997085154056549,-0.022558163851499557,0.023920243605971336,0.2817531228065491,0.13252262771129608,-9.798643112182617
1745733118.9255736,-0.0881941169500351,-0.021298229694366455,0.024322031065821648,0.4073118269443512,-0.1465960294008255,-9.843877792358398
1745733118.9256167,-0.08101896196603775,-0.026776736602187157,0.024142084643244743,0.3294064402580261,0.16555318236351013,-9.761848449707031
1745733118.9276187,-0.0779164507985115,-0.022534813731908798,0.02409093827009201,0.32558757066726685,-0.110845647752285,-9.827176094055176
1745733118.9294634,-0.08243094384670258,-0.028764884918928146,0.024702709168195724,0.38995876908302307,0.11978308856487274,-9.761223793029785
1745733118.9813545,-0.06835170090198517,-0.023905044421553612,0.024662593379616737,0.2877851724624634,-0.0355960987508297,-9.820337295532227
1745733118.982601,-0.08086782693862915,-0.026556234806776047,0.02347184345126152,0.4187130928039551,0.00019837617583107203,-9.773628234863281
1745733118.9852607,-0.06446578353643417,-0.029885347932577133,0.022785577923059464,0.2588021755218506,0.1238211989402771,-9.793146133422852
1745733118.9893436,-0.07768385112285614,-0.02531224489212036,0.02557450532913208,0.4242177903652191,-0.1406642496585846,-9.823620796203613
1745733119.0241036,-0.06664136797189713,-0.03017662838101387,0.022855142131447792,0.27969759702682495,0.21197757124900818,-9.753125190734863
1745733119.0305803,-0.06980951875448227,-0.026449959725141525,0.022553015500307083,0.3524840474128723,-0.14809124171733856,-9.815125465393066
1745733119.0353038,-0.07260879874229431,-0.030896788462996483,0.024829287081956863,0.3276960253715515,0.17122988402843475,-9.744096755981445
1745733119.0607653,-0.05863932892680168,-0.024739760905504227,0.022438403218984604,0.2648494839668274,-0.012870150618255138,-9.822125434875488
1745733119.0621548,-0.07006342709064484,-0.03166886419057846,0.02286991849541664,0.38842064142227173,0.0635184496641159,-9.75323486328125
1745733119.063521,-0.05385662987828255,-0.028547052294015884,0.02296294830739498,0.2208331823348999,0.13082224130630493,-9.77826976776123
1745733119.0779178,-0.06428484618663788,-0.029082482680678368,0.02246972918510437,0.40326038002967834,-0.04022075608372688,-9.800912857055664
1745733119.080537,-0.04840198531746864,-0.031224261969327927,0.021546557545661926,0.2550918459892273,0.214366152882576,-9.758498191833496
1745733119.0971415,-0.05492529273033142,-0.02838645875453949,0.021344605833292007,0.3723207116127014,-0.07783963531255722,-9.809407234191895
1745733119.1042643,-0.051710329949855804,-0.031233280897140503,0.0232098288834095,0.29786068201065063,0.2277769148349762,-9.759048461914062
1745733119.1048338,-0.04547858238220215,-0.025412648916244507,0.02236778847873211,0.32022398710250854,-0.0819733738899231,-9.844825744628906
1745733119.133151,-0.028868887573480606,-0.026818711310625076,0.01924556866288185,0.36651667952537537,-0.052868448197841644,-9.779398918151855
1745733119.133525,-0.016832035034894943,-0.028046155348420143,0.020339135080575943,0.2413114756345749,0.23807914555072784,-9.729406356811523
1745733119.146085,-0.019884109497070312,-0.025818485766649246,0.01851876638829708,0.3258160948753357,-0.06408442556858063,-9.791653633117676
1745733119.1465058,-0.01958261989057064,-0.028181876987218857,0.01925681158900261,0.2724093496799469,0.2552207112312317,-9.74876594543457
1745733119.1661856,-0.009363247081637383,-0.023653004318475723,0.01756223663687706,0.23871147632598877,-0.0021352767944335938,-9.811439514160156
1745733119.1692064,-0.01991569623351097,-0.026512200012803078,0.017901958897709846,0.3500165343284607,0.15735460817813873,-9.745718002319336
1745733119.173907,0.0012296937638893723,-0.02512533590197563,0.018924560397863388,0.20647001266479492,0.1342482566833496,-9.77234172821045
1745733119.1794302,-0.015455382876098156,-0.02681758999824524,0.018973058089613914,0.3768005669116974,0.015658363699913025,-9.766807556152344
1745733119.1924229,0.005058273673057556,-0.025448676198720932,0.016441522166132927,0.18825237452983856,0.2793358862400055,-9.766400337219238
1745733119.210589,-0.0033059525303542614,-0.021527789533138275,0.018267814069986343,0.3373194634914398,-0.0722903162240982,-9.800962448120117
1745733119.210679,0.00251280190423131,-0.026227736845612526,0.018336700275540352,0.24237175285816193,0.25975170731544495,-9.716333389282227
1745733119.210828,0.007983198389410973,-0.023069387301802635,0.017761269584298134,0.2652154862880707,-0.0302659273147583,-9.826533317565918
1745733119.2132852,-1.6436353689641692e-05,-0.024362556636333466,0.015373642556369305,0.30914974212646484,0.16836777329444885,-9.744053840637207
1745733119.2133393,0.014314551837742329,-0.020823359489440918,0.017234336584806442,0.2140391767024994,0.07950960099697113,-9.781208038330078
1745733119.2320967,0.002984426449984312,-0.02206011302769184,0.016352053731679916,0.3687700629234314,0.04780874401330948,-9.737197875976562
1745733119.2355788,0.018779849633574486,-0.02079901471734047,0.016818583011627197,0.16753074526786804,0.19729797542095184,-9.776097297668457
1745733119.242591,0.090130515396595,0.006665065884590149,0.012216354720294476,0.3731667101383209,0.2254750281572342,-9.711618423461914
1745733119.2503486,0.11391855776309967,0.010020257905125618,0.014223809354007244,0.009630922228097916,0.23659007251262665,-9.821786880493164
1745733119.2528777,0.09522680193185806,0.011421618051826954,0.016492176800966263,0.2336772382259369,-0.20378661155700684,-9.72281551361084
1745733119.256611,0.09014187753200531,0.0006105924258008599,0.014193572103977203,-0.2788214683532715,-0.11728757619857788,-9.826408386230469
1745733119.2587664,0.062161676585674286,0.01545590441673994,0.011719251051545143,-0.197378471493721,-0.4190935492515564,-9.725815773010254
1745733119.2608523,0.04624510556459427,0.02050461620092392,0.01227874867618084,-0.015186840668320656,-0.1293736696243286,-9.371321678161621
1745733119.2964232,0.01122605986893177,-0.001823103055357933,0.014044022187590599,0.43614134192466736,-0.5630719661712646,-9.852269172668457
1745733119.2965326,0.013124783523380756,-0.004747019149363041,0.022778905928134918,0.4858548045158386,-0.17304906249046326,-10.32679557800293
1745733119.2986617,0.004722594283521175,0.014474602416157722,0.027681957930326462,0.06643112003803253,-0.3030698001384735,-10.22492504119873
1745733119.3001683,0.013731864280998707,0.0026525002904236317,0.03583160415291786,0.11545046418905258,-0.08492973446846008,-9.166165351867676
1745733119.3386564,0.023354457691311836,-0.0022398640867322683,0.04584706574678421,0.18751473724842072,0.27258533239364624,-9.2720308303833
1745733119.3400834,0.04487057775259018,-0.00401640310883522,0.0426412895321846,0.24625129997730255,0.5165892839431763,-10.450743675231934
1745733119.3425477,0.08502437174320221,0.003877258626744151,0.04203782230615616,-0.3225216269493103,0.933355987071991,-10.244372367858887
1745733119.3440063,0.09831205010414124,0.006966883782297373,0.03781866654753685,0.039697833359241486,0.14645476639270782,-9.128008842468262
1745733119.3794103,0.10464052110910416,-0.007333195768296719,0.034024231135845184,0.13143345713615417,0.37987375259399414,-9.09964370727539
1745733119.3834293,0.08837942779064178,-0.006065092980861664,0.03515881299972534,0.2641316056251526,-0.3374374508857727,-10.490370750427246
1745733119.3864648,0.09423508495092392,0.010384896770119667,0.039780743420124054,0.4168732762336731,-0.2823314368724823,-10.214065551757812
1745733119.390834,0.07854560762643814,0.015037283301353455,0.04454364255070686,0.30903348326683044,-0.5103846788406372,-9.117298126220703
1745733119.3943465,0.04017726331949234,-0.00825255922973156,0.05248142033815384,0.48581331968307495,-0.6747094392776489,-9.240754127502441
1745733119.4257004,0.04530341178178787,0.0032229754142463207,0.05511099100112915,0.08386470377445221,-0.2540404796600342,-10.420636177062988
1745733119.4285653,0.026211295276880264,0.019397828727960587,0.05682740733027458,-0.007218507584184408,-0.25095134973526,-10.324690818786621
1745733119.4326978,0.0037049218080937862,-0.02352084591984749,0.09852395951747894,-0.20258347690105438,0.5950219035148621,-9.19239330291748
1745733119.4367824,0.005671224091202021,-0.017383305355906487,0.08998182415962219,-0.07112245261669159,0.1405790150165558,-10.725347518920898
1745733119.4668977,0.027134355157613754,-0.00714324414730072,0.08610620349645615,-0.004603114444762468,0.4986461102962494,-10.331930160522461
1745733119.470659,0.019576283171772957,-0.013756838627159595,0.09334428608417511,-0.07003374397754669,-0.5161071419715881,-9.159269332885742
1745733119.477194,0.020766090601682663,-0.02693694271147251,0.11034607887268066,0.13151796162128448,-0.5101134181022644,-9.154549598693848
1745733119.4807875,0.0033122922759503126,-0.01471035648137331,0.12427610158920288,-0.16290584206581116,-0.2711789608001709,-10.490880966186523
1745733119.4824967,0.04460170492529869,-0.0035101778339594603,0.13177990913391113,-0.034325677901506424,-0.17876701056957245,-10.140380859375
1745733119.508298,0.026743566617369652,-0.011212351731956005,0.1353265792131424,0.00353441690094769,0.4480944573879242,-9.038801193237305
1745733119.5107505,0.059002481400966644,-0.027344319969415665,0.13226091861724854,-0.10079474747180939,0.07604801654815674,-9.674490928649902
1745733119.5128608,0.03632044047117233,-0.025826577097177505,0.1272110641002655,-0.27858537435531616,0.10015203803777695,-10.3211088180542
1745733119.5137553,0.02469290792942047,0.007802634034305811,0.11910279840230942,-0.01894986629486084,0.08828668296337128,-9.83586311340332
1745733119.553451,-0.03778820484876633,-0.019732680171728134,0.11597760766744614,0.7341910600662231,-0.8049694299697876,-9.273614883422852
1745733119.5553498,0.04725415259599686,-0.012708840891718864,0.11417540162801743,-0.5253074765205383,0.7619021534919739,-9.747519493103027
1745733119.558264,-0.029530715197324753,0.0003659605863504112,0.0989394411444664,2.1839537620544434,-0.28780990839004517,-9.271361351013184
1745733119.5595865,0.10980947315692902,0.0179336778819561,0.11133372783660889,0.8933231234550476,0.17018365859985352,-10.386147499084473
1745733119.6027098,0.27456825971603394,0.07608737796545029,-0.08309659361839294,0.7561750411987305,-0.033087633550167084,-6.880887031555176
1745733119.6052382,0.10075539350509644,0.07309068739414215,-0.07111343741416931,0.47953882813453674,-1.3067362308502197,-8.59628677368164
1745733119.6053202,0.20027291774749756,0.09174393117427826,-0.05930309742689133,0.9437791109085083,-1.4392255544662476,-12.043585777282715
1745733119.608284,0.11629526317119598,0.158100426197052,-0.06336382031440735,1.0416224002838135,0.47211337089538574,-9.81250286102295
1745733119.6372344,0.13600760698318481,0.1024463027715683,-0.08334960043430328,1.9217182397842407,-0.5353620648384094,-7.733099460601807
1745733119.6404889,0.12705691158771515,0.0581643208861351,-0.09686999022960663,1.5344247817993164,0.6044633388519287,-9.765278816223145
1745733119.6442063,0.1260313093662262,0.10140082985162735,-0.11164935678243637,0.5329958200454712,-0.4699680805206299,-12.694520950317383
1745733119.6471758,0.15071749687194824,0.13327470421791077,-0.11609139293432236,0.44512397050857544,-0.6041251420974731,-9.547100067138672
1745733119.648794,0.09636899083852768,0.1187932938337326,-0.11075614392757416,0.053111184388399124,-0.5896694660186768,-6.7195539474487305
1745733119.6837523,0.13714705407619476,0.10178248584270477,-0.10908752679824829,0.8867008090019226,0.06053249165415764,-8.752954483032227
1745733119.68616,0.14316368103027344,0.13168878853321075,-0.11746799945831299,0.7754205465316772,0.6564685702323914,-12.000188827514648
1745733119.6882524,0.2218647003173828,0.14230939745903015,-0.13348868489265442,1.3421474695205688,-0.2467532604932785,-10.571992874145508
1745733119.6976316,0.1942301243543625,0.11641722917556763,-0.14091813564300537,1.2862873077392578,0.1706477254629135,-7.837181091308594
1745733119.7245574,0.17617323994636536,0.09700373560190201,-0.14267244935035706,0.7648061513900757,-1.0774126052856445,-9.760072708129883
1745733119.7275848,0.16791588068008423,0.12138159573078156,-0.1434619426727295,1.085047960281372,-0.579210638999939,-11.176773071289062
1745733119.7298188,0.15959930419921875,0.14856889843940735,-0.14265529811382294,0.9919880628585815,-0.43989062309265137,-9.719606399536133
1745733119.739862,0.14178240299224854,0.11383626610040665,-0.14963674545288086,1.1304683685302734,-0.3656575679779053,-8.063898086547852
1745733119.7400153,0.13017010688781738,0.08883564919233322,-0.16469508409500122,0.9342750310897827,0.3666485846042633,-9.547802925109863
1745733119.7690992,0.16993394494056702,0.11846272647380829,-0.17840903997421265,1.1234960556030273,-0.16455614566802979,-11.381587028503418
1745733119.7717571,0.16240006685256958,0.1185857504606247,-0.1856079399585724,0.831028163433075,0.0029877484776079655,-10.138744354248047
1745733119.7750645,0.038489796221256256,0.08825378865003586,-0.10807683318853378,0.6939897537231445,-1.1709405183792114,-7.151281833648682
1745733119.7765555,0.1308387964963913,0.014175720512866974,-0.102290078997612,1.2383750677108765,1.3409273624420166,-7.924045562744141
1745733119.8115547,0.09530942142009735,0.016594359651207924,-0.1160820946097374,0.981277585029602,0.21493761241436005,-13.42402458190918
1745733119.8148222,0.2637850344181061,0.04998061805963516,-0.11627618968486786,0.20625348389148712,0.8114347457885742,-11.855690002441406
1745733119.8186786,0.18150582909584045,0.049305085092782974,-0.11822410672903061,-0.14614516496658325,-0.5122461915016174,-6.457131862640381
1745733119.8248322,0.1780708283185959,-0.0011583046289160848,-0.10693228244781494,0.45543962717056274,-1.648698091506958,-6.8965044021606445
1745733119.853377,0.10333657264709473,-0.010036418214440346,-0.0981985554099083,1.0208704471588135,-0.9673708081245422,-12.325654029846191
1745733119.8650708,0.048423729836940765,0.0552324578166008,-0.09959293901920319,1.1410094499588013,-1.7997894287109375,-12.725187301635742
1745733119.8651898,0.0703471377491951,0.026211222633719444,-0.09306488931179047,1.0196418762207031,-0.5911824703216553,-7.032404899597168
1745733119.8652964,-0.06212366372346878,-0.0340154655277729,-0.08087507635354996,1.5244048833847046,-1.5496737957000732,-7.660029411315918
1745733119.905348,-0.012000137940049171,-0.025938216596841812,-0.06177937984466553,1.3574751615524292,-0.9014942049980164,-12.583192825317383
1745733119.905439,-0.05267447978258133,0.039630740880966187,-0.047797732055187225,0.9300476908683777,-1.1640758514404297,-11.938741683959961
1745733119.9059036,-0.007421569433063269,0.008347216993570328,-0.025922726839780807,0.7463681101799011,-0.1518305093050003,-6.627036094665527
1745733119.9059644,-0.04226253181695938,-0.03780645132064819,-0.01074410229921341,1.0231363773345947,0.04522254317998886,-7.2084479331970215
1745733119.9084969,0.013996785506606102,-0.025281772017478943,-0.012312185950577259,1.1374495029449463,0.4466590881347656,-12.67299747467041
1745733119.9408584,0.06511928141117096,0.011496404185891151,-0.02254846878349781,0.8341425061225891,0.7960079908370972,-12.048843383789062
1745733119.9438882,-0.08941987156867981,-0.05297278240323067,0.15411269664764404,0.9526792764663696,-0.7199292182922363,-9.768450736999512
1745733119.9449604,-0.11687998473644257,-0.04568595811724663,0.15801826119422913,0.7179116010665894,-0.9078863859176636,-10.134805679321289
1745733119.9479268,-0.13538330793380737,-0.046457450836896896,0.15854904055595398,0.6552976369857788,-0.4550755023956299,-9.587536811828613
1745733119.9833317,-0.14310304820537567,-0.04650387912988663,0.16302192211151123,0.8799840807914734,-0.7608387470245361,-9.435905456542969
1745733119.9860725,-0.17203021049499512,-0.05957924574613571,0.16547563672065735,0.9329748153686523,-0.4758949279785156,-10.026667594909668
1745733119.987536,-0.16631563007831573,-0.04740862548351288,0.17027437686920166,0.6128832101821899,-0.6307677030563354,-10.351605415344238
1745733119.9886699,-0.18106630444526672,-0.042528796941041946,0.17836399376392365,0.8601633310317993,-0.658341109752655,-9.441446304321289
1745733119.9932745,-0.17293404042720795,-0.04946916550397873,0.18709978461265564,0.8702888488769531,-0.2691091001033783,-9.235406875610352
1745733120.0290835,-0.17948497831821442,-0.05621696263551712,0.19416043162345886,0.9944807887077332,-0.41755184531211853,-10.264289855957031
1745733120.032522,-0.162896990776062,-0.049226246774196625,0.19830894470214844,0.7783393263816833,0.01039152592420578,-10.435338020324707
1745733120.036384,-0.14482249319553375,-0.03508415073156357,0.20258817076683044,0.7333839535713196,-0.19170935451984406,-9.382139205932617
1745733120.0371387,-0.15308186411857605,-0.05705723166465759,0.20519337058067322,0.8553649187088013,-0.026019025593996048,-9.0994234085083
1745733120.0721886,-0.13949811458587646,-0.06038536876440048,0.20677664875984192,0.8033347129821777,-0.16396628320217133,-10.321876525878906
1745733120.072341,-0.14624138176441193,-0.047453757375478745,0.21208897233009338,0.8651992082595825,-0.3405577540397644,-10.593080520629883
1745733120.0724194,-0.13735851645469666,-0.03680308908224106,0.21414676308631897,0.5386637449264526,-0.20598217844963074,-9.379914283752441
1745733120.072969,-0.16673168540000916,-0.057937346398830414,0.21936646103858948,0.8985884785652161,-0.6997708082199097,-9.002887725830078
1745733120.0766084,-0.1628486067056656,-0.06041228771209717,0.2264007329940796,0.9357627630233765,-0.30009064078330994,-10.176628112792969
1745733120.1117244,-0.17017963528633118,-0.041631124913692474,0.23117360472679138,0.8424192667007446,-0.6667522192001343,-10.832181930541992
1745733120.1127527,-0.17957761883735657,-0.05038311332464218,0.23672516644001007,0.7001888155937195,-0.3080170452594757,-9.47797679901123
1745733120.1137643,-0.18425039947032928,-0.051730554550886154,0.243984192609787,0.6660229563713074,-0.6785674691200256,-8.936942100524902
1745733120.1180036,-0.19662532210350037,-0.041972506791353226,0.29205459356307983,0.7015432119369507,-0.1908264309167862,-9.354966163635254
1745733120.1553125,-0.1942976415157318,-0.05029963329434395,0.2951194643974304,0.6511152386665344,-0.0073115527629852295,-9.818775177001953
1745733120.1586926,-0.19159910082817078,-0.03548099845647812,0.2981857657432556,0.7526159882545471,-0.38629820942878723,-10.271151542663574
1745733120.1594863,-0.21901564300060272,-0.035782087594270706,0.304054319858551,0.7241414189338684,-0.20797042548656464,-9.797384262084961
1745733120.161051,-0.21193766593933105,-0.03887775167822838,0.3084658980369568,0.6527419090270996,-0.2704872190952301,-9.413789749145508
1745733120.1989267,-0.23485183715820312,-0.04246553033590317,0.31185513734817505,0.8425019979476929,-0.19567909836769104,-9.73397445678711
1745733120.2013185,-0.2235054224729538,-0.03357534855604172,0.3150324523448944,0.6462938189506531,0.009504923596978188,-10.207148551940918
1745733120.2045405,-0.24237851798534393,-0.03357348218560219,0.31767433881759644,0.756314218044281,-0.17243388295173645,-9.878294944763184
1745733120.207079,-0.2308778464794159,-0.037533096969127655,0.3233640789985657,0.5710394978523254,0.1287236362695694,-9.381473541259766
1745733120.2403336,-0.23031707108020782,-0.028667543083429337,0.32668155431747437,0.607964277267456,-0.07835293561220169,-9.646394729614258
1745733120.2429602,-0.23553915321826935,-0.03303989768028259,0.329204797744751,0.6602385640144348,0.2533784508705139,-10.001873970031738
1745733120.24479,-0.21793606877326965,-0.02809564396739006,0.33120426535606384,0.6647409200668335,0.15978005528450012,-9.865168571472168
1745733120.2463343,-0.2222243994474411,-0.029129529371857643,0.3337765336036682,0.7872228622436523,0.14876794815063477,-9.593706130981445
1745733120.2474747,-0.21234813332557678,-0.02771918848156929,0.334797203540802,0.5642645955085754,0.22005732357501984,-9.735273361206055
1745733120.2854083,-0.22335128486156464,-0.02878515049815178,0.33996066451072693,0.7543301582336426,-0.08327169716358185,-9.885759353637695
1745733120.2895868,-0.21067921817302704,-0.024474188685417175,0.34196874499320984,0.6454147100448608,0.18632195889949799,-9.72815990447998
1745733120.2916312,-0.2295827865600586,-0.006629341281950474,0.40069204568862915,0.6189996004104614,0.5867636203765869,-10.01376724243164
1745733120.295181,-0.20754775404930115,0.00012682499072980136,0.40093931555747986,0.5604974031448364,0.5421632528305054,-9.716813087463379
1745733120.328568,-0.2139434516429901,-0.004968786146491766,0.4014347493648529,0.6811673045158386,0.580460250377655,-9.414857864379883
1745733120.3286946,-0.2001543939113617,-0.00226069544441998,0.4034758508205414,0.5320711135864258,0.6463268399238586,-9.769628524780273
1745733120.3295228,-0.20972779393196106,-0.003044940996915102,0.4014088213443756,0.6825921535491943,0.41220274567604065,-9.996919631958008
1745733120.331926,-0.1848433017730713,-0.0012907974887639284,0.4050532877445221,0.549716591835022,0.7198114395141602,-9.615442276000977
1745733120.333935,-0.20489630103111267,0.003266358282417059,0.40323585271835327,0.6937710046768188,0.3790108263492584,-9.546329498291016
1745733120.3725827,-0.19022566080093384,-0.010000430047512054,0.40570372343063354,0.6127158999443054,0.7180538177490234,-9.74020767211914
1745733120.3727176,-0.19109925627708435,-0.0009691816521808505,0.40619316697120667,0.6277719140052795,0.4142882227897644,-9.98187255859375
1745733120.374982,-0.19165734946727753,0.0034899874590337276,0.41100484132766724,0.6589275002479553,0.5765825510025024,-9.605559349060059
1745733120.3762262,-0.17843946814537048,0.0007636681548319757,0.4117817282676697,0.5237767696380615,0.5901312232017517,-9.514259338378906
1745733120.412916,-0.1932927668094635,-0.003966050688177347,0.4130212366580963,0.6965122818946838,0.5500268340110779,-9.775859832763672
1745733120.4162781,-0.16772417724132538,-0.0018246041145175695,0.4136253893375397,0.5755530595779419,0.7394183278083801,-9.938206672668457
1745733120.4202926,-0.1830521821975708,0.004703934770077467,0.4089629650115967,0.6267412304878235,0.5232831835746765,-9.74349308013916
1745733120.4294233,-0.1772664487361908,-0.0017326604574918747,0.41414874792099,0.515066921710968,0.6595042943954468,-9.498624801635742
1745733120.4302158,-0.17245545983314514,-0.0010864163050428033,0.4124441146850586,0.6863904595375061,0.46964940428733826,-9.662191390991211
1745733120.4566126,-0.18377676606178284,-0.00197388231754303,0.4146619439125061,0.7346022725105286,0.6378718614578247,-9.939717292785645
1745733120.4597692,-0.16283485293388367,0.003146036760881543,0.416104257106781,0.5520378351211548,0.6263513565063477,-9.867780685424805
1745733120.4631793,-0.17970237135887146,-0.003681117668747902,0.4184224605560303,0.6225842833518982,0.6202778220176697,-9.532934188842773
1745733120.4658928,-0.15715932846069336,0.0001374769926769659,0.4210938513278961,0.5823284983634949,0.7476640343666077,-9.526403427124023
1745733120.4990654,-0.11749221384525299,0.0003545064537320286,0.42456549406051636,0.5717765092849731,0.7517253756523132,-9.693597793579102
1745733120.5021327,-0.12968310713768005,-0.009065484628081322,0.4259343147277832,0.6698274612426758,0.848906397819519,-9.641826629638672
1745733120.5082068,-0.10902726650238037,-0.0002224897762062028,0.4234236180782318,0.5169375538825989,0.7925761938095093,-9.892110824584961
1745733120.5428278,-0.12739643454551697,-0.002843207214027643,0.42466235160827637,0.6685184240341187,0.6590284109115601,-9.756010055541992
1745733120.545606,-0.10994335263967514,-0.0033171004615724087,0.42760124802589417,0.5877689123153687,0.7926101088523865,-9.550508499145508
1745733120.548702,-0.12711337208747864,-0.005219864193350077,0.42402392625808716,0.7856025695800781,0.5893595218658447,-9.770376205444336
1745733120.5520217,-0.10999784618616104,-0.010588305070996284,0.4257034659385681,0.5670979022979736,0.9581345319747925,-9.953485488891602
1745733120.5530696,-0.10741633176803589,-0.0021040805149823427,0.42635226249694824,0.5421423316001892,0.6711276173591614,-9.798622131347656
1745733120.5865042,-0.11201268434524536,-0.007601938210427761,0.4257085919380188,0.6242124438285828,0.9162086248397827,-9.416158676147461
1745733120.5898604,-0.0978577509522438,-0.005356124602258205,0.4260779321193695,0.5892564654350281,0.7757489085197449,-9.713431358337402
1745733120.5922403,-0.1032191663980484,-0.010336281731724739,0.42653602361679077,0.6354950666427612,0.8915337324142456,-10.007030487060547
1745733120.5961637,-0.08551676571369171,-0.006215617060661316,0.4255363941192627,0.49414676427841187,0.8535372614860535,-9.855424880981445
1745733120.6277192,-0.09274917095899582,-0.005799118895083666,0.426306813955307,0.643785834312439,0.7412612438201904,-9.492749214172363
1745733120.631587,-0.09379781782627106,-0.008129386231303215,0.4256051480770111,0.5463228225708008,0.9359648823738098,-9.570597648620605
1745733120.6334982,-0.08878378570079803,-0.011408744379878044,0.4260384440422058,0.7196994423866272,0.5176423788070679,-10.011422157287598
1745733120.6371436,-0.05039839819073677,-0.021442556753754616,0.41856804490089417,0.6357646584510803,0.9652934074401855,-9.691180229187012
1745733120.67488,-0.04799525812268257,-0.025448117405176163,0.41951149702072144,0.5041643381118774,0.9328581094741821,-9.594932556152344
1745733120.675002,-0.04840975999832153,-0.028333589434623718,0.4185452461242676,0.720744788646698,0.7971934080123901,-9.819239616394043
1745733120.6764247,-0.04122483357787132,-0.02159784361720085,0.4169352948665619,0.5530046820640564,1.0668493509292603,-9.874921798706055
1745733120.6790183,-0.04825696349143982,-0.024579022079706192,0.4168309271335602,0.5871099233627319,0.6095539331436157,-9.758994102478027
1745733120.6814246,-0.043212272226810455,-0.02934080734848976,0.41468629240989685,0.6038564443588257,1.0415763854980469,-9.497329711914062
1745733120.7204394,-0.044131167232990265,-0.02234453521668911,0.41790851950645447,0.6049546599388123,0.7378222346305847,-9.808645248413086
1745733120.7205625,-0.044896118342876434,-0.02749168500304222,0.41593632102012634,0.5860022306442261,0.9318440556526184,-9.888839721679688
1745733120.7212143,-0.03189259022474289,-0.021976416930556297,0.41741079092025757,0.5082318782806396,0.8858848810195923,-9.74847412109375
1745733120.7212625,-0.04941888526082039,-0.02767309918999672,0.4168005585670471,0.6802319288253784,0.8050957918167114,-9.546080589294434
1745733120.7594914,-0.027356069535017014,-0.029646139591932297,0.41663703322410583,0.5199453234672546,1.0133851766586304,-9.748865127563477
1745733120.7623134,-0.04542888328433037,-0.027023717761039734,0.4132530093193054,0.6220159530639648,0.7392659187316895,-10.008723258972168
1745733120.7651434,-0.031698595732450485,-0.027669662609696388,0.41384807229042053,0.4570896625518799,0.9196392297744751,-9.70978832244873
1745733120.7684243,-0.039269544184207916,-0.02294273115694523,0.4141786992549896,0.5901249647140503,0.6986166834831238,-9.430827140808105
1745733120.8014796,-0.05481288582086563,-0.031308211386203766,0.41395092010498047,0.597882866859436,0.870832085609436,-9.750492095947266
1745733120.8049614,-0.03675062581896782,-0.030460184440016747,0.41237372159957886,0.6148842573165894,0.7947362661361694,-10.07093334197998
1745733120.8089144,-0.050662100315093994,-0.0256817527115345,0.41263580322265625,0.6582738161087036,0.8401098251342773,-9.741686820983887
1745733120.8125522,-0.038834091275930405,-0.025069585070014,0.41375619173049927,0.44805842638015747,0.9272214770317078,-9.491800308227539
1745733120.8230045,-0.04947909712791443,-0.033215999603271484,0.4152251183986664,0.6795133352279663,0.7134930491447449,-9.680553436279297
1745733120.8444355,-0.039870601147413254,-0.03392133489251137,0.41432490944862366,0.5460178852081299,1.064626932144165,-9.96664047241211
1745733120.852308,-0.03336557000875473,-0.029927145689725876,0.4117840826511383,0.4595910906791687,0.9007779359817505,-10.009419441223145
1745733120.8530092,-0.04481480270624161,-0.03602079302072525,0.40871334075927734,0.6196203827857971,0.7638198137283325,-9.836091995239258
1745733120.8530726,-0.021001199260354042,-0.03527737408876419,0.4090728163719177,0.5102570652961731,1.0853850841522217,-9.429004669189453
1745733120.8868358,-0.04732609912753105,-0.031049704179167747,0.40729132294654846,0.6042425632476807,0.7591575980186462,-9.744316101074219
1745733120.8888674,-0.028036698698997498,-0.04232596606016159,0.4076082706451416,0.5228632688522339,1.0805085897445679,-9.95128059387207
1745733120.8955112,-0.023004328832030296,-0.03328944370150566,0.40902605652809143,0.6069986820220947,0.8284727334976196,-9.79114818572998
1745733120.8959942,-0.032043248414993286,-0.031634826213121414,0.4090290069580078,0.5623984932899475,1.014264464378357,-9.527722358703613
1745733120.8988943,-0.011145825497806072,-0.0386066660284996,0.4083248972892761,0.5003196597099304,0.8154282569885254,-9.742493629455566
1745733120.9345534,-0.026285896077752113,-0.03824121877551079,0.4098162055015564,0.6247246265411377,1.0243452787399292,-9.83008098602295
1745733120.939477,-0.003984066657721996,-0.03343193978071213,0.40984877943992615,0.5259953737258911,0.9299439191818237,-9.808610916137695
1745733120.944568,-0.023259049281477928,-0.03454890474677086,0.4054484963417053,0.5800107717514038,0.8988927006721497,-9.676872253417969
1745733120.948708,-0.013042664155364037,-0.04104261472821236,0.4061271548271179,0.4296237528324127,0.9642753601074219,-9.681510925292969
1745733120.9732244,-0.014145120978355408,-0.035449106246232986,0.4058992862701416,0.6451274156570435,0.7048447728157043,-9.727540016174316
1745733120.9758964,-0.030066516250371933,-0.03528929874300957,0.40255674719810486,0.5580892562866211,0.9874466061592102,-9.825284957885742
1745733120.9792387,-0.016170216724276543,-0.03728924319148064,0.4053502082824707,0.5255154371261597,0.705325722694397,-9.764564514160156
1745733120.987947,-0.029957037419080734,-0.04127595201134682,0.40592822432518005,0.6189760565757751,0.910312831401825,-9.55308723449707
1745733121.0174778,-0.0036243542563170195,-0.03423754870891571,0.40030574798583984,0.41456642746925354,0.8173199892044067,-9.728039741516113
1745733121.0213473,-0.010383469983935356,-0.033222246915102005,0.398710161447525,0.5619834065437317,0.898781418800354,-9.601358413696289
1745733121.024404,-0.008348970673978329,-0.035483039915561676,0.3995118737220764,0.4140365719795227,0.9754917025566101,-9.738637924194336
1745733121.0287583,-0.013695928268134594,-0.03533623367547989,0.3997959792613983,0.6326419115066528,0.6193512082099915,-9.869966506958008
1745733121.0605986,-0.013199901208281517,-0.03396468982100487,0.39647176861763,0.547824501991272,1.0714646577835083,-9.705110549926758
1745733121.064481,-0.011616485193371773,-0.029837822541594505,0.40041956305503845,0.4856683611869812,0.6769136190414429,-9.699831008911133
1745733121.0671928,-0.015912139788269997,-0.036125168204307556,0.40121689438819885,0.4730962812900543,0.9671255946159363,-9.596833229064941
1745733121.0692642,-0.002206871286034584,-0.031869180500507355,0.4015263617038727,0.528751790523529,0.8804258108139038,-9.737237930297852
1745733121.0705326,-0.019076678901910782,-0.032631535083055496,0.40029555559158325,0.5860277414321899,0.9085232019424438,-9.850809097290039
1745733121.1041806,0.00885799340903759,-0.03141336515545845,0.398288369178772,0.36988335847854614,1.1357749700546265,-9.740971565246582
1745733121.107706,-0.011351989582180977,-0.03534325212240219,0.39736872911453247,0.5264595150947571,0.7704600095748901,-9.688291549682617
1745733121.1116953,0.01086543221026659,-0.033959902822971344,0.3960176408290863,0.41653409600257874,1.0531774759292603,-9.691572189331055
1745733121.1145182,-0.009684844873845577,-0.02518388070166111,0.39734750986099243,0.5411126613616943,0.655029296875,-9.727590560913086
1745733121.1444566,-0.011036714538931847,-0.03744782134890556,0.3954198360443115,0.4898330271244049,0.8680351972579956,-9.699263572692871
1745733121.149917,-0.007620131131261587,-0.03155069798231125,0.3965350091457367,0.5691518187522888,0.7598929405212402,-9.802925109863281
1745733121.149968,-0.02312416024506092,-0.02927512489259243,0.3985612690448761,0.5924396514892578,0.8454910516738892,-9.799827575683594
1745733121.153021,-0.005801791790872812,-0.03185908496379852,0.39726465940475464,0.38325437903404236,0.9062202572822571,-9.716096878051758
1745733121.1542807,-0.017872652038931847,-0.03451128304004669,0.39676350355148315,0.6093928813934326,0.783251166343689,-9.642446517944336
1745733121.1895685,-0.010759089142084122,-0.030586814507842064,0.3974027931690216,0.40831297636032104,1.0545752048492432,-9.73791217803955
1745733121.1924195,0.00516497390344739,-0.025125985965132713,0.39258676767349243,0.39410680532455444,0.987134575843811,-9.647741317749023
1745733121.1942875,-0.018547844141721725,-0.02778317965567112,0.39435461163520813,0.5682880878448486,0.6346295475959778,-9.734445571899414
1745733121.19684,-0.0005562627920880914,-0.03667939454317093,0.3928911089897156,0.48853570222854614,1.0578655004501343,-9.751569747924805
1745733121.2344806,-0.012623772025108337,-0.02584216371178627,0.3938855826854706,0.5499678254127502,0.6836460828781128,-9.797382354736328
1745733121.2376492,-0.01119658537209034,-0.028620323166251183,0.3932313323020935,0.48026666045188904,1.016457200050354,-9.627001762390137
1745733121.2418213,-0.0004063636006321758,-0.028351569548249245,0.39418429136276245,0.47381719946861267,0.7828614711761475,-9.73082160949707
1745733121.2449052,-0.013879185542464256,-0.03190989047288895,0.3919965624809265,0.5455126762390137,0.975521445274353,-9.787398338317871
1745733121.2746153,0.005781187675893307,-0.025479445233941078,0.3925664722919464,0.41118842363357544,0.8869007229804993,-9.836776733398438
1745733121.2767668,-0.013521255925297737,-0.02782686986029148,0.39368385076522827,0.4915288984775543,0.8516216278076172,-9.656822204589844
1745733121.279987,-0.0022114315070211887,-0.029650891199707985,0.39225488901138306,0.3689214289188385,0.8932073712348938,-9.602018356323242
1745733121.281278,-0.005656594876199961,-0.02809128724038601,0.39242830872535706,0.6347217559814453,0.674267590045929,-9.704493522644043
1745733121.3189065,-0.016518447548151016,-0.02747216820716858,0.3911365866661072,0.47651976346969604,1.0294228792190552,-9.916940689086914
1745733121.3196492,-0.009613805450499058,-0.026185616850852966,0.39014944434165955,0.48942071199417114,0.6770007610321045,-9.836214065551758
1745733121.3208957,-0.0172139722853899,-0.03041151724755764,0.3917700946331024,0.4896811842918396,0.9741445779800415,-9.525138854980469
1745733121.3220794,-0.012690429575741291,-0.021779101341962814,0.39119699597358704,0.4004199504852295,0.7995887398719788,-9.688016891479492
1745733121.3251362,-0.021477386355400085,-0.026339730247855186,0.39363768696784973,0.5500243306159973,0.7428654432296753,-9.838007926940918
1745733121.3597074,-0.006392347160726786,-0.02594277821481228,0.3932848870754242,0.40153080224990845,1.1547338962554932,-9.726743698120117
1745733121.3628569,-0.004917799960821867,-0.026224549859762192,0.38451871275901794,0.5574436187744141,0.585590124130249,-9.82399845123291
1745733121.3642411,0.00019679908291436732,-0.02578621730208397,0.3861991763114929,0.4627952575683594,1.049300193786621,-9.660417556762695
1745733121.3689196,-0.005591651890426874,-0.018590200692415237,0.38495495915412903,0.5096799731254578,0.5443261861801147,-9.781453132629395
1745733121.4021747,-0.005665363743901253,-0.02774490974843502,0.38760796189308167,0.4424791932106018,0.9525011777877808,-9.744161605834961
1745733121.40717,0.004184492398053408,-0.023582328110933304,0.38845205307006836,0.4894208312034607,0.8128442764282227,-9.76011848449707
1745733121.410458,-0.015934012830257416,-0.025434181094169617,0.38846951723098755,0.5523797273635864,0.8529947996139526,-9.76213550567627
1745733121.4145415,0.011335982009768486,-0.022189799696207047,0.38694465160369873,0.362327516078949,1.0205918550491333,-9.755413055419922
1745733121.4189305,-0.012814964167773724,-0.027753328904509544,0.3866868019104004,0.5011869668960571,0.7517073154449463,-9.792531967163086
1745733121.4466963,0.012034798040986061,-0.02414540946483612,0.3850470781326294,0.37722402811050415,1.0412651300430298,-9.687481880187988
1745733121.4488006,-0.003737424733117223,-0.01922161504626274,0.3832305371761322,0.5201215744018555,0.7636796832084656,-9.678171157836914
1745733121.449968,-0.0010408193338662386,-0.031343020498752594,0.3856895864009857,0.4341318607330322,0.9509788751602173,-9.783529281616211
1745733121.4525838,0.007189468946307898,-0.023221507668495178,0.3839501142501831,0.5449075698852539,0.7983601093292236,-9.85698127746582
1745733121.490195,-0.00384378875605762,-0.021666642278432846,0.38411301374435425,0.5226625800132751,0.9219234585762024,-9.664525985717773
1745733121.4933312,0.012630404904484749,-0.022784758359193802,0.38557085394859314,0.37262091040611267,0.8010517358779907,-9.638480186462402
1745733121.5000148,0.0014719906030222774,-0.02934308722615242,0.38627949357032776,0.5873957276344299,0.7842538952827454,-9.767291069030762
1745733121.5013678,0.007213099393993616,-0.01991153508424759,0.3887781798839569,0.3596128523349762,1.0081149339675903,-9.896005630493164
1745733121.5044682,0.011190763674676418,-0.02070145308971405,0.38691601157188416,0.4929506182670593,0.7035226821899414,-9.669164657592773
1745733121.5323744,0.004817768931388855,-0.02957618236541748,0.38602811098098755,0.39661315083503723,1.0968565940856934,-9.583588600158691
1745733121.5348203,0.013531545177102089,-0.02346949093043804,0.3852420449256897,0.45771485567092896,0.6567404270172119,-9.896699905395508
1745733121.5365164,0.004620423074811697,-0.022107714787125587,0.3857373297214508,0.5158656239509583,0.9360421299934387,-9.757014274597168
1745733121.5398612,0.023076754063367844,-0.0273141972720623,0.3840683698654175,0.40301284193992615,0.9945076107978821,-9.83979320526123
1745733121.5829978,0.007337254472076893,-0.02068956568837166,0.3872072100639343,0.5135512351989746,0.6527408361434937,-9.590116500854492
1745733121.584566,0.012052467092871666,-0.025254691019654274,0.3880477249622345,0.43490275740623474,1.0168598890304565,-9.588927268981934
1745733121.5846124,0.01981591433286667,-0.023889362812042236,0.3877736032009125,0.45099854469299316,0.7066910862922668,-9.998682022094727
1745733121.5871692,0.012834971770644188,-0.026217618957161903,0.3869704604148865,0.5104435682296753,1.02399742603302,-9.791122436523438
1745733121.6220088,0.03212263062596321,-0.02199333906173706,0.38653987646102905,0.3874366879463196,0.8302417993545532,-9.620464324951172
1745733121.6249838,0.010742701590061188,-0.02764175832271576,0.3854472041130066,0.5059499144554138,0.830734372138977,-9.691802978515625
1745733121.6333466,0.02514815330505371,-0.02767246589064598,0.38589951395988464,0.3698037266731262,0.8413450121879578,-9.895027160644531
1745733121.6334,0.019101830199360847,-0.024204079061746597,0.38476866483688354,0.5836420059204102,0.6642788052558899,-9.736281394958496
1745733121.6600144,0.0090012326836586,-0.026144344359636307,0.3844197690486908,0.4300641119480133,0.9368683099746704,-9.659029960632324
1745733121.6639206,0.01620258018374443,-0.029775122180581093,0.3866754472255707,0.46556130051612854,0.6272547245025635,-9.812440872192383
1745733121.6667178,0.008407831192016602,-0.02978210523724556,0.38581815361976624,0.46924763917922974,0.927803635597229,-9.754478454589844
1745733121.6688838,0.016415107995271683,-0.020255718380212784,0.3855941891670227,0.4466293454170227,0.7101823091506958,-9.698633193969727
1745733121.6720219,0.0022552607115358114,-0.02665642835199833,0.38693130016326904,0.5257538557052612,0.8266795873641968,-9.686906814575195
1745733121.7058618,0.02503581903874874,-0.03053165040910244,0.3846140503883362,0.3523656725883484,1.0527594089508057,-9.7628755569458
1745733121.7103457,0.012136127799749374,-0.026141192764043808,0.3845633566379547,0.5556598901748657,0.6897090077400208,-9.860695838928223
1745733121.7141237,0.017873527482151985,-0.02485918067395687,0.3834945857524872,0.4689355790615082,0.5950697660446167,-9.537277221679688
1745733121.7173827,-0.005784881301224232,-0.026977788656949997,0.3837924003601074,0.5166682004928589,0.7625350952148438,-9.829483032226562
1745733121.7454596,0.02322852797806263,-0.01782996766269207,0.38469448685646057,0.3387943208217621,0.7881441116333008,-9.941268920898438
1745733121.7479131,-0.0031232167966663837,-0.024168219417333603,0.38469797372817993,0.48090291023254395,0.7482050657272339,-9.64814567565918
1745733121.749917,0.02047492191195488,-0.02562556602060795,0.3823164999485016,0.3526816666126251,0.9101284146308899,-9.613580703735352
1745733121.7535422,0.0032280280720442533,-0.020673193037509918,0.38116028904914856,0.5348727107048035,0.7082866430282593,-9.798624038696289
1745733121.7571914,0.007523914333432913,-0.02559853531420231,0.3824046552181244,0.37976619601249695,0.9001525044441223,-9.926709175109863
1745733121.791084,0.011216637678444386,-0.021259929984807968,0.37963515520095825,0.48876944184303284,0.6544529795646667,-9.769413948059082
1745733121.7932858,0.00033505988540127873,-0.025086352601647377,0.3810671269893646,0.46832266449928284,0.7683801651000977,-9.55391788482666
1745733121.7945025,0.013188913464546204,-0.017108216881752014,0.38302716612815857,0.36399000883102417,0.6775820255279541,-9.730029106140137
1745733121.8005724,-0.003392505692318082,-0.023770149797201157,0.38395175337791443,0.5345392227172852,0.6724286079406738,-9.913512229919434
1745733121.8486567,0.018669545650482178,-0.0233408622443676,0.38678473234176636,0.4105815887451172,0.9152705073356628,-9.75666332244873
1745733121.8487105,0.0071482909843325615,-0.019085239619016647,0.3860876262187958,0.5065305233001709,0.6990137696266174,-9.66242504119873
1745733121.8500266,0.008998160250484943,-0.02552647888660431,0.38304540514945984,0.3290020227432251,0.9707260131835938,-9.800749778747559
1745733121.8537474,0.01256523746997118,-0.018740547820925713,0.3822164535522461,0.4660216271877289,0.5296849012374878,-9.835660934448242
1745733121.8578079,0.004215381108224392,-0.021977022290229797,0.3827593922615051,0.43424192070961,0.8760468363761902,-9.555709838867188
1745733121.876253,0.0011390646686777472,-0.019252564758062363,0.3807164430618286,0.378309965133667,0.542400598526001,-9.78787899017334
1745733121.880666,-0.006272841244935989,-0.029013291001319885,0.3815663456916809,0.5657908320426941,0.7522028088569641,-9.817909240722656
1745733121.8843231,0.004697856027632952,-0.018001854419708252,0.3837856650352478,0.4119827151298523,0.7952333688735962,-9.804098129272461
1745733121.8890853,-0.01233574841171503,-0.015406498685479164,0.38371729850769043,0.5261438488960266,0.5828129649162292,-9.677391052246094
1745733121.9227376,0.006171933375298977,-0.026173437014222145,0.3821060061454773,0.35937708616256714,0.8853934407234192,-9.700654983520508
1745733121.9250016,-0.008249334990978241,-0.01849326677620411,0.3848073482513428,0.378339022397995,0.8701688051223755,-9.625622749328613
1745733121.9287243,-0.0033027944155037403,-0.019621867686510086,0.3833494782447815,0.45312944054603577,0.5702193975448608,-9.78905963897705
1745733121.9347758,-0.010072159580886364,-0.025618311017751694,0.38431936502456665,0.4643327295780182,0.9830862879753113,-9.777142524719238
1745733121.9666681,0.0016819577431306243,-0.017833631485700607,0.3809901177883148,0.3827315866947174,0.6435405015945435,-9.868927001953125
1745733121.96678,-0.01296002697199583,-0.019960938021540642,0.3827376365661621,0.45326200127601624,0.8393077850341797,-9.649682998657227
1745733121.970256,-0.00422018114477396,-0.019797680899500847,0.3801797032356262,0.32143133878707886,0.7732332944869995,-9.671396255493164
1745733121.973454,-0.012623468413949013,-0.023006323724985123,0.3796374499797821,0.5507296323776245,0.5476604700088501,-9.806396484375
1745733122.00429,-0.00737390574067831,-0.02072800137102604,0.3815322518348694,0.4101075232028961,0.9030952453613281,-9.843172073364258
1745733122.0132277,-0.01606215536594391,-0.016888868063688278,0.38039910793304443,0.4304269850254059,0.5408269166946411,-9.772069931030273
1745733122.0133045,-0.012031364254653454,-0.02621210180222988,0.38153380155563354,0.3664097189903259,0.8938487768173218,-9.572957038879395
1745733122.0133648,-0.007709371857345104,-0.01794418692588806,0.3830801844596863,0.4495195746421814,0.6208478212356567,-9.723187446594238
1745733122.0134234,-0.02102316915988922,-0.018378689885139465,0.38233762979507446,0.46403759717941284,0.7473260164260864,-9.895432472229004
1745733122.0482237,0.0007294925162568688,-0.018797345459461212,0.38250941038131714,0.328172504901886,0.8448710441589355,-9.756952285766602
1745733122.0510128,-0.01958497241139412,-0.022289156913757324,0.3811648488044739,0.538508951663971,0.5968217253684998,-9.627436637878418
1745733122.053216,-0.003210589289665222,-0.021400080993771553,0.3817630708217621,0.3413468301296234,0.9819639921188354,-9.768667221069336
1745733122.0557175,-9.906068589771166e-05,-0.022163543850183487,0.37546753883361816,0.35684314370155334,0.8621100187301636,-9.662110328674316
1745733122.0938802,-0.01913016475737095,-0.022263530641794205,0.37591344118118286,0.4907659888267517,0.6403371095657349,-9.638586044311523
1745733122.098047,-0.015670673921704292,-0.02664307877421379,0.37693333625793457,0.32101330161094666,0.8285126686096191,-9.873774528503418
1745733122.099215,-0.011805102229118347,-0.022881172597408295,0.3775191903114319,0.5274810791015625,0.6062830686569214,-9.812077522277832
1745733122.1017573,-0.01985183171927929,-0.02307978644967079,0.3764839172363281,0.4144270420074463,0.9269344210624695,-9.637531280517578
1745733122.1344073,-0.009306174702942371,-0.02050783857703209,0.3760175406932831,0.3500337600708008,0.6810105443000793,-9.747292518615723
1745733122.1356468,-0.01399036031216383,-0.028293997049331665,0.3752184510231018,0.5192592740058899,0.8044959902763367,-9.805803298950195
1745733122.13911,-0.004087120294570923,-0.020686205476522446,0.37796884775161743,0.345395565032959,0.8981846570968628,-9.775201797485352
1745733122.142838,-0.012117234990000725,-0.024373382329940796,0.37532997131347656,0.4954712986946106,0.616645336151123,-9.689769744873047
1745733122.145028,-0.0040033841505646706,-0.025969062000513077,0.376442015171051,0.3386254906654358,1.007822036743164,-9.713666915893555
1745733122.1774607,-0.013188691809773445,-0.022873589769005775,0.37252292037010193,0.42593851685523987,0.5288658738136292,-9.909405708312988
1745733122.1788464,-0.003606979502364993,-0.025458911433815956,0.37428969144821167,0.40716904401779175,0.9811335802078247,-9.602995872497559
1745733122.1808233,-0.009302140213549137,-0.02106393314898014,0.37259891629219055,0.47348421812057495,0.6279773116111755,-9.72488784790039
1745733122.182878,-0.0175272636115551,-0.029837220907211304,0.37641099095344543,0.49729806184768677,0.7903753519058228,-9.86386489868164
1745733122.2210388,-0.00010626602306729183,-0.022790713235735893,0.37449467182159424,0.361616313457489,0.721786618232727,-9.82192611694336
1745733122.2244322,-0.021358106285333633,-0.019889768213033676,0.37723225355148315,0.4705650210380554,0.6963484883308411,-9.580925941467285
1745733122.2269645,0.0007146388525143266,-0.02712845243513584,0.37512263655662537,0.32285892963409424,0.8575894236564636,-9.704069137573242
1745733122.2299657,-0.007487892173230648,-0.0284273661673069,0.37634366750717163,0.5295141935348511,0.7219310998916626,-9.906474113464355
1745733122.2322936,0.006507334299385548,-0.02876489795744419,0.37251710891723633,0.3928489089012146,1.1948678493499756,-9.879972457885742
1745733122.2639575,0.006292420439422131,-0.03099312260746956,0.3644886314868927,0.09104607999324799,0.9015184640884399,-9.907382011413574
1745733122.2665987,0.008883407339453697,-0.038044653832912445,0.35693249106407166,0.054764289408922195,1.0083131790161133,-9.481743812561035
1745733122.2723458,0.036710839718580246,-0.031086519360542297,0.35258737206459045,0.055594880133867264,0.9060590863227844,-9.58741283416748
1745733122.272406,-0.029072770848870277,-0.0390540286898613,0.34199008345603943,0.20666095614433289,0.3115667700767517,-9.525492668151855
1745733122.3103168,-0.04892739653587341,-0.049205001443624496,0.3355763554573059,0.3965533673763275,0.5020293593406677,-9.549342155456543
1745733122.3146868,-0.05587054044008255,-0.038064468652009964,0.3308947682380676,0.11363913863897324,0.9612380862236023,-10.091870307922363
1745733122.3194206,-0.07472652196884155,-0.04008191451430321,0.32656386494636536,0.17900250852108002,0.5902565121650696,-10.008822441101074
1745733122.3247366,-0.02387184090912342,-0.04960845038294792,0.3216032087802887,0.22514979541301727,1.4192054271697998,-9.174983978271484
1745733122.350304,-0.04259512946009636,-0.04630928114056587,0.3201332092285156,0.3751896023750305,0.9312127828598022,-9.753660202026367
1745733122.3543537,0.007985418662428856,-0.053223513066768646,0.32121390104293823,0.21350474655628204,1.3305431604385376,-10.278020858764648
1745733122.356522,0.03661641851067543,-0.04363042116165161,0.3193115293979645,0.19004075229167938,1.0222314596176147,-9.835563659667969
1745733122.3585615,0.048648685216903687,-0.047699935734272,0.3186049163341522,0.22006234526634216,1.0929653644561768,-9.283964157104492
1745733122.3617375,0.06832753121852875,-0.05221023038029671,0.3178817629814148,0.12174782902002335,0.9374454617500305,-9.67866325378418
1745733122.3935316,0.06372784823179245,-0.05407628417015076,0.31190162897109985,0.28016120195388794,0.6414024233818054,-10.155102729797363
1745733122.396731,0.06510879099369049,-0.04371601343154907,0.3092736601829529,0.10041964054107666,0.7345201373100281,-9.782556533813477
1745733122.398585,0.035868123173713684,-0.04347752779722214,0.30295997858047485,0.2345917671918869,0.17770226299762726,-9.445195198059082
1745733122.401611,0.01905014179646969,-0.05801203101873398,0.3032898008823395,0.3577798008918762,0.6132475137710571,-9.562814712524414
1745733122.4384289,0.07795049250125885,-0.04405937343835831,0.19591298699378967,0.3251788020133972,0.37798333168029785,-11.02863597869873
1745733122.441375,0.07107843458652496,-0.017735237255692482,0.18776538968086243,-0.05095202848315239,0.6981810331344604,-10.322810173034668
1745733122.4439719,0.058773625642061234,-0.02558213844895363,0.17893259227275848,0.11538773775100708,0.24326975643634796,-8.595056533813477
1745733122.445107,0.02209498919546604,-0.04818271845579147,0.1700383424758911,0.28130772709846497,0.7288131713867188,-9.198031425476074
1745733122.4779868,0.03233291953802109,-0.03764872997999191,0.15752896666526794,0.5455572605133057,0.5640496611595154,-11.122693061828613
1745733122.482847,0.05036715418100357,-0.005873541813343763,0.1424119472503662,0.3094586730003357,1.214559555053711,-10.459646224975586
1745733122.4859867,0.07780630141496658,-0.02460416778922081,0.12647488713264465,0.8743323087692261,1.0977795124053955,-8.361156463623047
1745733122.4899468,0.10134536027908325,-0.03611423820257187,0.127086341381073,0.9901540875434875,0.972549557685852,-9.477595329284668
1745733122.5258253,0.14359407126903534,-0.027409877628087997,0.12091106176376343,0.35734614729881287,1.0377839803695679,-11.371973037719727
1745733122.526106,0.17998869717121124,0.003328724531456828,0.12176284939050674,0.3033261299133301,0.3915024399757385,-10.153871536254883
1745733122.5280883,0.18031395971775055,-0.0039525823667645454,0.11677901446819305,-0.011075777001678944,0.8159762620925903,-8.19849967956543
1745733122.5321088,0.1735054850578308,-0.017410820350050926,0.10675700008869171,0.32272762060165405,0.40482062101364136,-9.173346519470215
1745733122.5668144,0.17774562537670135,-0.002594348043203354,0.08623252809047699,0.2757909595966339,1.1594760417938232,-11.039819717407227
1745733122.5694115,0.16911178827285767,0.018129684031009674,0.06910093128681183,0.3692606985569,0.3373517096042633,-10.44078540802002
1745733122.5731535,0.15497742593288422,0.009230599738657475,0.05716048926115036,0.6492977142333984,0.13169050216674805,-8.508443832397461
1745733122.5744584,0.10294566303491592,-0.007910693064332008,0.05525407940149307,0.5047709345817566,-0.20728273689746857,-9.383675575256348
1745733122.5759175,0.11046741902828217,0.018952567130327225,0.05849611759185791,0.5919756889343262,-0.3497462272644043,-10.881155014038086
1745733122.6089196,0.08880182355642319,0.02935602143406868,0.059661924839019775,0.19286087155342102,0.6293064951896667,-10.025958061218262
1745733122.6112764,0.12064459174871445,0.027697190642356873,0.05732559412717819,0.5314882397651672,0.4948142170906067,-8.683401107788086
1745733122.6151464,0.13983815908432007,0.01163206435739994,0.04664214700460434,0.31125903129577637,1.6395988464355469,-9.477645874023438
1745733122.6193025,0.18161065876483917,0.02127533033490181,0.03251563757658005,0.08069974184036255,1.0211365222930908,-11.068239212036133
1745733122.6520786,0.18563517928123474,0.04535329341888428,-0.02250545099377632,0.128700852394104,0.20004300773143768,-10.014506340026855
1745733122.6546125,0.19642910361289978,0.044837579131126404,-0.02665328048169613,0.22700612246990204,0.2586665749549866,-9.057256698608398
1745733122.6574924,0.19378988444805145,0.03698212280869484,-0.029873225837945938,0.05017866939306259,0.5463597774505615,-9.45141315460205
1745733122.6587477,0.20238754153251648,0.04824862629175186,-0.035531096160411835,0.5000063180923462,0.000710807740688324,-10.356828689575195
1745733122.6630802,0.20175346732139587,0.05091589689254761,-0.038958750665187836,0.5172473192214966,0.5527111887931824,-10.08586311340332
1745733122.7014694,0.2108457386493683,0.048389483243227005,-0.043642558157444,0.6329038143157959,-0.11105360835790634,-9.51544189453125
1745733122.7016027,0.2007283866405487,0.0428268201649189,-0.04563552886247635,0.5501860976219177,0.31405705213546753,-9.443780899047852
1745733122.704074,0.19467292726039886,0.04855623096227646,-0.04947180673480034,0.4201996922492981,0.039546191692352295,-10.041481018066406
1745733122.7105567,0.19209417700767517,0.05551399663090706,-0.056536830961704254,0.5911731719970703,0.1525549590587616,-9.884044647216797
1745733122.7367504,0.18623724579811096,0.04609436169266701,-0.06128505617380142,0.24258439242839813,0.48380526900291443,-9.546539306640625
1745733122.7403128,0.19073370099067688,0.04666086658835411,-0.06769759207963943,0.44287949800491333,0.12478981912136078,-9.722528457641602
1745733122.7436094,0.2005109339952469,0.04524752125144005,-0.0736469253897667,0.3087455630302429,0.6839002966880798,-9.996996879577637
1745733122.744913,0.21404783427715302,0.04583991691470146,-0.08099698275327682,0.5532286763191223,-0.05472148582339287,-9.961639404296875
1745733122.7484791,0.21454544365406036,0.04504389315843582,-0.08280781656503677,0.49886512756347656,0.2968749403953552,-9.510660171508789
1745733122.781459,0.21577298641204834,0.046213578432798386,-0.08193392306566238,0.3861022889614105,-0.2229839265346527,-9.672650337219238
1745733122.7828598,0.1649022400379181,0.02327640727162361,-0.16871264576911926,0.5814985632896423,-0.515539288520813,-9.926919937133789
1745733122.7848797,0.16842849552631378,0.015101147815585136,-0.17305074632167816,0.5156805515289307,-0.1488969326019287,-9.451372146606445
1745733122.786305,0.15893110632896423,0.017352646216750145,-0.17517349123954773,0.4667060971260071,-0.3583427667617798,-9.548063278198242
1745733122.829595,0.14731578528881073,0.009405533783137798,-0.1794086992740631,0.5218847990036011,-0.2172529697418213,-9.9157133102417
1745733122.8300571,0.1710328459739685,0.01779865100979805,-0.18208098411560059,0.3337581157684326,-0.12395475804805756,-9.93109130859375
1745733122.8345635,0.1438242346048355,0.012385840527713299,-0.1851758509874344,0.5351855754852295,-0.4058621823787689,-9.671485900878906
1745733122.838694,0.17729198932647705,0.008377594873309135,-0.18648196756839752,0.36488208174705505,-0.10183463990688324,-9.524697303771973
1745733122.8668823,0.15541842579841614,0.008001049980521202,-0.18525266647338867,0.5246613621711731,-0.39755678176879883,-9.850489616394043
1745733122.868506,0.169335275888443,0.004836852662265301,-0.18833665549755096,0.5131884813308716,-0.22628609836101532,-9.811887741088867
1745733122.869739,0.17539666593074799,0.014230300672352314,-0.1913093626499176,0.48652440309524536,-0.2787412106990814,-9.651870727539062
1745733122.8710818,0.15439538657665253,-0.0004676970711443573,-0.1912216693162918,0.5698793530464172,-0.2898232340812683,-9.589231491088867
1745733122.8726132,0.17142753303050995,0.004314091522246599,-0.19693510234355927,0.48118215799331665,-0.32879430055618286,-9.849854469299316
1745733122.916917,0.14835485816001892,0.0018485363107174635,-0.19892311096191406,0.5612726807594299,-0.43915972113609314,-9.930344581604004
1745733122.9171102,0.16222283244132996,0.0008623767644166946,-0.19850000739097595,0.40586280822753906,-0.3341270089149475,-9.684301376342773
1745733122.9171941,0.13478337228298187,-0.0002435314527247101,-0.20373837649822235,0.5410230159759521,-0.44540467858314514,-9.58956241607666
1745733122.917614,0.14797087013721466,-0.004313928075134754,-0.2062104195356369,0.4244968891143799,-0.2560279071331024,-9.709131240844727
1745733122.9526124,0.1522737592458725,0.0006720071542076766,-0.2071503847837448,0.4868965148925781,-0.43328291177749634,-9.829952239990234
1745733122.956131,0.14274878799915314,-0.006441955454647541,-0.20924241840839386,0.5462239980697632,-0.17643609642982483,-9.716957092285156
1745733122.960285,0.16899922490119934,0.00047450995771214366,-0.21005919575691223,0.47033852338790894,-0.4659237861633301,-9.669282913208008
1745733122.9655292,0.14685767889022827,-0.006066085305064917,-0.2113007754087448,0.4593968391418457,-0.2640064060688019,-9.752713203430176
1745733122.9692664,0.1722586750984192,-0.0030742560047656298,-0.21160714328289032,0.4413687586784363,-0.4151572287082672,-9.883890151977539
1745733122.9981766,0.14464740455150604,-0.019624145701527596,-0.22779183089733124,0.37676161527633667,-0.25808244943618774,-9.820963859558105
1745733123.0008476,0.1558731496334076,-0.012407300993800163,-0.23056825995445251,0.5262409448623657,-0.5289524793624878,-9.878340721130371
1745733123.0026588,0.14555399119853973,-0.019692054018378258,-0.23227611184120178,0.3510609269142151,-0.3360935151576996,-9.795764923095703
1745733123.004729,0.15282170474529266,-0.017696117982268333,-0.23100796341896057,0.45882028341293335,-0.7542966604232788,-9.661458969116211
1745733123.0397906,0.1294848918914795,-0.01965881884098053,-0.2333008348941803,0.5281298160552979,-0.5542890429496765,-9.655252456665039
1745733123.042326,0.14092384278774261,-0.01704215630888939,-0.2327769547700882,0.47831812500953674,-0.6908146739006042,-9.883642196655273
1745733123.0435297,0.117444708943367,-0.019717061892151833,-0.23404717445373535,0.632204532623291,-0.5650225877761841,-9.770207405090332
1745733123.0462663,0.11786670982837677,-0.022097725421190262,-0.2367071658372879,0.4244459271430969,-0.5347599387168884,-9.788182258605957
1745733123.0810506,0.11428910493850708,-0.020881762728095055,-0.23890995979309082,0.5507826805114746,-0.6796466112136841,-9.83241081237793
1745733123.082956,0.11709622293710709,-0.02226950414478779,-0.24034008383750916,0.32392364740371704,-0.2952093482017517,-9.818526268005371
1745733123.085258,0.11876090615987778,-0.019382212311029434,-0.24289560317993164,0.4459066390991211,-0.7253999710083008,-9.76322078704834
1745733123.086992,0.12493109703063965,-0.021337922662496567,-0.24262332916259766,0.4139564633369446,-0.18114399909973145,-9.613912582397461
1745733123.0962458,0.12892773747444153,-0.024663100019097328,-0.2435670793056488,0.4363473951816559,-0.7318950891494751,-9.836858749389648
1745733123.1271763,0.1291361302137375,-0.022205647081136703,-0.2417546957731247,0.567603588104248,-0.45045700669288635,-9.833343505859375
1745733123.1294634,0.13590295612812042,-0.02212425135076046,-0.24532394111156464,0.4112836718559265,-0.5745720267295837,-9.879073143005371
1745733123.1326966,0.09500109404325485,-0.02595389448106289,-0.26471105217933655,0.413383424282074,-0.6353707313537598,-9.586028099060059
1745733123.1386023,0.10054391622543335,-0.014667978510260582,-0.26629748940467834,0.4140215814113617,-0.7475548982620239,-9.787246704101562
1745733123.1679022,0.08599208295345306,-0.02374843880534172,-0.2657281458377838,0.5249585509300232,-0.7502845525741577,-9.85906982421875
1745733123.171022,0.1059950739145279,-0.016935821622610092,-0.2671969532966614,0.3630085587501526,-0.7102230191230774,-9.743852615356445
1745733123.1729524,0.08186551183462143,-0.01945798099040985,-0.2667284905910492,0.525280773639679,-0.8436986207962036,-9.678533554077148
1745733123.1756275,0.0983685702085495,-0.02190070040524006,-0.26884931325912476,0.3265906870365143,-0.6221043467521667,-9.795063018798828
1745733123.210186,0.08109469711780548,-0.016940750181674957,-0.26704269647598267,0.519569993019104,-0.8873327374458313,-9.93444538116455
1745733123.212168,0.0897107869386673,-0.02232055738568306,-0.26774439215660095,0.43120521306991577,-0.7281065583229065,-9.762240409851074
1745733123.21389,0.09215188771486282,-0.01763155683875084,-0.2689289152622223,0.4242616295814514,-0.8797222375869751,-9.682876586914062
1745733123.2159069,0.07252244651317596,-0.025754336267709732,-0.2708899676799774,0.556820273399353,-0.7051512002944946,-9.697542190551758
1745733123.217899,0.09299486130475998,-0.01388684194535017,-0.2694789469242096,0.43119344115257263,-0.9010027050971985,-9.829258918762207
1745733123.255873,0.06713838130235672,-0.019315313547849655,-0.27037936449050903,0.46522951126098633,-0.7441129088401794,-9.796884536743164
1745733123.2600188,0.09126275777816772,-0.020762458443641663,-0.2698187828063965,0.39597806334495544,-0.7985981702804565,-9.728282928466797
1745733123.260107,0.07185496389865875,-0.018768422305583954,-0.26786008477211,0.4269888997077942,-0.8594228625297546,-9.780479431152344
1745733123.26071,0.08247077465057373,-0.02271163836121559,-0.27000394463539124,0.33828306198120117,-0.6186016201972961,-9.829197883605957
1745733123.2955391,0.07460340857505798,-0.01832759752869606,-0.27197521924972534,0.4543301463127136,-0.9236595034599304,-9.810407638549805
1745733123.2987368,0.06990751624107361,-0.019342543557286263,-0.272239625453949,0.42987585067749023,-0.6433805823326111,-9.628560066223145
1745733123.3003147,0.08942994475364685,-0.016512587666511536,-0.2753189504146576,0.47412553429603577,-0.9022228121757507,-9.671716690063477
1745733123.3033795,0.060672830790281296,-0.019799144938588142,-0.2735978960990906,0.5120598077774048,-0.7619516253471375,-9.79644775390625
1745733123.3058414,0.08208208531141281,-0.01377162616699934,-0.2737620770931244,0.4367438852787018,-0.8377453684806824,-9.878809928894043
1745733123.343061,0.06945040822029114,-0.014075572602450848,-0.2730029225349426,0.49023252725601196,-0.8204337358474731,-9.697537422180176
1745733123.3461895,0.06539763510227203,-0.017688801512122154,-0.27827131748199463,0.3498018980026245,-0.5471899509429932,-9.717117309570312
1745733123.3485842,0.07343482971191406,-0.011049659922719002,-0.27727368474006653,0.4074152112007141,-1.0295774936676025,-9.778112411499023
1745733123.3505805,0.07281265407800674,-0.01105824951082468,-0.2785249650478363,0.42971983551979065,-0.507918119430542,-9.575571060180664
1745733123.3846302,0.07617511600255966,-0.015159892849624157,-0.2778117060661316,0.4309653341770172,-1.0173169374465942,-9.74974250793457
1745733123.3869414,0.07182294130325317,-0.012959152460098267,-0.27652889490127563,0.5192112922668457,-0.7896507382392883,-9.771516799926758
1745733123.3908367,0.07614726573228836,-0.010640374384820461,-0.2784739136695862,0.34640252590179443,-0.8381932973861694,-9.836716651916504
1745733123.3929796,0.07091833651065826,-0.01160974521189928,-0.2783060371875763,0.5182143449783325,-0.9870947003364563,-9.71086311340332
1745733123.4263077,0.06632594764232635,-0.01596987247467041,-0.2775673568248749,0.4356871545314789,-0.640430748462677,-9.699422836303711
1745733123.4324036,0.06951333582401276,-0.010625896044075489,-0.27807319164276123,0.48157787322998047,-1.1673269271850586,-9.887543678283691
1745733123.4372683,0.06930378079414368,-0.012381860986351967,-0.2805464565753937,0.32485994696617126,-0.5599386096000671,-9.646980285644531
1745733123.4445477,0.06739682704210281,-0.010141430422663689,-0.2776348292827606,0.41314274072647095,-0.9983184933662415,-9.618388175964355
1745733123.4468997,0.05947241187095642,-0.013921859674155712,-0.28190797567367554,0.522994875907898,-0.842644214630127,-9.604269981384277
1745733123.4690027,0.06581968814134598,-0.011308583430945873,-0.2818773686885834,0.3169613480567932,-0.7817898392677307,-9.862947463989258
1745733123.4712071,0.05681246519088745,-0.012987008318305016,-0.2821475863456726,0.6106418371200562,-1.0099774599075317,-9.858301162719727
1745733123.475168,0.06219494342803955,-0.012042108923196793,-0.27873799204826355,0.35168370604515076,-0.7719182968139648,-9.673139572143555
1745733123.4781172,-0.043419089168310165,-0.05850914865732193,-0.21110384166240692,0.1705094575881958,-1.3838996887207031,-8.452092170715332
1745733123.5110362,-0.03251533955335617,-0.05219755321741104,-0.19760346412658691,-0.019656073302030563,-0.27321457862854004,-9.0551118850708
1745733123.5132465,-0.025230908766388893,-0.06454437226057053,-0.19819124042987823,0.00946882925927639,-0.4160628318786621,-11.032499313354492
1745733123.5161414,0.07141229510307312,-0.05554359033703804,-0.2038678675889969,-0.05241136625409126,0.4270341396331787,-9.96153736114502
1745733123.517291,-0.027618875727057457,-0.054271262139081955,-0.2084992229938507,-0.30726367235183716,-1.0466511249542236,-8.972829818725586
1745733123.554992,0.0595347099006176,-0.08546159416437149,-0.2090771198272705,-0.0050137401558458805,-0.9737230539321899,-9.03458023071289
1745733123.5574129,-0.05487435311079025,-0.060261230915784836,-0.20424027740955353,-0.008797546848654747,-1.2182905673980713,-10.585944175720215
1745733123.559282,-0.04036809876561165,-0.056836534291505814,-0.19765739142894745,0.2616410553455353,-1.891279935836792,-10.393708229064941
1745733123.5629036,-0.04212433844804764,-0.05731172487139702,-0.18419703841209412,0.3750027120113373,-0.9328349828720093,-8.492841720581055
1745733123.598574,-0.13579073548316956,-0.08318354189395905,-0.1775357872247696,0.3230704963207245,-1.6913198232650757,-9.514934539794922
1745733123.600869,-0.049513913691043854,-0.06967159360647202,-0.1732642948627472,0.03344806656241417,-0.4423995018005371,-10.712455749511719
1745733123.6026554,-0.11638425290584564,-0.05775222182273865,-0.174635648727417,0.04047652333974838,-0.8845628499984741,-10.316658020019531
1745733123.604584,-0.04208221286535263,-0.06340589374303818,-0.1711086928844452,-0.2627711296081543,-0.34232115745544434,-8.789527893066406
1745733123.6079338,-0.07523296773433685,-0.08717869967222214,-0.17128649353981018,-0.04770209267735481,-0.43933242559432983,-9.296273231506348
1745733123.6445239,-0.04341729357838631,-0.08021952211856842,-0.16898301243782043,-0.1613231897354126,-0.6465154886245728,-10.746953964233398
1745733123.650953,-0.022498363628983498,-0.04768027737736702,-0.17084462940692902,-0.050540097057819366,-0.502133846282959,-10.040061950683594
1745733123.6510258,-0.0637863278388977,-0.0831390917301178,-0.1670926958322525,0.3187008798122406,-1.1783214807510376,-8.903692245483398
1745733123.6510594,-0.03689102828502655,-0.08764256536960602,-0.16404423117637634,0.26535552740097046,-0.7466301918029785,-9.647295951843262
1745733123.6859012,-0.10084595531225204,-0.06813691556453705,-0.15648584067821503,0.37736350297927856,-1.5327537059783936,-10.911014556884766
1745733123.6923153,-0.0531165711581707,-0.06925429403781891,-0.14638550579547882,0.2192697823047638,-0.8941137194633484,-9.78555679321289
1745733123.6941903,-0.11679080873727798,-0.07334202527999878,-0.1430255025625229,0.34839972853660583,-0.995084285736084,-8.956449508666992
1745733123.6942894,-0.07914958894252777,-0.05622323602437973,-0.1029946431517601,0.05800919979810715,-0.5507599115371704,-9.984060287475586
1745733123.6963768,-0.06402319669723511,-0.05768641084432602,-0.10269452631473541,0.18858741223812103,-0.7106388211250305,-9.603189468383789
1745733123.728541,-0.08600754290819168,-0.0549066886305809,-0.10077419131994247,0.13246077299118042,-0.5969193577766418,-9.681653022766113
1745733123.7331102,-0.06999308615922928,-0.056355156004428864,-0.09959937632083893,-0.10933812707662582,-0.6382150650024414,-10.004971504211426
1745733123.7381034,-0.08737007528543472,-0.04918739199638367,-0.09507191181182861,0.2823936343193054,-0.9439743757247925,-9.798318862915039
1745733123.7432067,-0.07104301452636719,-0.0463995635509491,-0.09071291238069534,0.12344910949468613,-0.6157812476158142,-9.617612838745117
1745733123.7696266,-0.09474902600049973,-0.0418347492814064,-0.08288639783859253,0.1818959265947342,-1.1868436336517334,-9.973573684692383
1745733123.7739825,-0.08606870472431183,-0.04205530881881714,-0.07046621292829514,0.4439501166343689,-0.7782193422317505,-9.773345947265625
1745733123.7781935,-0.08783666789531708,-0.0285227932035923,-0.0636603832244873,0.3742802143096924,-0.9614773988723755,-9.915254592895508
1745733123.7829437,-0.1239585429430008,-0.039412278681993484,-0.057246364653110504,0.33955585956573486,-0.8577529191970825,-9.779613494873047
1745733123.7868216,-0.10895854234695435,-0.029838213697075844,-0.048368051648139954,0.43830209970474243,-0.8460224866867065,-9.78939437866211
1745733123.8140163,-0.1532384753227234,-0.020192980766296387,-0.040567196905612946,0.7435873746871948,-0.8091174960136414,-9.73886489868164
1745733123.8174427,-0.12676610052585602,-0.02267240546643734,-0.030362293124198914,0.5059269666671753,-0.6580796241760254,-10.00510311126709
1745733123.818455,-0.16760225594043732,-0.018913913518190384,-0.02456151880323887,0.7964805960655212,-0.5897367596626282,-9.870914459228516
1745733123.8201659,-0.1478264480829239,-0.01815251260995865,-0.016040053218603134,0.7232603430747986,-0.5089026689529419,-9.767646789550781
1745733123.8609781,-0.18614554405212402,0.06307275593280792,0.13939233124256134,0.4506067633628845,-0.5644029378890991,-9.650552749633789
1745733123.8639746,-0.16462835669517517,0.06765586882829666,0.14623649418354034,0.31234586238861084,-0.30762848258018494,-9.528127670288086
1745733123.867359,-0.18666915595531464,0.06232856586575508,0.15132811665534973,0.4817425608634949,-0.5186237096786499,-9.806551933288574
1745733123.8695588,-0.17018423974514008,0.06303095072507858,0.15731845796108246,0.422750324010849,-0.17038360238075256,-9.85119915008545
1745733123.9007103,-0.17729559540748596,0.07031551748514175,0.15879550576210022,0.5285834074020386,-0.39930659532546997,-9.775386810302734
1745733123.9048724,-0.1836642026901245,0.0599522590637207,0.16211727261543274,0.4350138306617737,-0.07346753031015396,-9.615621566772461
1745733123.9049377,-0.17918142676353455,0.06456347554922104,0.1629398763179779,0.5112420916557312,-0.3356461524963379,-9.714648246765137
1745733123.9064898,-0.1927247941493988,0.06016088277101517,0.16534896194934845,0.6088664531707764,-0.11684320867061615,-9.784908294677734
1745733123.9090412,-0.17661288380622864,0.06554906070232391,0.16956999897956848,0.4740418493747711,-0.12948298454284668,-9.849603652954102
1745733123.9432523,-0.1885964423418045,0.05870021507143974,0.17414838075637817,0.6306761503219604,-0.16259190440177917,-9.725669860839844
1745733123.9459872,-0.16205066442489624,0.05678427219390869,0.17848560214042664,0.4057827889919281,0.002062919782474637,-9.6259765625
1745733123.9478533,-0.1630396544933319,0.06476869434118271,0.18316181004047394,0.5480230450630188,-0.2122301161289215,-9.658357620239258
1745733123.9488847,-0.1502191722393036,0.05444023758172989,0.18824797868728638,0.42311057448387146,0.09445257484912872,-9.800524711608887
1745733123.9859807,-0.1388619989156723,0.058548592031002045,0.19132044911384583,0.47465768456459045,-0.18960630893707275,-9.781240463256836
1745733123.9880512,-0.1457211971282959,0.05489206314086914,0.19428342580795288,0.49723300337791443,-0.0699261873960495,-9.64729118347168
1745733123.9896297,-0.1420910358428955,0.05755647271871567,0.19528213143348694,0.3594280481338501,-0.3032267689704895,-9.724166870117188
1745733123.9934278,-0.16675475239753723,0.05418998748064041,0.1972242295742035,0.5422183275222778,-0.3936517834663391,-9.691072463989258
1745733124.028282,-0.1666753739118576,0.055268995463848114,0.2020035982131958,0.45711594820022583,-0.34199443459510803,-9.67131233215332
1745733124.0332944,-0.19379885494709015,0.055853210389614105,0.2040526419878006,0.6317123174667358,-0.5181474685668945,-9.720354080200195
1745733124.0388062,-0.1973716914653778,0.04776306077837944,0.20928910374641418,0.5189527869224548,-0.11217303574085236,-9.695764541625977
1745733124.0412633,-0.20197096467018127,0.052686404436826706,0.21493558585643768,0.5678162574768066,-0.45162925124168396,-9.79391860961914
1745733124.0493712,-0.17600147426128387,0.028882956132292747,0.24231696128845215,0.5611036419868469,-0.1733597218990326,-9.632234573364258
1745733124.0729716,-0.16314402222633362,0.033940933644771576,0.24606406688690186,0.4679890275001526,-0.1954459249973297,-9.619829177856445
1745733124.075338,-0.19228844344615936,0.029661595821380615,0.250439316034317,0.5787644386291504,-0.14578932523727417,-9.745023727416992
1745733124.0772064,-0.171237975358963,0.024206167086958885,0.251523494720459,0.4343715310096741,0.19237348437309265,-9.769076347351074
1745733124.0809417,-0.18439823389053345,0.026247700676321983,0.25281453132629395,0.5654170513153076,-0.08339183777570724,-9.759872436523438
1745733124.124559,-0.1734911948442459,0.024873340502381325,0.2542673945426941,0.36420148611068726,0.27667436003685,-9.627660751342773
1745733124.1246755,-0.1781623661518097,0.025425110012292862,0.25514036417007446,0.5082708597183228,-0.14095953106880188,-9.63956356048584
1745733124.124725,-0.1805587112903595,0.015606896951794624,0.2587771713733673,0.5766122937202454,0.19908127188682556,-9.681571006774902
1745733124.1268866,-0.16918596625328064,0.023531727492809296,0.2629544734954834,0.5430587530136108,0.04796602204442024,-9.876432418823242
1745733124.1309974,-0.17802147567272186,0.014927377924323082,0.2637779116630554,0.6076401472091675,0.14784307777881622,-9.72121524810791
1745733124.161854,-0.16201750934123993,0.01339787058532238,0.26650893688201904,0.40500393509864807,0.2694820761680603,-9.614992141723633
1745733124.1645324,-0.17088916897773743,0.013154789805412292,0.2686120867729187,0.6717100143432617,0.06962037086486816,-9.65650463104248
1745733124.167317,-0.1549382209777832,0.01155788917094469,0.2695797085762024,0.4720335006713867,0.4014570116996765,-9.83064079284668
1745733124.1696727,-0.15777996182441711,0.009929446503520012,0.27129873633384705,0.47619128227233887,0.08352921903133392,-9.84376049041748
1745733124.2034771,-0.15549251437187195,0.0025128305424004793,0.2720974087715149,0.4663805067539215,0.25429752469062805,-9.566640853881836
1745733124.2135522,-0.16823583841323853,-0.025039684027433395,0.3145295977592468,0.5080360174179077,0.2901286482810974,-9.656807899475098
1745733124.2137887,-0.15365064144134521,-0.02559243142604828,0.3131791353225708,0.4365619122982025,0.5705651044845581,-9.600275039672852
1745733124.2181475,-0.16313287615776062,-0.021872881799936295,0.3165002763271332,0.5523502230644226,0.26162105798721313,-9.946063995361328
1745733124.244534,-0.15786322951316833,-0.027980023995041847,0.3155261278152466,0.3734756112098694,0.5891187787055969,-9.976884841918945
1745733124.2495604,-0.15648040175437927,-0.022784139961004257,0.31464552879333496,0.4955321252346039,0.2062043398618698,-9.720949172973633
1745733124.2508266,-0.1612931191921234,-0.02768237330019474,0.31789612770080566,0.5007537007331848,0.5546475052833557,-9.501337051391602
1745733124.2555363,-0.15964794158935547,-0.026435483247041702,0.3181256651878357,0.39806991815567017,0.2672809064388275,-9.96070384979248
1745733124.285604,-0.16997015476226807,-0.030333125963807106,0.31911182403564453,0.5493205785751343,0.407677561044693,-10.003751754760742
1745733124.2893603,-0.15467675030231476,-0.022590721026062965,0.3222833275794983,0.33127138018608093,0.4377164840698242,-9.691555976867676
1745733124.2941015,-0.1727617233991623,-0.023211698979139328,0.32128897309303284,0.5212692022323608,0.3097101151943207,-9.525632858276367
1745733124.2979128,-0.15947452187538147,-0.030692044645547867,0.32591956853866577,0.41097813844680786,0.5998027920722961,-9.935037612915039
1745733124.2998812,-0.16280241310596466,-0.024978645145893097,0.3232330083847046,0.5106207132339478,0.4111157953739166,-10.122370719909668
1745733124.3333335,-0.1579255759716034,-0.026984235271811485,0.32232463359832764,0.4160321354866028,0.6458103060722351,-9.700828552246094
1745733124.3362265,-0.15359365940093994,-0.02757137641310692,0.32385140657424927,0.36412981152534485,0.4620382785797119,-9.583196640014648
1745733124.3384657,-0.17055350542068481,-0.03295782580971718,0.325599730014801,0.4862009882926941,0.41924038529396057,-9.855244636535645
1745733124.3416688,-0.14136791229248047,-0.02807590365409851,0.32518425583839417,0.4296499192714691,0.5483267903327942,-9.980507850646973
1745733124.3798518,-0.17113664746284485,-0.024952776730060577,0.3277232050895691,0.533373236656189,0.46108514070510864,-9.857573509216309
1745733124.3799603,-0.14642971754074097,-0.032205235213041306,0.3268144726753235,0.3154955506324768,0.7239821553230286,-9.63257884979248
1745733124.3800113,-0.15636101365089417,-0.032004401087760925,0.3270763158798218,0.5230517983436584,0.37591251730918884,-9.73071575164795
1745733124.3800533,-0.15403926372528076,-0.02544179931282997,0.3312411904335022,0.4322482645511627,0.7484786510467529,-9.912821769714355
1745733124.4182148,-0.15040965378284454,-0.029265159741044044,0.33849334716796875,0.4535191059112549,0.6209250092506409,-9.734341621398926
1745733124.420274,-0.1212598904967308,-0.029483214020729065,0.33870190382003784,0.3889147639274597,0.8540433645248413,-9.976568222045898
1745733124.4227192,-0.14257338643074036,-0.027072876691818237,0.3375815153121948,0.534643292427063,0.501186728477478,-9.962748527526855
1745733124.4252899,-0.12161501497030258,-0.025605950504541397,0.33739158511161804,0.31067243218421936,0.8594153523445129,-9.639017105102539
1745733124.4579682,-0.1405893862247467,-0.02816363051533699,0.3399417996406555,0.43457096815109253,0.3526143431663513,-9.67483901977539
1745733124.4610474,-0.13256888091564178,-0.030561286956071854,0.3407627046108246,0.4536767601966858,0.7570289373397827,-9.81627368927002
1745733124.465183,-0.1358441710472107,-0.023239711299538612,0.34165793657302856,0.5134162902832031,0.5016468167304993,-10.011425971984863
1745733124.4686077,-0.13780732452869415,-0.02926349639892578,0.3426204025745392,0.4718303084373474,0.720941424369812,-9.762125015258789
1745733124.4699502,-0.1267118602991104,-0.0248150285333395,0.3432141840457916,0.3342703878879547,0.6816491484642029,-9.645227432250977
1745733124.5032902,-0.1421869397163391,-0.026503344997763634,0.344705730676651,0.532660961151123,0.6083379983901978,-9.688627243041992
1745733124.505285,-0.12647607922554016,-0.02284676767885685,0.34569689631462097,0.35131916403770447,0.791713535785675,-9.92424488067627
1745733124.5148675,-0.1310962438583374,-0.024845315143465996,0.34563928842544556,0.5081173181533813,0.6646460294723511,-9.856812477111816
1745733124.516708,-0.12798306345939636,-0.027147555723786354,0.3464885950088501,0.33861327171325684,0.8402014970779419,-9.6760835647583
1745733124.5442576,-0.1190701276063919,-0.020320525392889977,0.345750629901886,0.44915342330932617,0.6105016469955444,-9.729423522949219
1745733124.5483575,-0.13490326702594757,-0.02435019239783287,0.34551388025283813,0.45321375131607056,0.8655282855033875,-9.756732940673828
1745733124.5511675,-0.11527454853057861,-0.02457711473107338,0.3467652499675751,0.42652249336242676,0.5988126993179321,-9.876279830932617
1745733124.55582,-0.09518487751483917,-0.0248490571975708,0.3517700135707855,0.3817070424556732,0.8943241834640503,-9.732867240905762
1745733124.5587056,-0.09836144745349884,-0.023317735642194748,0.3527352213859558,0.5442280769348145,0.7557529211044312,-9.832026481628418
1745733124.5897512,-0.09710802882909775,-0.02603798545897007,0.35210689902305603,0.37783974409103394,1.0788397789001465,-9.764644622802734
1745733124.5913846,-0.09960220754146576,-0.025321010500192642,0.35131099820137024,0.498156875371933,0.6355419754981995,-9.720711708068848
1745733124.593576,-0.09391119331121445,-0.029516050592064857,0.3512519598007202,0.4207886755466461,1.1166622638702393,-9.568827629089355
1745733124.5949607,-0.09969760477542877,-0.02168470062315464,0.35099542140960693,0.3686524033546448,0.7293380498886108,-9.875603675842285
1745733124.6307073,-0.10090142488479614,-0.03013969399034977,0.35178884863853455,0.5355925559997559,0.933600127696991,-9.683293342590332
1745733124.633407,-0.0838753804564476,-0.024123314768075943,0.35398975014686584,0.3963160812854767,0.9573737382888794,-9.626165390014648
1745733124.63889,-0.09842312335968018,-0.02365601621568203,0.35268014669418335,0.5033474564552307,0.8996586799621582,-9.76756477355957
1745733124.643037,-0.07023178786039352,-0.02945575676858425,0.3530352711677551,0.3446594178676605,1.0572715997695923,-9.861566543579102
1745733124.6441824,-0.08098821341991425,-0.023666244000196457,0.35302475094795227,0.5163063406944275,0.8694015741348267,-9.678047180175781
1745733124.6740544,-0.07036466896533966,-0.02583792246878147,0.35198643803596497,0.3838503360748291,1.0537636280059814,-9.595784187316895
1745733124.677001,-0.07433651387691498,-0.02743425965309143,0.35392794013023376,0.4123530983924866,0.8139716982841492,-9.78400707244873
1745733124.6799748,-0.07979553937911987,-0.030534878373146057,0.3515065312385559,0.43707841634750366,0.9612938165664673,-9.76061725616455
1745733124.6818087,-0.06604433059692383,-0.023273110389709473,0.35218989849090576,0.3976016640663147,0.8787928819656372,-9.670570373535156
1745733124.7173052,-0.09400574862957001,-0.027044732123613358,0.3519981801509857,0.4887428879737854,0.8051325082778931,-9.704214096069336
1745733124.7200468,-0.06818370521068573,-0.029792148619890213,0.3512331545352936,0.38672366738319397,1.0026332139968872,-9.760865211486816
1745733124.7228155,-0.08703029155731201,-0.02753622829914093,0.35145559906959534,0.5352684259414673,0.7700021862983704,-9.755285263061523
1745733124.7267482,-0.07041819393634796,-0.02461620233952999,0.3538520932197571,0.3792575001716614,1.11806321144104,-9.604814529418945
1745733124.7593527,-0.07212311774492264,-0.02558615431189537,0.35608726739883423,0.4210829734802246,0.7793213725090027,-9.746469497680664
1745733124.765428,-0.054728370159864426,-0.033359184861183167,0.3514580726623535,0.500461220741272,0.9452559351921082,-9.68687629699707
1745733124.7661917,-0.032841332256793976,-0.028951838612556458,0.34974345564842224,0.24593794345855713,1.154990792274475,-9.685462951660156
1745733124.767915,-0.0514819398522377,-0.02676435187458992,0.3473171293735504,0.4393077790737152,0.7260482907295227,-9.730836868286133
1745733124.8032541,-0.03981255739927292,-0.03435622528195381,0.3494432866573334,0.3944869637489319,1.0588706731796265,-9.636815071105957
1745733124.8058634,-0.049056101590394974,-0.025622528046369553,0.34960541129112244,0.536113440990448,0.7189370393753052,-9.76130485534668
1745733124.807239,-0.05598095804452896,-0.03246122971177101,0.3517972230911255,0.43071454763412476,1.031321406364441,-9.799674034118652
1745733124.8091779,-0.04411689192056656,-0.027929503470659256,0.3519369065761566,0.3533460199832916,0.8548495173454285,-9.748659133911133
1745733124.8127859,-0.05671806260943413,-0.031475432217121124,0.350509911775589,0.5434693098068237,0.9647268056869507,-9.545525550842285
1745733124.8479743,-0.04379907622933388,-0.026197340339422226,0.35103392601013184,0.325075626373291,1.0274739265441895,-9.779522895812988
1745733124.8525178,-0.0484001599252224,-0.031723786145448685,0.3514208197593689,0.45582181215286255,0.9954427480697632,-9.777730941772461
1745733124.8559694,-0.03658523038029671,-0.03283214941620827,0.35176676511764526,0.32927221059799194,1.1771504878997803,-9.691679000854492
1745733124.8593216,-0.03570988029241562,-0.025864481925964355,0.3499961495399475,0.4415467381477356,0.9366518259048462,-9.726885795593262
1745733124.8890302,-0.03989905118942261,-0.03156495839357376,0.34761372208595276,0.3743109703063965,1.186766266822815,-9.742155075073242
1745733124.8912024,-0.025033384561538696,-0.030595386400818825,0.3483304977416992,0.4089166224002838,0.8058630228042603,-9.792208671569824
1745733124.8943057,-0.04028727859258652,-0.03239323943853378,0.3478047251701355,0.5409977436065674,1.0071216821670532,-9.676228523254395
1745733124.8974764,-0.026507362723350525,-0.027891695499420166,0.3486068844795227,0.36092180013656616,0.8797541856765747,-9.737223625183105
1745733124.8995364,-0.012445420026779175,-0.02822757139801979,0.34105199575424194,0.2707958221435547,1.184923768043518,-9.741357803344727
1745733124.9321892,-0.014559149742126465,-0.02573327347636223,0.3425825238227844,0.480264276266098,0.8351066708564758,-9.76910400390625
1745733124.9342248,-0.008082935586571693,-0.02798105776309967,0.34294945001602173,0.4150964319705963,1.218580961227417,-9.62955379486084
1745733124.9429774,-0.019211404025554657,-0.0240425243973732,0.34180963039398193,0.4201640486717224,0.7431233525276184,-9.895479202270508
1745733124.9471467,-0.01230130810290575,-0.03037441335618496,0.342011421918869,0.48801642656326294,1.0776112079620361,-9.767583847045898
1745733124.9760852,-0.006410104222595692,-0.022347623482346535,0.3439474403858185,0.3855305314064026,0.9287284016609192,-9.65723991394043
1745733124.979885,-0.025273790583014488,-0.026130732148885727,0.34424012899398804,0.45256176590919495,0.9298375844955444,-9.630803108215332
1745733124.9831686,0.0032772929407656193,-0.02932113967835903,0.3465144634246826,0.28663647174835205,1.1296857595443726,-9.8473539352417
1745733124.985808,-0.0015240017091855407,-0.026338636875152588,0.3488225042819977,0.5575359463691711,1.017809510231018,-9.84019947052002
1745733124.98847,0.021429050713777542,-0.037056464701890945,0.33700430393218994,0.4034419655799866,1.901353120803833,-9.74050521850586
1745733125.0191343,0.030898282304406166,-0.06058921292424202,0.3184759020805359,-0.30853837728500366,1.5640376806259155,-10.2924165725708
1745733125.020735,0.0570402666926384,-0.03822411969304085,0.2960571348667145,-0.48739662766456604,1.63909912109375,-9.606082916259766
1745733125.0217652,0.10526736825704575,-0.036991484463214874,0.28763753175735474,-0.5987807512283325,1.3813519477844238,-9.076784133911133
1745733125.024603,0.03979611396789551,-0.057862114161252975,0.27925220131874084,-0.8044722676277161,0.7891704440116882,-9.85443115234375
1745733125.061362,0.14788565039634705,-0.038888294249773026,0.28165560960769653,-0.41925710439682007,0.0913027748465538,-9.894729614257812
1745733125.0636995,0.050477832555770874,-0.015755031257867813,0.2866089642047882,-0.07255516201257706,0.4817400574684143,-9.326940536499023
1745733125.0649786,0.04250910505652428,-0.05941757559776306,0.2881039083003998,0.23170867562294006,-0.3082263171672821,-9.728601455688477
1745733125.066935,0.04061802104115486,-0.05982086807489395,0.2843170166015625,0.6634019613265991,0.08521103858947754,-10.176630020141602
1745733125.1037555,-0.05718662217259407,-0.0433894507586956,0.277818500995636,-0.14918763935565948,0.3028779625892639,-10.525574684143066
1745733125.1079407,-0.06842862069606781,-0.05495826154947281,0.2674381136894226,-0.01867033541202545,0.09792639315128326,-9.199286460876465
1745733125.1129656,0.07013143599033356,-0.08626523613929749,0.20807738602161407,0.4283662736415863,0.6708521842956543,-9.561319351196289
1745733125.116902,0.022288495674729347,-0.10599584877490997,0.1842476725578308,-0.1375589817762375,0.2560792565345764,-10.370428085327148
1745733125.1197143,0.06644962728023529,-0.05044058710336685,0.18243758380413055,-0.0866163969039917,0.183149054646492,-9.636407852172852
1745733125.1483996,-0.08124615252017975,-0.058527469635009766,0.1926691234111786,-0.034785736352205276,0.6898252367973328,-8.87013053894043
1745733125.1521475,0.024578843265771866,-0.10961298644542694,0.2069743573665619,0.1462090015411377,-0.1834120899438858,-10.038410186767578
1745733125.155413,0.030229587107896805,-0.044431500136852264,0.2232431173324585,0.02673448622226715,1.41128671169281,-10.643869400024414
1745733125.157667,0.004963247571140528,-0.031436871737241745,0.21708270907402039,-0.21957774460315704,1.209421157836914,-9.55291748046875
1745733125.1918306,0.08081953972578049,-0.09452643245458603,0.20671288669109344,0.5863872766494751,1.6870028972625732,-8.380209922790527
1745733125.1945632,0.11356331408023834,-0.07273001223802567,0.19575856626033783,0.33281055092811584,2.183316707611084,-10.467123031616211
1745733125.1962717,0.09029479324817657,-0.04594730585813522,0.19655784964561462,-0.05278609320521355,0.5527715086936951,-11.71929931640625
1745733125.203235,0.13194139301776886,-0.04479118436574936,0.20529499650001526,0.13568072021007538,0.3519642949104309,-8.54586410522461
1745733125.2335887,0.06429838389158249,-0.04147772863507271,0.22158662974834442,1.025286078453064,0.11342041194438934,-7.505914211273193
1745733125.236665,-0.0019058294128626585,-0.07436523586511612,0.23754481971263885,1.1925703287124634,0.2842139005661011,-11.038956642150879
1745733125.2392683,0.06689487397670746,-0.03750365227460861,0.23526053130626678,1.1188268661499023,1.0786677598953247,-12.033075332641602
1745733125.2426023,0.010214953683316708,-0.03275030106306076,0.23093879222869873,0.8816825151443481,1.4722988605499268,-8.922320365905762
1745733125.2468426,0.037004515528678894,-0.058895476162433624,0.2327495813369751,0.3841160833835602,1.4234434366226196,-8.181608200073242
1745733125.2777328,0.0654667392373085,-0.05503140017390251,0.20581743121147156,-0.40386009216308594,-0.034243978559970856,-9.41612434387207
1745733125.280555,0.0425298810005188,-0.051377009600400925,0.2131570279598236,-0.4547710418701172,-0.2350403070449829,-9.64964485168457
1745733125.28186,0.009504455141723156,-0.05906081944704056,0.2251928746700287,-0.39725154638290405,-0.08321751654148102,-10.091711044311523
1745733125.2836795,0.03190482407808304,-0.044696010649204254,0.23658935725688934,-0.6024338006973267,0.37496620416641235,-10.022553443908691
1745733125.3216605,-0.001248603337444365,-0.04870685189962387,0.24111053347587585,-0.3600817322731018,0.6098359823226929,-9.347345352172852
1745733125.3285177,0.07630964368581772,-0.04748648405075073,0.23491919040679932,-0.5169496536254883,1.3961045742034912,-9.311997413635254
1745733125.3309295,0.03188050165772438,-0.05218581482768059,0.22915148735046387,-0.023634281009435654,0.9991124272346497,-10.105175018310547
1745733125.333765,0.11148375272750854,-0.04525671899318695,0.22321060299873352,-0.15219606459140778,1.1864711046218872,-10.320236206054688
1745733125.3643062,0.0902165025472641,-0.043761204928159714,0.22185833752155304,-0.2644746005535126,0.9629650115966797,-9.527883529663086
1745733125.367576,0.07123648375272751,-0.05093051865696907,0.2249460220336914,-0.08015100657939911,0.3567931056022644,-9.319429397583008
1745733125.3676324,0.11320587247610092,-0.04514956474304199,0.22639751434326172,-0.04267211630940437,0.9981538653373718,-9.854743003845215
1745733125.3705487,0.06827203184366226,-0.05511937290430069,0.22537580132484436,0.04600553587079048,0.9164668917655945,-10.344823837280273
1745733125.3706136,0.12345049530267715,-0.04022909328341484,0.2162609100341797,-0.41235771775245667,1.1519275903701782,-9.978357315063477
1745733125.408458,0.14266915619373322,-0.051986705511808395,0.2154724895954132,0.13565871119499207,0.9128559827804565,-9.160931587219238
1745733125.4105756,0.1449943482875824,-0.07700464874505997,0.21389493346214294,-0.048732779920101166,1.3560130596160889,-9.897439002990723
1745733125.4135756,0.21096253395080566,0.016803909093141556,0.20384280383586884,-0.039751600474119186,0.9284766912460327,-10.219067573547363
1745733125.4167516,0.22652220726013184,-0.05651579424738884,0.19590044021606445,0.16763192415237427,1.4406249523162842,-9.060667037963867
1745733125.449679,0.19430343806743622,-0.03205643966794014,0.1941138058900833,0.6900736093521118,-0.28251633048057556,-9.914520263671875
1745733125.4518797,0.273022323846817,-0.01610955037176609,0.19960930943489075,-0.4785073697566986,0.491793155670166,-10.82885456085205
1745733125.4537365,0.1776096075773239,-0.04968835040926933,0.20268256962299347,0.2443142831325531,-0.4109651446342468,-9.21513557434082
1745733125.4562678,0.33352145552635193,0.046866219490766525,0.09281505644321442,0.14651957154273987,-1.6920979022979736,-7.89981746673584
1745733125.4595938,0.26929670572280884,0.02109847031533718,0.10108019411563873,0.17219702899456024,-0.1895761489868164,-8.522978782653809
1745733125.492009,0.19568753242492676,0.05011991411447525,0.07515822350978851,0.2667308449745178,0.15945497155189514,-11.70641803741455
1745733125.4931564,0.2591489255428314,0.07738782465457916,0.04498591646552086,0.638674259185791,1.0753639936447144,-10.18586540222168
1745733125.4943166,0.16192933917045593,0.06748639047145844,0.01722218655049801,0.6556532979011536,0.6595165729522705,-7.969635963439941
1745733125.4972923,0.1765253245830536,0.02333652414381504,0.011752045713365078,1.7105786800384521,-1.0985037088394165,-9.93178939819336
1745733125.5411127,0.14751708507537842,0.04586527869105339,0.028855320066213608,0.12093944847583771,-0.25426554679870605,-12.28049087524414
1745733125.5414484,0.13291186094284058,0.10384128242731094,0.04813932999968529,-0.29540586471557617,-1.459191083908081,-10.02344036102295
1745733125.5466957,0.15914949774742126,0.08183462917804718,0.055955030024051666,0.6192196607589722,1.0558674335479736,-6.077877521514893
1745733125.5488763,0.1366015374660492,0.04493787884712219,0.04469124227762222,0.4257547855377197,1.0843690633773804,-9.991378784179688
1745733125.5801687,0.27725130319595337,0.0746682658791542,0.01805191859602928,0.6735202670097351,2.6596155166625977,-12.757707595825195
1745733125.5822515,0.2894774079322815,0.10180338472127914,-0.007699787616729736,0.2023111879825592,1.1375277042388916,-10.572698593139648
1745733125.5851877,0.3168105185031891,0.07253729552030563,-0.018096143379807472,0.16439589858055115,0.002579033374786377,-7.057825565338135
1745733125.588977,0.2368127405643463,0.05640297383069992,-0.014949962496757507,0.44348305463790894,-0.4101771414279938,-8.763572692871094
1745733125.6201952,0.21709366142749786,0.08495216071605682,-0.007530388422310352,0.7346125841140747,-0.8473910093307495,-12.440327644348145
1745733125.6233525,0.25493496656417847,0.11841213703155518,-0.008660707622766495,0.6331538558006287,0.6712860465049744,-10.132467269897461
1745733125.6305032,0.20458507537841797,0.07966576516628265,-0.12969602644443512,0.46269431710243225,-0.4060865342617035,-9.490523338317871
1745733125.6333342,0.21010231971740723,0.07929560542106628,-0.1298539638519287,0.6424189209938049,0.10384558141231537,-9.784611701965332
1745733125.6333807,0.23136992752552032,0.07850117981433868,-0.12923380732536316,0.600685715675354,-0.15429505705833435,-9.918841361999512
1745733125.6656833,0.24920733273029327,0.07256658375263214,-0.13430121541023254,0.6957595944404602,0.09545473754405975,-9.57369327545166
1745733125.6674936,0.2505892515182495,0.06947655975818634,-0.13943397998809814,0.46705618500709534,0.17412739992141724,-9.62834644317627
1745733125.6700416,0.26886793971061707,0.07246701419353485,-0.14210693538188934,0.6285308003425598,-0.3750266134738922,-9.695962905883789
1745733125.672621,0.2486816942691803,0.06160543113946915,-0.14956507086753845,0.5155449509620667,0.027515795081853867,-9.635087013244629
1745733125.7073836,0.24451656639575958,0.060865871608257294,-0.1526295691728592,0.6954914927482605,-0.7593763470649719,-9.869390487670898
1745733125.7122643,0.2268216907978058,0.05878283828496933,-0.15434683859348297,0.6016093492507935,-0.3118942379951477,-9.615002632141113
1745733125.7158375,0.21368148922920227,0.05612434074282646,-0.16037538647651672,0.6788508296012878,-0.6819435954093933,-9.595548629760742
1745733125.727194,0.19092746078968048,0.044144295156002045,-0.16055060923099518,0.8851858973503113,-0.5381753444671631,-9.781198501586914
1745733125.7278018,0.18781927227973938,0.044282443821430206,-0.16257968544960022,0.5720587968826294,-0.45696377754211426,-10.003436088562012
1745733125.75199,0.1912960708141327,0.04940614104270935,-0.16311874985694885,0.6250202655792236,-0.5742841362953186,-9.650151252746582
1745733125.7546897,0.1830766499042511,0.04228682070970535,-0.16278484463691711,0.34001103043556213,-0.12302138656377792,-9.223082542419434
1745733125.7561452,0.1916690170764923,0.03787966072559357,-0.16815558075904846,0.5885535478591919,-0.6105539202690125,-9.671968460083008
1745733125.7576318,0.19972503185272217,0.03636503964662552,-0.16892580687999725,0.4843842387199402,0.12518398463726044,-10.031049728393555
1745733125.8023164,0.19945044815540314,0.035311318933963776,-0.17591676115989685,0.5636414885520935,-0.5308340191841125,-9.87279224395752
1745733125.804148,0.20459508895874023,0.03234156221151352,-0.17901985347270966,0.7329821586608887,-0.29805928468704224,-9.250701904296875
1745733125.8086312,0.18245160579681396,0.020614203065633774,-0.18082574009895325,0.6601967215538025,-0.5983994603157043,-9.620080947875977
1745733125.8103044,0.1713351309299469,0.021354621276259422,-0.18115100264549255,0.820801854133606,-0.7665726542472839,-10.128599166870117
1745733125.836937,0.11964239180088043,-0.014829563908278942,-0.20774579048156738,0.6767639517784119,-0.4250656068325043,-10.034891128540039
1745733125.8383985,0.12114478647708893,-0.009161143563687801,-0.21115708351135254,0.5143177509307861,-0.6863090395927429,-9.917440414428711
1745733125.8411043,0.10820100456476212,-0.01813606172800064,-0.21575546264648438,0.650464653968811,-0.5495045781135559,-9.305868148803711
1745733125.8423836,0.10988479852676392,-0.022928331047296524,-0.21389393508434296,0.43436890840530396,-0.39006882905960083,-9.554835319519043
1745733125.8801067,0.10977033525705338,-0.01918623596429825,-0.2164369523525238,0.6811739206314087,-0.679003894329071,-10.134980201721191
1745733125.8919528,0.13422450423240662,-0.017282914370298386,-0.21660296618938446,0.43864449858665466,-0.12380051612854004,-9.879493713378906
1745733125.892054,0.1304350644350052,-0.02381911687552929,-0.21979856491088867,0.641161322593689,-0.6857404112815857,-9.554243087768555
1745733125.8921022,0.14719946682453156,-0.02981058694422245,-0.21920888125896454,0.616381824016571,-0.2613608241081238,-9.58036994934082
1745733125.892144,0.13949771225452423,-0.028152141720056534,-0.22253377735614777,0.5076326131820679,-0.7884114384651184,-10.097392082214355
1745733125.921195,0.13622865080833435,-0.02952623926103115,-0.22293642163276672,0.648600161075592,-0.6402616500854492,-9.7678861618042
1745733125.923447,0.12917205691337585,-0.027534961700439453,-0.22476276755332947,0.5331028699874878,-0.7603448033332825,-9.514885902404785
1745733125.9253254,0.10347957909107208,-0.03763561695814133,-0.22602994740009308,0.7124963998794556,-0.9413999319076538,-9.737358093261719
1745733125.9269664,0.10346895456314087,-0.03934734687209129,-0.23193922638893127,0.5116835832595825,-0.5129402279853821,-9.987998008728027
1745733125.9668,0.08316359668970108,-0.0331609807908535,-0.22785648703575134,0.7085424661636353,-0.9644304513931274,-9.970906257629395
1745733125.9698308,0.10774389654397964,-0.04630335047841072,-0.22171911597251892,0.18918940424919128,-0.6267985105514526,-9.576711654663086
1745733125.9716723,0.09698072820901871,-0.0400020107626915,-0.2146453857421875,-0.1616373360157013,-0.8835357427597046,-9.693683624267578
1745733125.9751532,-0.022361313924193382,-0.10843484103679657,-0.1281946897506714,0.2531377971172333,-0.4260683059692383,-9.549156188964844
1745733125.9799802,-0.026043226942420006,-0.10199876874685287,-0.12626509368419647,0.27365031838417053,-1.0802280902862549,-11.057744979858398
1745733126.010482,-0.014170405454933643,-0.08414192497730255,-0.11966945230960846,-0.08887989819049835,-0.45648282766342163,-10.073537826538086
1745733126.0118887,-0.0610467866063118,-0.09307505935430527,-0.11263982951641083,0.43340864777565,-1.2797918319702148,-8.66911506652832
1745733126.0124824,-0.026358267292380333,-0.10642796754837036,-0.11043667793273926,0.03897756338119507,-0.2175332009792328,-9.549642562866211
1745733126.0143356,-0.07835866510868073,-0.08664864301681519,-0.10924039036035538,0.03534751385450363,-0.7697059512138367,-11.050402641296387
1745733126.0565479,-0.043731994926929474,-0.08584147691726685,-0.10644272714853287,0.38358113169670105,-0.4467739164829254,-9.83745288848877
1745733126.0566757,-0.05256390571594238,-0.08578215539455414,-0.10702232271432877,0.2781478762626648,-0.41459012031555176,-8.986607551574707
1745733126.0567698,-0.06892239302396774,-0.10009851306676865,-0.10062617063522339,0.29488229751586914,-0.7128572463989258,-10.047246932983398
1745733126.0609403,-0.044079843908548355,-0.08764877170324326,-0.09092701971530914,0.24597744643688202,-0.5291210412979126,-10.57575798034668
1745733126.1008224,-0.0600186362862587,-0.06589154154062271,-0.08642487227916718,0.37460941076278687,-0.8458880186080933,-9.654037475585938
1745733126.1009457,-0.04642413184046745,-0.08543619513511658,-0.07837995141744614,0.19951169192790985,-0.16114768385887146,-9.0266752243042
1745733126.101024,-0.05543513223528862,-0.08439183235168457,-0.07643585652112961,0.31192317605018616,-0.6566548347473145,-10.17068099975586
1745733126.1013749,-0.023890549317002296,-0.07154683023691177,-0.07482816278934479,0.19052624702453613,0.18346622586250305,-10.51939582824707
1745733126.1039517,-0.043028272688388824,-0.06435136497020721,-0.0767354667186737,0.11560297012329102,-0.6085999608039856,-9.767946243286133
1745733126.1409688,-0.01306978054344654,-0.07637222111225128,-0.07467100769281387,0.16907308995723724,-0.25196799635887146,-9.109271049499512
1745733126.1432502,-0.04345698654651642,-0.07238580286502838,-0.07100619375705719,0.04022041708230972,-0.7199127078056335,-10.074190139770508
1745733126.146725,-0.03136998414993286,-0.058861732482910156,-0.0665944293141365,0.1963702291250229,-0.8826924562454224,-10.387337684631348
1745733126.1518793,-0.04924280568957329,-0.05322616547346115,-0.06314932554960251,0.18494543433189392,-0.5775951743125916,-9.519332885742188
1745733126.1791508,-0.0655495747923851,-0.05814848095178604,-0.05392574146389961,0.28624242544174194,-1.2183607816696167,-9.524890899658203
1745733126.182109,-0.03967345878481865,-0.0009336624061688781,0.03306068107485771,0.3208845853805542,-0.055514562875032425,-9.404682159423828
1745733126.1841996,0.002427790779620409,0.0055343336425721645,0.0364551916718483,0.2508999705314636,0.027155185118317604,-9.735310554504395
1745733126.1842425,-0.024913832545280457,0.008552244864404202,0.041773539036512375,0.5138245820999146,-0.5255563855171204,-10.163208961486816
1745733126.225053,0.007699503563344479,0.016032202169299126,0.047392837703228,0.3648838996887207,-0.4197450280189514,-9.77332592010498
1745733126.2279282,-0.04322236031293869,0.025809437036514282,0.05124078318476677,0.44411373138427734,-1.1034576892852783,-9.491241455078125
1745733126.2309108,-0.06008271500468254,0.02129567414522171,0.062064915895462036,0.5197266340255737,-1.0297448635101318,-9.65369987487793
1745733126.2326646,-0.10202084481716156,0.034667640924453735,0.07004190236330032,0.5257214903831482,-1.390251636505127,-10.101011276245117
1745733126.2339382,-0.12536582350730896,0.03542625159025192,0.08470014482736588,0.5202834010124207,-1.0698521137237549,-9.88825798034668
1745733126.2668107,-0.14750632643699646,0.028637472540140152,0.08400826156139374,0.49279317259788513,-0.31840091943740845,-9.54853343963623
1745733126.2714565,-0.16729113459587097,0.009583144448697567,0.06781719624996185,-0.2365807592868805,0.0372152142226696,-10.201913833618164
1745733126.2745655,-0.13161137700080872,0.0308535099029541,0.050865523517131805,-0.42402929067611694,0.49387532472610474,-9.662393569946289
1745733126.2785196,-0.08799339830875397,0.02384260483086109,0.042321257293224335,-0.3813624978065491,0.26524409651756287,-9.485502243041992
1745733126.323,-0.08107262849807739,0.010494397953152657,0.033659011125564575,-0.9630312919616699,0.2837396264076233,-9.930289268493652
1745733126.3230703,-0.04932177811861038,0.038851507008075714,0.04179298132658005,-0.5200940370559692,-1.2995946407318115,-9.654912948608398
1745733126.3231144,-0.0588255412876606,0.05213313549757004,0.05607348680496216,-0.048187799751758575,-0.5814995169639587,-9.018320083618164
1745733126.3271594,-0.06189143657684326,0.025480950251221657,0.058609046041965485,0.30897822976112366,-1.1741230487823486,-9.941760063171387
1745733126.3286078,-0.06313709914684296,-0.011805596761405468,0.02371981367468834,0.13908343017101288,0.09687139838933945,-9.41675090789795
1745733126.3584647,-0.050819091498851776,-0.005465534515678883,0.024251457303762436,0.270402729511261,-0.23893041908740997,-10.178534507751465
1745733126.3620753,-0.09183581918478012,-0.003765115048736334,0.02753143012523651,0.5778517127037048,-0.6917017698287964,-10.029671669006348
1745733126.362304,-0.09629988670349121,-0.012737391516566277,0.028711121529340744,0.43620648980140686,-0.326543390750885,-9.425070762634277
1745733126.3645837,-0.12734676897525787,-0.015545378439128399,0.030229896306991577,0.5270631909370422,-0.5833867788314819,-9.595273971557617
1745733126.3977704,-0.1284560263156891,-0.021051878109574318,0.030555326491594315,0.277893990278244,-0.02468549646437168,-10.098079681396484
1745733126.3995576,-0.11621735990047455,-0.013114583678543568,0.027788346633315086,0.03807952255010605,-0.07866300642490387,-10.050241470336914
1745733126.4043689,-0.11261500418186188,-0.018138932064175606,0.030219698324799538,-0.13075077533721924,0.19174645841121674,-9.352819442749023
1745733126.4065263,-0.07782957702875137,-0.018824009224772453,0.027167296037077904,-0.4024399220943451,0.15596798062324524,-9.383096694946289
1745733126.4398358,-0.08002857118844986,-0.012641742825508118,0.0273304246366024,-0.10274388641119003,0.05611256882548332,-9.807232856750488
1745733126.4425635,-0.0510074719786644,-0.012694062665104866,0.028139788657426834,0.1011967882514,0.08244381844997406,-9.805662155151367
1745733126.4447033,-0.05701904371380806,-0.014152036979794502,0.028849029913544655,0.38675013184547424,-0.3981277346611023,-9.745635986328125
1745733126.449325,-0.07660017907619476,-0.01895495504140854,0.02957104705274105,0.3693191111087799,-0.2150355875492096,-9.771080017089844
1745733126.449433,-0.08753594011068344,-0.013413945212960243,0.030085623264312744,0.45394402742385864,-0.71037757396698,-9.906967163085938
1745733126.4865308,-0.11655674874782562,-0.022279202938079834,0.031884245574474335,0.36677342653274536,-0.26512736082077026,-9.743354797363281
1745733126.4889615,-0.12823596596717834,-0.014926972799003124,0.03150098770856857,0.19993586838245392,-0.32480892539024353,-9.733484268188477
1745733126.4931757,-0.13806430995464325,-0.02421892248094082,0.029340464621782303,0.1754884272813797,0.2127622663974762,-9.704632759094238
1745733126.4973512,-0.11346070468425751,-0.021773304790258408,0.025506382808089256,-0.0015962145989760756,0.40257030725479126,-9.736328125
1745733126.5265217,-0.107479989528656,-0.02054494619369507,0.02277921512722969,0.10131289809942245,0.3753364682197571,-9.828153610229492
1745733126.5288727,-0.058285780251026154,-0.023377522826194763,0.020742887631058693,0.002854306250810623,0.620773434638977,-9.780903816223145
1745733126.5302956,-0.05529988557100296,-0.013395821675658226,0.017906952649354935,0.39098459482192993,0.3168548047542572,-9.773330688476562
1745733126.532901,-0.04009247198700905,-0.01285657286643982,0.019327986985445023,0.39685893058776855,0.5057114362716675,-9.796878814697266
1745733126.5672433,0.0009546272340230644,-0.01261080987751484,0.014277225360274315,0.16167113184928894,0.4904385507106781,-9.908164024353027
1745733126.568625,0.0025127134285867214,-0.00907578133046627,0.012635266408324242,0.3100932240486145,0.05160006135702133,-9.745930671691895
1745733126.5711193,0.012297997251152992,-0.005084771662950516,0.009043555706739426,0.10628501325845718,0.24495208263397217,-9.605295181274414
1745733126.5724442,-0.004695853218436241,-0.007236741483211517,0.004702611360698938,0.4175570607185364,-0.4437587857246399,-9.818660736083984
1745733126.5743368,-0.03171730786561966,-0.008656025864183903,-0.000738900329452008,0.40240582823753357,0.07077380269765854,-9.934953689575195
1745733126.6121466,-0.02754439041018486,-0.0015436675166711211,-0.002925741719081998,0.30144715309143066,-0.4168756604194641,-9.986369132995605
1745733126.6143057,-0.06941656768321991,-0.006392596755176783,-0.0072106183506548405,0.4474407732486725,-0.24682733416557312,-9.604548454284668
1745733126.621235,-0.06668370217084885,-0.0009731609607115388,-0.0099622942507267,0.36290937662124634,-0.16905485093593597,-9.791391372680664
1745733126.6213455,-0.07836856693029404,-0.006756381131708622,-0.009247297421097755,0.5342305898666382,-0.1552065908908844,-10.005596160888672
1745733126.6563592,-0.04683250933885574,0.00852784514427185,-0.01157106552273035,0.07659953832626343,0.5161876678466797,-9.914396286010742
1745733126.658068,-0.030570561066269875,0.008625960908830166,-0.019354576244950294,0.6031383872032166,0.18956615030765533,-9.473992347717285
1745733126.6610413,0.0017822794616222382,0.0027674378361552954,-0.022386666387319565,0.5737124085426331,0.6836581230163574,-9.698097229003906
1745733126.6629214,0.018290802836418152,0.0080284234136343,-0.03276108205318451,0.5762250423431396,0.2627216875553131,-10.36213207244873
1745733126.6668255,0.04062824696302414,0.02162412367761135,-0.0402701273560524,0.41765183210372925,0.39659643173217773,-9.99370288848877
1745733126.6963143,0.07834421098232269,0.06927545368671417,-0.1325870305299759,0.43880048394203186,-0.21673496067523956,-10.330699920654297
1745733126.6975892,0.08931542932987213,0.07244298607110977,-0.13850289583206177,0.4594077169895172,0.3987003564834595,-10.00229549407959
1745733126.7022703,0.08853444457054138,0.05836229398846626,-0.137225940823555,0.45867791771888733,-0.34517553448677063,-9.608419418334961
1745733126.7047126,0.08676779270172119,0.04129951447248459,-0.13161920011043549,0.4137577414512634,0.07260952144861221,-9.564922332763672
1745733126.742732,0.11183271557092667,0.06039652228355408,-0.12358766794204712,0.2952841818332672,-0.5946347117424011,-10.088967323303223
1745733126.7454607,0.10532233864068985,0.05525081232190132,-0.1146204024553299,0.33052295446395874,0.003398811910301447,-9.700121879577637
1745733126.7480068,0.12750358879566193,0.047408487647771835,-0.1119486466050148,0.2686578631401062,0.05876404792070389,-9.506318092346191
1745733126.7510543,0.14033977687358856,0.0429798886179924,-0.11512857675552368,0.31228166818618774,0.17366933822631836,-9.78571605682373
1745733126.7822223,0.1460806280374527,0.04154839366674423,-0.12290861457586288,0.17755290865898132,0.1771194040775299,-9.973005294799805
1745733126.7845857,0.14289428293704987,0.041699014604091644,-0.1252439171075821,0.3937782645225525,-0.5599285364151001,-9.798210144042969
1745733126.7860136,0.10794273763895035,0.03184456750750542,-0.1251978576183319,0.2845662534236908,-0.41388773918151855,-9.468482971191406
1745733126.788294,0.10190363973379135,0.03968869522213936,-0.1216541975736618,0.3714579641819,-0.925320029258728,-9.723136901855469
1745733126.7897575,0.0582842156291008,0.032705988734960556,-0.11654092371463776,0.5854479074478149,-0.5573889017105103,-9.718667984008789
1745733126.8284426,0.06695765256881714,0.03598395362496376,-0.11369305849075317,0.499845027923584,-0.5585488080978394,-9.857738494873047
