timestamp,angular_vel_x,angular_vel_y,angular_vel_z,linear_acc_x,linear_acc_y,linear_acc_z
1745669121.774259,0.05793621391057968,0.08381838351488113,-0.1998346894979477,0.8349876403808594,-0.5516557693481445,-9.64112377166748
1745669121.7743104,0.060493580996990204,0.0836028903722763,-0.20298931002616882,0.6763342618942261,-0.747817873954773,-9.529226303100586
1745669121.7743514,-0.02096664160490036,0.0002890380274038762,-0.30151933431625366,0.7995577454566956,-0.5614231824874878,-9.808792114257812
1745669121.7744038,0.003496407764032483,-0.00027830153703689575,-0.303963840007782,0.8288280367851257,-0.7291735410690308,-9.873817443847656
1745669121.7852376,0.02328806184232235,-0.013181885704398155,-0.3023466467857361,1.0234419107437134,-0.34963083267211914,-9.55073356628418
1745669121.7853925,0.00704790186136961,-0.004084572661668062,-0.3064752519130707,0.8064689636230469,-0.4182751178741455,-9.870646476745605
1745669121.7878406,0.04637531563639641,-0.013643397018313408,-0.30803102254867554,1.029013991355896,-0.5880171060562134,-9.88847827911377
1745669121.7894359,0.03378094360232353,-0.016473393887281418,-0.30895933508872986,0.8831856846809387,-0.391173779964447,-9.658607482910156
1745669121.7916787,0.03480400890111923,-0.01617524027824402,-0.31132200360298157,0.9951443672180176,-0.8225002288818359,-9.711572647094727
1745669121.8273761,0.029386436566710472,-0.0330720916390419,-0.31427907943725586,1.0299005508422852,-0.7255309224128723,-9.79560661315918
1745669121.8317194,0.01999371312558651,-0.02365696057677269,-0.3156183660030365,1.0035974979400635,-0.7765277624130249,-9.918989181518555
1745669121.8344686,-0.01024913601577282,-0.03510833531618118,-0.318169504404068,1.080983281135559,-0.907383918762207,-9.746789932250977
1745669121.8445096,0.010637163184583187,-0.03856812044978142,-0.3191278874874115,0.8867257833480835,-0.5756060481071472,-9.573430061340332
1745669121.8677967,-0.018189361318945885,-0.03617914021015167,-0.32052090764045715,0.9086225628852844,-0.6756373643875122,-9.765775680541992
1745669121.8700755,-0.0030220516491681337,-0.04132302477955818,-0.323782742023468,0.7444260120391846,-0.6538290977478027,-9.924049377441406
1745669121.8736093,0.023896485567092896,-0.0408867709338665,-0.3254784643650055,0.9492920637130737,-0.31155771017074585,-9.539794921875
1745669121.8771029,-0.006875375751405954,-0.04525270313024521,-0.3260944187641144,0.8163691759109497,-0.7301843166351318,-9.788884162902832
1745669121.880945,0.04543318971991539,-0.041777901351451874,-0.32454633712768555,0.7871797680854797,-0.4563143849372864,-9.819498062133789
1745669121.9181662,0.016674503684043884,-0.052066754549741745,-0.32661908864974976,0.993759274482727,-0.6198005676269531,-9.725786209106445
1745669121.919232,0.02842729724943638,-0.0493709035217762,-0.3264339566230774,0.7285106182098389,-0.6811040639877319,-9.79061508178711
1745669121.9226122,0.028059085831046104,-0.05944495648145676,-0.33017799258232117,1.1242284774780273,-0.741133987903595,-9.672348976135254
1745669121.926145,0.007451398763805628,-0.06085082143545151,-0.32996666431427,0.9205695986747742,-0.7108210325241089,-9.923688888549805
1745669121.952289,-0.00045149587094783783,-0.05850212648510933,-0.33339396119117737,1.0060532093048096,-0.8517521619796753,-9.840479850769043
1745669121.9541237,0.0005530364578589797,-0.07001850754022598,-0.33330366015434265,0.9704593420028687,-0.7227779030799866,-9.611669540405273
1745669121.9564958,-0.016133293509483337,-0.06300563365221024,-0.3346666097640991,0.7228309512138367,-0.5551084280014038,-9.777975082397461
1745669121.9597108,0.005994475446641445,-0.07328011095523834,-0.3401995003223419,0.9305258989334106,-0.7547057867050171,-9.859414100646973
1745669121.9977012,0.035068076103925705,-0.0740593895316124,-0.339138001203537,0.6809712052345276,-0.3420437276363373,-9.794835090637207
1745669122.0007,0.02160177193582058,-0.07164766639471054,-0.3385220170021057,0.8646939992904663,-0.6976324915885925,-9.763071060180664
1745669122.0029268,0.030281852930784225,-0.08289827406406403,-0.34096387028694153,0.8133596181869507,-0.7687253355979919,-9.715720176696777
1745669122.007557,0.025048602372407913,-0.07669561356306076,-0.3385375440120697,0.8031377792358398,-0.6382060050964355,-9.727727890014648
1745669122.010307,0.010001749731600285,-0.08376838266849518,-0.341233491897583,0.9899334907531738,-0.946394145488739,-9.883285522460938
1745669122.0398238,0.004547554068267345,-0.07856526225805283,-0.3452003598213196,0.7572808861732483,-0.5228989720344543,-9.742788314819336
1745669122.0423462,-0.0022832495160400867,-0.08501062542200089,-0.34594571590423584,0.986336886882782,-0.8543272018432617,-9.644783973693848
1745669122.046201,-0.01888340339064598,-0.08597220480442047,-0.3477705121040344,0.6946194171905518,-0.5892693400382996,-9.817312240600586
1745669122.0481606,0.005961940623819828,-0.08147100359201431,-0.35121649503707886,0.7773212194442749,-0.6847547292709351,-9.865033149719238
1745669122.08519,-0.005028082057833672,-0.08966439962387085,-0.3484051823616028,0.7803969979286194,-0.4292132258415222,-9.596216201782227
1745669122.085738,0.01188953872770071,-0.07961566746234894,-0.3496178984642029,0.7107164263725281,-0.5100335478782654,-9.670670509338379
1745669122.0884068,0.026143286377191544,-0.08517410606145859,-0.34664812684059143,0.8064993023872375,-0.4875132143497467,-9.821556091308594
1745669122.0905523,-0.043557893484830856,-0.05805431678891182,-0.12099216878414154,0.5507562160491943,-0.7752782106399536,-10.374908447265625
1745669122.0926285,-0.020330404862761497,-0.059914685785770416,-0.1099587082862854,0.42009615898132324,-0.4082593321800232,-8.090951919555664
1745669122.1282766,-0.07178812474012375,-0.07227903604507446,-0.1019708514213562,0.6136413812637329,-0.8784888386726379,-9.172456741333008
1745669122.1306527,-0.04112761467695236,-0.05822265148162842,-0.09644237905740738,0.455643892288208,-0.8058821558952332,-11.219254493713379
1745669122.1326983,-0.09052060544490814,-0.0370560958981514,-0.09272947907447815,0.5191665887832642,-1.0120574235916138,-10.383296012878418
1745669122.1347554,-0.11207280308008194,-0.042472660541534424,-0.08592675626277924,0.3032779097557068,-1.3352253437042236,-8.640162467956543
1745669122.1734822,-0.15663617849349976,-0.0424567274749279,-0.0751214399933815,0.41406282782554626,-1.1103184223175049,-8.92280387878418
1745669122.1736343,-0.20067203044891357,-0.039878834038972855,-0.06869588792324066,0.6633779406547546,-1.2362420558929443,-10.612154006958008
1745669122.1760702,-0.2100582867860794,-0.014798763208091259,-0.0605502650141716,0.6969659924507141,-0.8542475700378418,-10.431859970092773
1745669122.1770723,-0.2300177812576294,-0.020294437184929848,-0.051447153091430664,0.7866010665893555,-0.5832587480545044,-9.216922760009766
1745669122.2110274,-0.2098301351070404,-0.031410932540893555,-0.043678492307662964,0.5122663378715515,-0.12475144863128662,-9.287317276000977
1745669122.2120454,-0.2072288990020752,-0.02284565195441246,-0.03877865523099899,0.6209080815315247,-0.2568615674972534,-10.273988723754883
1745669122.213414,-0.16841140389442444,-0.01060319785028696,-0.033462993800640106,0.45121079683303833,0.07070626318454742,-10.279561996459961
1745669122.2149305,-0.15604925155639648,-0.004091746639460325,-0.027246152982115746,0.3712405562400818,0.18684251606464386,-9.377591133117676
1745669122.2149885,-0.12919162213802338,-0.01686171442270279,-0.02309197001159191,0.4270718991756439,0.022311460226774216,-9.261818885803223
1745669122.2548044,-0.10999462753534317,-0.0015316265635192394,-0.019819213077425957,0.5203707814216614,0.09479933977127075,-10.042882919311523
1745669122.2578275,-0.11364451795816422,-0.0025422750040888786,-0.018616393208503723,0.7645799517631531,-0.35336393117904663,-10.405769348144531
1745669122.2596905,-0.09878648817539215,0.001760894781909883,-0.012961102649569511,0.5662015676498413,-0.42659395933151245,-9.69249439239502
1745669122.2623591,-0.12660416960716248,0.004739433526992798,-0.006069097202271223,0.7148241400718689,-0.8776975870132446,-9.347805976867676
1745669122.2978187,-0.14017099142074585,0.0024314718320965767,0.006225877441465855,0.5427144765853882,-0.8108227849006653,-9.777644157409668
1745669122.300573,-0.16453438997268677,0.011391127482056618,0.014666667208075523,0.6708182096481323,-0.8520530462265015,-10.114837646484375
1745669122.3029752,-0.17868907749652863,0.013591216877102852,0.019867978990077972,0.5359761714935303,-0.6951406002044678,-9.911861419677734
1745669122.3068564,-0.19202688336372375,0.020991679280996323,0.023735275492072105,0.25965553522109985,-0.45571160316467285,-9.450725555419922
1745669122.341781,-0.1985858976840973,0.03154230862855911,0.041665833443403244,0.47597557306289673,-0.26906606554985046,-9.561897277832031
1745669122.3451333,-0.21047362685203552,0.03861735761165619,0.04975854605436325,0.5727378726005554,-0.37394097447395325,-9.269405364990234
1745669122.3491614,-0.19925381243228912,0.029009688645601273,0.05525882914662361,0.6341834664344788,-0.13309648633003235,-9.82636833190918
1745669122.3516443,-0.1932772696018219,0.04053442180156708,0.061873964965343475,0.6248128414154053,-0.03057442046701908,-10.264126777648926
1745669122.3547873,-0.18895062804222107,0.04563913494348526,0.062022943049669266,0.7469164133071899,-0.060642309486866,-9.825666427612305
1745669122.3852959,-0.17556825280189514,0.03899358958005905,0.06454223394393921,0.469348669052124,0.22389757633209229,-9.38281536102295
1745669122.390715,-0.17607244849205017,0.03119763731956482,0.06796026229858398,0.6326897144317627,-0.2044491022825241,-9.795221328735352
1745669122.3907955,-0.16740258038043976,0.04422806575894356,0.07178912311792374,0.4884811341762543,-0.03822905942797661,-10.19373607635498
1745669122.3908367,-0.16975532472133636,0.053781069815158844,0.07718762010335922,0.5142613649368286,-0.21081678569316864,-9.728334426879883
1745669122.425671,-0.1649015247821808,0.034270308911800385,0.07950904220342636,0.6320596933364868,-0.19908496737480164,-9.219993591308594
1745669122.4301724,-0.17045071721076965,0.04471128433942795,0.08787499368190765,0.6006351709365845,-0.1916196644306183,-9.849318504333496
1745669122.4317849,-0.1697574406862259,0.043810464441776276,0.0916714295744896,0.7321004867553711,-0.4027314782142639,-10.342870712280273
1745669122.4347281,-0.17230580747127533,0.04796425253152847,0.09814931452274323,0.48132067918777466,-0.2146184742450714,-9.7007474899292
1745669122.470607,-0.15567931532859802,0.02368267998099327,0.21149849891662598,0.5841896533966064,0.32808151841163635,-9.825148582458496
1745669122.4728422,-0.16514481604099274,0.021598612889647484,0.21608729660511017,0.7787817716598511,0.07029324024915695,-9.747554779052734
1745669122.4894633,-0.1564229428768158,0.02132406458258629,0.21829278767108917,0.5558035969734192,0.4183703362941742,-9.61530590057373
1745669122.489544,-0.16249410808086395,0.01584632694721222,0.22272412478923798,0.711822509765625,0.09359093010425568,-9.717561721801758
1745669122.489584,-0.15819033980369568,0.013387146405875683,0.2233067750930786,0.5847053527832031,0.34588623046875,-9.801918029785156
1745669122.5158503,-0.17058587074279785,0.023275718092918396,0.22442984580993652,0.5935609340667725,0.28111404180526733,-9.704511642456055
1745669122.5178914,-0.15510371327400208,0.004927245434373617,0.22831502556800842,0.718100905418396,0.27391666173934937,-9.522314071655273
1745669122.5202787,-0.16362762451171875,0.014099093154072762,0.22789740562438965,0.6005507707595825,0.4960617423057556,-9.795574188232422
1745669122.5237262,-0.16386942565441132,0.011073487810790539,0.23154191672801971,0.734072208404541,0.16603444516658783,-9.98448657989502
1745669122.558071,-0.1476500928401947,0.010053758509457111,0.23578619956970215,0.5229321122169495,0.5094946622848511,-9.535531997680664
1745669122.5599725,-0.15525102615356445,0.011250709183514118,0.23960120975971222,0.7286540865898132,0.2508052587509155,-9.455667495727539
1745669122.5621657,-0.14400418102741241,0.0031803182791918516,0.2425415962934494,0.6050719022750854,0.37633657455444336,-9.884326934814453
1745669122.5658982,-0.1404939442873001,0.010168901644647121,0.24520733952522278,0.6524528861045837,0.5195100903511047,-9.851677894592285
1745669122.597557,-0.13854394853115082,0.0016926496755331755,0.24600854516029358,0.7205517292022705,0.31089454889297485,-9.614679336547852
1745669122.6017773,-0.13489264249801636,0.006026805378496647,0.24609141051769257,0.5073089599609375,0.606246292591095,-9.68506145477295
1745669122.6049256,-0.1484661102294922,-0.0008819665526971221,0.24705639481544495,0.7002805471420288,0.1027648001909256,-9.871439933776855
1745669122.6088095,-0.13144531846046448,0.0013457542518153787,0.24973003566265106,0.5701316595077515,0.45650172233581543,-9.614753723144531
1745669122.6117077,-0.16073693335056305,0.0021803949493914843,0.25326478481292725,0.6848645210266113,0.15847712755203247,-9.661762237548828
1745669122.6503067,-0.14891710877418518,-0.007875096052885056,0.25578591227531433,0.6349984407424927,0.24278411269187927,-9.913065910339355
1745669122.650407,-0.1474968045949936,0.004457383416593075,0.25874361395835876,0.6685358881950378,0.5269855260848999,-9.797576904296875
1745669122.6504724,-0.15636250376701355,-0.004825687035918236,0.2619434893131256,0.6668440699577332,0.2950771749019623,-9.697112083435059
1745669122.6505234,-0.13388240337371826,-0.007637658156454563,0.26377496123313904,0.5032001733779907,0.6387254595756531,-9.615188598632812
1745669122.6861875,-0.1467979997396469,-0.0046678874641656876,0.2660941481590271,0.6808830499649048,0.31102317571640015,-9.878335952758789
1745669122.6906435,-0.12866733968257904,-0.004315393976867199,0.2701026499271393,0.6430603861808777,0.6522557139396667,-9.733577728271484
1745669122.6924267,-0.1354711949825287,-0.017162587493658066,0.2718504071235657,0.7294608354568481,0.18565237522125244,-9.760255813598633
1745669122.6941664,-0.12241768836975098,-0.008917270228266716,0.2756667733192444,0.6020373702049255,0.6774032115936279,-9.740551948547363
1745669122.696332,-0.14497873187065125,-0.01167086698114872,0.2759101092815399,0.7055240869522095,0.22799745202064514,-9.914687156677246
1745669122.729639,-0.12551724910736084,-0.014696845784783363,0.2796609401702881,0.4755362570285797,0.6002793312072754,-9.7159423828125
1745669122.732387,-0.13118496537208557,-0.010662278160452843,0.2807820439338684,0.6409233808517456,0.4897366166114807,-9.582503318786621
1745669122.7353082,-0.1269587278366089,-0.01349456887692213,0.28365081548690796,0.515669584274292,0.5038176774978638,-9.859809875488281
1745669122.7387667,-0.11559542268514633,-0.011799911968410015,0.28259414434432983,0.5736151933670044,0.7484786510467529,-9.822977066040039
1745669122.7737985,-0.11894087493419647,-0.018637610599398613,0.28326043486595154,0.6624388098716736,0.4070049226284027,-9.805856704711914
1745669122.7754838,-0.10644786059856415,-0.008989349938929081,0.286063551902771,0.4877968728542328,0.6931992173194885,-9.72681713104248
1745669122.7767675,-0.12913772463798523,-0.018824689090251923,0.28665369749069214,0.6944414973258972,0.19579924643039703,-9.790609359741211
1745669122.7784169,-0.11077238619327545,-0.015942323952913284,0.2887987494468689,0.5742751955986023,0.5427416563034058,-9.721592903137207
1745669122.8169124,-0.1345430463552475,-0.011602808721363544,0.29257816076278687,0.6473871469497681,0.4540066719055176,-9.84516429901123
1745669122.8202395,-0.10414610058069229,-0.01983623206615448,0.3280777931213379,0.6825555562973022,0.5862728357315063,-9.791753768920898
1745669122.8224847,-0.09277620166540146,-0.027074044570326805,0.33025941252708435,0.41059941053390503,0.7024326324462891,-9.858257293701172
1745669122.8276215,-0.08396425098180771,-0.02040659822523594,0.3308834433555603,0.6896485090255737,0.7342170476913452,-9.629467964172363
1745669122.8557553,-0.10213174670934677,-0.023314453661441803,0.33119991421699524,0.5101391673088074,0.663491427898407,-9.798341751098633
1745669122.858271,-0.0736905112862587,-0.021318916231393814,0.33286038041114807,0.5641713738441467,0.9674216508865356,-9.769685745239258
1745669122.8616269,-0.09374432265758514,-0.03197881206870079,0.33078664541244507,0.6282542943954468,0.6555495858192444,-9.890127182006836
1745669122.864789,-0.05729559808969498,-0.01940717175602913,0.3329285681247711,0.45848193764686584,0.9709757566452026,-9.79304027557373
1745669122.8674903,-0.08967994153499603,-0.023455342277884483,0.33374983072280884,0.6001108288764954,0.7381776571273804,-9.64887809753418
1745669122.9025316,-0.06452745199203491,-0.03251989558339119,0.33281630277633667,0.5117331743240356,0.6879311800003052,-9.679919242858887
1745669122.9044921,-0.07125311344861984,-0.024045808240771294,0.3328453600406647,0.6872775554656982,0.8284610509872437,-9.825936317443848
1745669122.9071884,-0.09100089222192764,-0.029148438945412636,0.33308732509613037,0.4842061996459961,0.5239917039871216,-10.070711135864258
1745669122.910235,-0.05600961297750473,-0.024682670831680298,0.33526238799095154,0.6127410531044006,0.8581656217575073,-9.494306564331055
1745669122.9436154,-0.09430209547281265,-0.030931657180190086,0.33737966418266296,0.6585924029350281,0.6415841579437256,-9.600519180297852
1745669122.9473424,-0.06773857027292252,-0.027867266908288002,0.33527326583862305,0.40690821409225464,0.8017783164978027,-10.052228927612305
1745669122.9494267,-0.08013921231031418,-0.030157316476106644,0.33921319246292114,0.6519069075584412,0.7180495262145996,-9.789734840393066
1745669122.9517894,-0.0647682175040245,-0.027653157711029053,0.3383638560771942,0.48227399587631226,0.8545331954956055,-9.508817672729492
1745669122.954539,-0.06919201463460922,-0.02844383753836155,0.3384460508823395,0.5905230641365051,0.8537586331367493,-9.677770614624023
1745669122.992849,-0.07652398198843002,-0.037712033838033676,0.33779045939445496,0.4733808934688568,0.6273597478866577,-10.059531211853027
1745669122.9947498,-0.04947971552610397,-0.021571757271885872,0.33839377760887146,0.6258760690689087,1.0119469165802002,-9.632932662963867
1745669122.9974873,-0.08891110122203827,-0.03277706727385521,0.338875949382782,0.5412823557853699,0.5821676850318909,-9.633672714233398
1745669123.0010073,-0.05256759002804756,-0.03379812091588974,0.3410104513168335,0.5428794026374817,0.8252280354499817,-9.70035457611084
1745669123.030241,-0.07810531556606293,-0.03021877445280552,0.3388668894767761,0.7227137088775635,0.7475504279136658,-9.82620906829834
1745669123.034858,-0.07826092094182968,-0.041005294770002365,0.3449147343635559,0.5484097599983215,0.7105032801628113,-9.875096321105957
1745669123.0364664,-0.047435928136110306,-0.029095780104398727,0.3444720208644867,0.4759811460971832,0.8841153383255005,-9.658787727355957
1745669123.0387547,-0.07462521642446518,-0.031422149389982224,0.3446899950504303,0.617148756980896,0.7901148796081543,-9.594091415405273
1745669123.075926,-0.06272351741790771,-0.04004833847284317,0.3461282253265381,0.4701220989227295,0.6994486451148987,-9.755346298217773
1745669123.078455,-0.05485757067799568,-0.03222782909870148,0.3455800712108612,0.6652331352233887,0.8114936947822571,-9.748846054077148
1745669123.079561,-0.08960564434528351,-0.034238751977682114,0.34694990515708923,0.4113699793815613,0.6544822454452515,-9.878703117370605
1745669123.0807037,-0.052612077444791794,-0.03487229347229004,0.34769406914711,0.6207534670829773,0.7601569294929504,-9.501561164855957
1745669123.1145353,-0.0824185460805893,-0.03902265802025795,0.35037729144096375,0.6600518822669983,0.7465246915817261,-9.61817741394043
1745669123.1172245,-0.06584744155406952,-0.030123025178909302,0.34786561131477356,0.4183955192565918,0.7734692692756653,-10.032891273498535
1745669123.1213064,-0.0720817968249321,-0.0371803417801857,0.35169464349746704,0.6302860379219055,0.8293443918228149,-9.645355224609375
1745669123.1229115,-0.06706226617097855,-0.03423577919602394,0.3519764840602875,0.45958834886550903,0.87043297290802,-9.468000411987305
1745669123.125915,-0.06218355894088745,-0.033200718462467194,0.3508955240249634,0.5829175710678101,0.881290078163147,-9.74187183380127
1745669123.159765,-0.0775613784790039,-0.04053423926234245,0.3512710928916931,0.4300626218318939,0.7676302790641785,-10.025266647338867
1745669123.16089,-0.041126251220703125,-0.031416215002536774,0.35096460580825806,0.5619853138923645,0.9594435691833496,-9.52074146270752
1745669123.1631012,-0.042856186628341675,-0.032192081212997437,0.3608376383781433,0.5838819146156311,0.9897411465644836,-9.557321548461914
1745669123.1645253,-0.05253139138221741,-0.029898950830101967,0.35984566807746887,0.36559897661209106,0.8716047406196594,-9.702165603637695
1745669123.2036843,-0.03505457192659378,-0.03664959594607353,0.36141008138656616,0.6844813227653503,0.8305371403694153,-9.768061637878418
1745669123.2059016,-0.052421338856220245,-0.028445716947317123,0.359659880399704,0.3914032280445099,1.1683086156845093,-9.861608505249023
1745669123.2060022,-0.03380707651376724,-0.02820357121527195,0.36235862970352173,0.4981393814086914,0.8116593360900879,-9.737815856933594
1745669123.206474,-0.03605400770902634,-0.036091528832912445,0.3616260886192322,0.4542195200920105,1.0398273468017578,-9.506945610046387
1745669123.2148328,-0.03261079639196396,-0.023331310600042343,0.36400753259658813,0.49396467208862305,0.9042094945907593,-9.7935152053833
1745669123.250938,-0.03052753210067749,-0.029774963855743408,0.36122795939445496,0.5031545758247375,0.9468406438827515,-9.871368408203125
1745669123.2537534,-0.03118111565709114,-0.028833847492933273,0.36274346709251404,0.40127405524253845,0.9440237283706665,-9.767254829406738
1745669123.2563245,-0.0211147703230381,-0.028851941227912903,0.3625109791755676,0.6350566744804382,0.7973634600639343,-9.621269226074219
1745669123.258841,-0.04351547360420227,-0.027753913775086403,0.3603494167327881,0.3419407904148102,1.054650068283081,-9.839788436889648
1745669123.2964818,-0.023313339799642563,-0.03194207698106766,0.36061203479766846,0.6178212761878967,0.7023544907569885,-9.793505668640137
1745669123.3023183,-0.0382067933678627,-0.027421867474913597,0.3612934350967407,0.43150997161865234,1.0549952983856201,-9.65013313293457
1745669123.3099003,-0.04225917533040047,-0.024261176586151123,0.359470933675766,0.4331263601779938,0.7648984789848328,-9.808211326599121
1745669123.30997,-0.033861659467220306,-0.035845398902893066,0.36210307478904724,0.5478266477584839,0.9219027757644653,-9.695015907287598
1745669123.3149142,-0.03527523949742317,-0.019965289160609245,0.3616555631160736,0.43309420347213745,1.0175526142120361,-9.745094299316406
1745669123.331653,-0.031221702694892883,-0.028085779398679733,0.3637525141239166,0.52666836977005,0.7769965529441833,-9.809211730957031
1745669123.334058,-0.030042607337236404,-0.027773022651672363,0.3610338568687439,0.3728354871273041,1.2166402339935303,-9.65229606628418
1745669123.3358247,-0.01997442916035652,-0.027744943276047707,0.3626422584056854,0.6386387944221497,0.8105387687683105,-9.712900161743164
1745669123.3397286,-0.021666977554559708,-0.02397228218615055,0.3615610897541046,0.3783365786075592,1.1432318687438965,-9.851518630981445
1745669123.381103,-0.022666048258543015,-0.02275175228714943,0.3604711890220642,0.48799237608909607,0.8338004350662231,-9.831782341003418
1745669123.3811274,-0.011376624926924706,-0.030984580516815186,0.36033356189727783,0.5352599024772644,0.9756349325180054,-9.546350479125977
1745669123.384119,-0.01647038199007511,-0.01986124739050865,0.3631276786327362,0.5819545388221741,0.8711687922477722,-9.71509838104248
1745669123.3876092,-0.01679476723074913,-0.024785012006759644,0.361865371465683,0.4836391806602478,0.9815033078193665,-9.71288776397705
1745669123.415814,-0.013754348270595074,-0.022928040474653244,0.363020122051239,0.3488691747188568,1.029634952545166,-9.85476016998291
1745669123.4179513,-0.012031910941004753,-0.028013210743665695,0.3620951473712921,0.581774890422821,0.8130391836166382,-9.789009094238281
1745669123.420937,-0.013045482337474823,-0.01669670082628727,0.36002302169799805,0.3842882513999939,1.1522419452667236,-9.597517013549805
1745669123.4233503,-0.022152069956064224,-0.028706500306725502,0.3601534962654114,0.5642070174217224,0.6123005747795105,-9.732789039611816
1745669123.4591177,-0.005977218970656395,-0.02677672542631626,0.36020663380622864,0.4996039867401123,1.097714900970459,-9.817940711975098
1745669123.4616902,-0.024403495714068413,-0.016625884920358658,0.35903894901275635,0.49133172631263733,0.864686131477356,-9.869708061218262
1745669123.4634135,-0.015194812789559364,-0.029529329389333725,0.3592982888221741,0.4253044128417969,0.8514498472213745,-9.631698608398438
1745669123.4731202,-0.007030901499092579,-0.02244638279080391,0.35965925455093384,0.5276581048965454,1.0463043451309204,-9.544999122619629
1745669123.4731722,-0.019997775554656982,-0.024561602622270584,0.3622516095638275,0.5069217681884766,0.7809340357780457,-9.951176643371582
1745669123.503662,-0.00019180755771230906,-0.02168375812470913,0.35950571298599243,0.3138921558856964,1.2196071147918701,-9.848136901855469
1745669123.5079484,-0.007645214442163706,-0.027407372370362282,0.360405832529068,0.5955212116241455,0.7935335636138916,-9.61166000366211
1745669123.5103498,0.0028458377346396446,-0.023774418979883194,0.35979509353637695,0.3920413851737976,1.0570622682571411,-9.677726745605469
1745669123.5124848,0.021609129384160042,-0.027005935087800026,0.3486258387565613,0.47839269042015076,0.9479154348373413,-9.528823852539062
1745669123.5472229,-0.013764743693172932,-0.029288018122315407,0.3507789671421051,0.4900040626525879,0.8231441378593445,-9.70463752746582
1745669123.5474048,-0.0015373032074421644,-0.026967298239469528,0.3501012325286865,0.3671932816505432,0.7895217537879944,-9.975085258483887
1745669123.5492098,0.001989515032619238,-0.026505354791879654,0.3511461317539215,0.6571974754333496,0.8721477389335632,-9.588824272155762
1745669123.5525463,-0.012603759765625,-0.024272309616208076,0.34786897897720337,0.33874616026878357,0.939956545829773,-9.648320198059082
1745669123.5572472,0.00837202463299036,-0.02840004488825798,0.35214513540267944,0.4988880753517151,0.8664002418518066,-9.802087783813477
1745669123.5944254,-0.013277237303555012,-0.029735267162322998,0.3505578637123108,0.4558261036872864,0.913924515247345,-9.778436660766602
1745669123.5982034,0.014069216325879097,-0.018352389335632324,0.3501124978065491,0.4650067389011383,0.9543144106864929,-9.625845909118652
1745669123.6015887,-0.009308623149991035,-0.03158955276012421,0.35009080171585083,0.4087277054786682,0.9072446823120117,-9.736139297485352
1745669123.605979,0.009122279472649097,-0.025715386494994164,0.3499632477760315,0.37018999457359314,0.8691562414169312,-9.845975875854492
1745669123.6337056,0.005087909288704395,-0.022227713838219643,0.3492428660392761,0.6219028234481812,0.9460011720657349,-9.612757682800293
1745669123.639153,-0.009969186969101429,-0.029145803302526474,0.3488660454750061,0.32143664360046387,0.846468448638916,-9.796757698059082
1745669123.6393142,0.01663295552134514,-0.02851058542728424,0.34794142842292786,0.6340440511703491,0.845380425453186,-9.751115798950195
1745669123.6393952,-0.013246181420981884,-0.023445121943950653,0.34864169359207153,0.4217134416103363,0.9194068908691406,-9.783427238464355
1745669123.6407466,0.007668448146432638,-0.024440694600343704,0.3509444296360016,0.4260849058628082,0.8182299733161926,-9.704008102416992
1745669123.6746264,-0.0019863429479300976,-0.03421572595834732,0.349943608045578,0.5190303325653076,0.8541615605354309,-9.575005531311035
1745669123.6790195,0.0019663660787045956,-0.02126423642039299,0.3508184552192688,0.38666149973869324,0.9199256896972656,-9.849139213562012
1745669123.6830077,0.005437669809907675,-0.026277372613549232,0.3506065607070923,0.5444732904434204,0.9572768211364746,-9.821016311645508
1745669123.71906,0.0022399926092475653,-0.030724462121725082,0.34868425130844116,0.34298595786094666,1.0100319385528564,-9.759963035583496
1745669123.7217805,0.021654050797224045,-0.026638716459274292,0.3469715714454651,0.5605367422103882,0.8768059611320496,-9.678004264831543
1745669123.7257974,-0.0046036578714847565,-0.026024144142866135,0.3471167981624603,0.3189517557621002,0.9884653091430664,-9.775611877441406
1745669123.7294104,0.01632041111588478,-0.027252843603491783,0.3463638126850128,0.44580918550491333,0.6638551354408264,-9.727975845336914
1745669123.761368,-0.001741191023029387,-0.021345680579543114,0.3480469584465027,0.39718812704086304,1.0259449481964111,-9.635259628295898
1745669123.7620718,0.002597660291939974,-0.024795252829790115,0.34883350133895874,0.49019956588745117,0.7224785685539246,-9.74729061126709
1745669123.7636626,-0.0030219373293220997,-0.03342551738023758,0.34811002016067505,0.3965305685997009,0.9924434423446655,-9.706624984741211
1745669123.7673721,0.010667512193322182,-0.022338001057505608,0.34835976362228394,0.5279577374458313,0.8370898962020874,-9.791094779968262
1745669123.7682157,0.00030411797342821956,-0.021355148404836655,0.34860849380493164,0.36494943499565125,0.9562384486198425,-9.798513412475586
1745669123.8062134,-0.0004170369356870651,-0.02540985308587551,0.3470352590084076,0.36990994215011597,0.8346344828605652,-9.664373397827148
1745669123.8100362,0.013541574589908123,-0.031016122549772263,0.3485957980155945,0.6636165380477905,0.852118968963623,-9.544204711914062
1745669123.8112245,-0.011886639520525932,-0.023345425724983215,0.3476760685443878,0.30355799198150635,0.9985542297363281,-10.03135871887207
1745669123.8147182,0.00906289927661419,-0.029247716069221497,0.34577786922454834,0.5640284419059753,0.6601384878158569,-9.930354118347168
1745669123.8487372,0.003938727080821991,-0.027948051691055298,0.34692996740341187,0.46705111861228943,1.041359782218933,-9.408406257629395
1745669123.8499105,0.000501328322570771,-0.02127007022500038,0.3485262095928192,0.4345577359199524,0.7471486926078796,-9.727930068969727
1745669123.8544176,0.006160170771181583,-0.03387833386659622,0.3497146964073181,0.366142213344574,0.8566886186599731,-9.943758010864258
1745669123.855429,0.0040956540033221245,-0.018458690494298935,0.34833163022994995,0.4627845883369446,0.9532338380813599,-9.675886154174805
1745669123.89052,0.021385110914707184,-0.017142627388238907,0.3485013246536255,0.4860984683036804,0.9356358647346497,-9.678167343139648
1745669123.8921525,0.006171032786369324,-0.02949349582195282,0.3462892174720764,0.41562408208847046,0.6289183497428894,-9.788675308227539
1745669123.8944886,0.034152429550886154,-0.022084014490246773,0.34739115834236145,0.4481094479560852,1.0056116580963135,-9.704293251037598
1745669123.8977225,0.0012029481586068869,-0.023102745413780212,0.34826287627220154,0.4962518811225891,0.6801348924636841,-9.815256118774414
1745669123.9328482,0.02570216916501522,-0.024828646332025528,0.34761232137680054,0.29896941781044006,0.8599988222122192,-9.748655319213867
1745669123.933613,0.01712806150317192,-0.025320935994386673,0.3497227728366852,0.5985469818115234,0.7582595348358154,-9.618046760559082
1745669123.9351249,0.01331893540918827,-0.018978578969836235,0.3507595956325531,0.3123930096626282,0.7411597967147827,-9.851840019226074
1745669123.9375143,0.026242315769195557,-0.02310686931014061,0.34940189123153687,0.4674917161464691,0.926025390625,-9.690103530883789
1745669123.9381783,0.01026806142181158,-0.03208131343126297,0.35084718465805054,0.49288588762283325,0.7146198153495789,-9.752223014831543
1745669123.980034,0.03542039543390274,-0.015821946784853935,0.3491056561470032,0.4259505867958069,0.9882315397262573,-9.80901050567627
1745669123.9834435,0.0055932397954165936,-0.023040348663926125,0.3510870337486267,0.4005536437034607,0.6972891092300415,-9.793437004089355
1745669123.987845,0.03393802046775818,-0.02448972687125206,0.34878379106521606,0.3726770877838135,0.8466474413871765,-9.527093887329102
1745669123.9919837,0.011787730269134045,-0.022006267681717873,0.35027775168418884,0.5882222056388855,0.7651165127754211,-9.681962013244629
1745669124.02039,0.009030582383275032,-0.02487386204302311,0.34966355562210083,0.31992048025131226,0.7006362080574036,-10.081239700317383
1745669124.024599,0.03275091201066971,-0.01942642591893673,0.3513436019420624,0.5500536561012268,0.873742401599884,-9.668036460876465
1745669124.02838,0.003473688615486026,-0.02328728698194027,0.35174137353897095,0.4014320373535156,0.8312498331069946,-9.518414497375488
1745669124.0324173,0.03308892995119095,-0.020817849785089493,0.35361915826797485,0.33063042163848877,0.8218120336532593,-9.781362533569336
1745669124.0358217,0.012054555118083954,-0.02777259051799774,0.3507917523384094,0.5475376844406128,0.7801828384399414,-9.829035758972168
1745669124.0651846,0.03348062187433243,-0.017900794744491577,0.3517330288887024,0.34007686376571655,0.898293137550354,-9.771833419799805
1745669124.0685675,0.021776411682367325,-0.022112805396318436,0.3515603840351105,0.4286174774169922,0.8191013336181641,-9.687318801879883
1745669124.0724587,0.017351148650050163,-0.025718431919813156,0.3509373664855957,0.31778454780578613,0.6856885552406311,-9.741722106933594
1745669124.0763133,0.03651144355535507,-0.01772240921854973,0.35298794507980347,0.5826424956321716,0.870361328125,-9.591235160827637
1745669124.1077461,-0.00160318985581398,-0.023548638448119164,0.35067063570022583,0.30794191360473633,0.6318013072013855,-9.905229568481445
1745669124.1142354,0.017758240923285484,-0.019059205427765846,0.3528282046318054,0.26713040471076965,0.7609080076217651,-9.804449081420898
1745669124.1173947,0.023730510845780373,-0.027378758415579796,0.35277146100997925,0.5168151259422302,0.781474232673645,-9.708038330078125
1745669124.118748,0.011713042855262756,-0.01400842797011137,0.3515552580356598,0.32570967078208923,0.8520458340644836,-9.773996353149414
1745669124.1503408,0.03164774924516678,-0.015790428966283798,0.35282793641090393,0.501264214515686,0.8470824360847473,-9.64710807800293
1745669124.152634,0.012299120426177979,-0.029045110568404198,0.35057923197746277,0.3265884518623352,0.8363878130912781,-9.796269416809082
1745669124.1558294,0.040073737502098083,-0.016872882843017578,0.35012760758399963,0.5036066770553589,0.8017236590385437,-9.834051132202148
1745669124.1581266,0.012862426228821278,-0.014215919189155102,0.3503151834011078,0.4299340844154358,0.8392611742019653,-9.738983154296875
1745669124.1921887,0.025562118738889694,-0.022086087614297867,0.3478673994541168,0.34741732478141785,0.6675330996513367,-9.614707946777344
1745669124.1952024,0.030049750581383705,-0.023117274045944214,0.35263413190841675,0.6328778266906738,0.778863787651062,-9.63105583190918
1745669124.1971931,0.004447306506335735,-0.014180399477481842,0.3486687242984772,0.2501663267612457,0.8222349882125854,-10.017335891723633
1745669124.201205,0.034412600100040436,-0.020305007696151733,0.3495747447013855,0.47332268953323364,0.6929991841316223,-9.747934341430664
1745669124.208728,0.016309021040797234,-0.018549706786870956,0.3500022292137146,0.4197840690612793,0.8826796412467957,-9.43244743347168
1745669124.2360604,0.0315123088657856,-0.018039697781205177,0.3445096015930176,0.3501918315887451,0.884719729423523,-9.838865280151367
1745669124.237778,0.019340775907039642,-0.01654496230185032,0.3453143537044525,0.45172303915023804,0.5542637705802917,-9.923713684082031
1745669124.2420402,0.035127412527799606,-0.02394249103963375,0.3459860682487488,0.4431857168674469,0.73370760679245,-9.558131217956543
1745669124.2436154,0.019863532856106758,-0.011592818424105644,0.3436332643032074,0.4320761561393738,0.8035680055618286,-9.66985034942627
1745669124.2803686,0.019467368721961975,-0.025518950074911118,0.3433942198753357,0.4904107451438904,0.4724827706813812,-10.022687911987305
1745669124.284795,0.036656975746154785,-0.018775761127471924,0.34324437379837036,0.4088164269924164,0.9234603047370911,-9.782082557678223
1745669124.2887928,0.017822138965129852,-0.016381075605750084,0.3440719246864319,0.4887424409389496,0.5273422002792358,-9.66497802734375
1745669124.2934406,0.03444327414035797,-0.023152198642492294,0.34541550278663635,0.25997430086135864,0.7730885744094849,-9.681668281555176
1745669124.318285,0.022321777418255806,-0.019245121628046036,0.3465920090675354,0.5770094990730286,0.61822110414505,-9.741874694824219
1745669124.3210933,0.028691262006759644,-0.02254786528646946,0.34472402930259705,0.4233245253562927,0.7050282955169678,-9.88542366027832
1745669124.3221905,0.027060532942414284,-0.014582151547074318,0.344959557056427,0.3898777365684509,0.7877525091171265,-9.866619110107422
1745669124.3225443,0.019206728786230087,-0.027973081916570663,0.3428822159767151,0.48712778091430664,0.46293288469314575,-9.718908309936523
1745669124.3629122,0.031122654676437378,-0.01774725317955017,0.34409070014953613,0.42695602774620056,0.8652744293212891,-9.561569213867188
1745669124.366097,0.0035430402494966984,-0.026782086119055748,0.3446596562862396,0.5003184676170349,0.3680379390716553,-9.903623580932617
1745669124.3695312,0.030298063531517982,-0.023259390145540237,0.34409624338150024,0.37517088651657104,0.7477588653564453,-9.84661865234375
1745669124.3753686,0.007157790008932352,-0.016686687245965004,0.3451792895793915,0.5422475934028625,0.6487174034118652,-9.64301586151123
1745669124.376974,0.014026151970028877,-0.025814393535256386,0.34334442019462585,0.3210625648498535,0.6196359395980835,-9.767374038696289
1745669124.4081159,0.027495315298438072,-0.02504432573914528,0.34497886896133423,0.5161381959915161,0.7906701564788818,-9.70594596862793
1745669124.409762,0.005022949073463678,-0.01969071291387081,0.34574028849601746,0.43320298194885254,0.5373412370681763,-9.915082931518555
1745669124.412435,0.033991649746894836,-0.01736614666879177,0.3455035090446472,0.34668582677841187,0.8872354626655579,-9.699918746948242
1745669124.4147952,0.00788344256579876,-0.03006688877940178,0.3440666198730469,0.5219605565071106,0.4925512373447418,-9.65870189666748
1745669124.4489572,0.030958259478211403,-0.02130383998155594,0.3423776626586914,0.3791976869106293,0.7645626068115234,-9.814539909362793
1745669124.4505055,0.008427691645920277,-0.019232003018260002,0.34433844685554504,0.4990938603878021,0.6633264422416687,-9.904455184936523
1745669124.4541347,0.023460976779460907,-0.020998962223529816,0.34211260080337524,0.5441814661026001,0.78721684217453,-9.54089069366455
1745669124.4555316,-0.006737468298524618,-0.02716490998864174,0.3424946963787079,0.3712245523929596,0.44410666823387146,-9.98757553100586
1745669124.50166,0.029253225773572922,-0.021510321646928787,0.34208211302757263,0.40005940198898315,0.7344225645065308,-9.774797439575195
1745669124.501811,-0.0022589550353586674,-0.022237401455640793,0.3450659215450287,0.5145120024681091,0.5795467495918274,-9.600000381469727
1745669124.5019038,0.018308071419596672,-0.021190974861383438,0.3447236120700836,0.3057587742805481,0.6663398742675781,-9.810050964355469
1745669124.501956,0.01191641204059124,-0.02477209083735943,0.3441070020198822,0.5662793517112732,0.706759512424469,-9.788930892944336
1745669124.5020046,0.015312721952795982,-0.023510491475462914,0.34235554933547974,0.3700525760650635,0.6639679670333862,-9.830025672912598
1745669124.5368567,0.02627023123204708,-0.01448827050626278,0.3440607786178589,0.44261854887008667,0.7116783261299133,-9.71977424621582
1745669124.53966,-0.0032118395902216434,-0.026905644685029984,0.3424326181411743,0.35466820001602173,0.48955756425857544,-9.774784088134766
1745669124.5443614,0.029854631051421165,-0.02043282799422741,0.34250885248184204,0.47209683060646057,0.6874172687530518,-9.621341705322266
1745669124.5477817,-0.013836915604770184,-0.020486686378717422,0.34404176473617554,0.4317513406276703,0.49868687987327576,-9.839689254760742
1745669124.587666,0.009650948457419872,-0.02247845195233822,0.3420121371746063,0.37547507882118225,0.6004524827003479,-9.906547546386719
1745669124.5992165,0.0023405097890645266,-0.019941875711083412,0.342702716588974,0.6168538928031921,0.6487371921539307,-9.62955093383789
1745669124.5993855,0.005763955879956484,-0.008662601932883263,0.3507872223854065,0.2312551736831665,0.821108341217041,-9.895792007446289
1745669124.5994396,0.015635520219802856,-0.012779119424521923,0.34990912675857544,0.5614826679229736,0.47699928283691406,-9.64051342010498
1745669124.6237638,0.007858461700379848,-0.002829084638506174,0.3506302833557129,0.3297758102416992,0.9009830355644226,-9.564577102661133
1745669124.6270216,0.0009433295344933867,-0.012994537129998207,0.35040920972824097,0.4731525778770447,0.30687928199768066,-9.906133651733398
1745669124.6295497,0.015911664813756943,-0.011955389752984047,0.3512764275074005,0.4598539471626282,0.6958523988723755,-9.822026252746582
1745669124.631251,-0.005519323982298374,0.0032142375130206347,0.35390108823776245,0.4020148813724518,0.5712168216705322,-9.727583885192871
1745669124.6651711,0.0010914553422480822,-0.015019560232758522,0.3542020618915558,0.4173968732357025,0.43296608328819275,-9.6470947265625
1745669124.667421,0.005256418604403734,-0.009265957400202751,0.35399922728538513,0.444584459066391,0.7710595726966858,-9.671403884887695
1745669124.669846,-0.01002202183008194,-0.0016726221656426787,0.35511231422424316,0.45405977964401245,0.4111996591091156,-10.0214262008667
1745669124.6709976,0.005887128412723541,-0.007157378830015659,0.35366755723953247,0.2592802941799164,0.9147672653198242,-9.697225570678711
1745669124.6733148,-0.006021774373948574,-0.014908144250512123,0.35279613733291626,0.5533010959625244,0.4976596236228943,-9.578977584838867
1745669124.7089515,0.007843014784157276,-0.00831333827227354,0.35246485471725464,0.36814457178115845,0.7409416437149048,-9.819377899169922
1745669124.712737,-0.008251857943832874,-0.0008033525082282722,0.3513709604740143,0.3934563398361206,0.6273618340492249,-9.916633605957031
1745669124.7150195,0.0037804697640240192,-0.014679402112960815,0.3553887605667114,0.4506819248199463,0.4802405834197998,-9.622968673706055
1745669124.7171223,0.0030874304939061403,-0.0041531785391271114,0.35332053899765015,0.4645158350467682,0.8166004419326782,-9.54097843170166
1745669124.7578254,-0.015630453824996948,-0.013506491668522358,0.35361722111701965,0.47574037313461304,0.36773616075515747,-10.05622386932373
1745669124.7579165,0.014143778011202812,-0.010774988681077957,0.35530051589012146,0.37594765424728394,0.8534709811210632,-9.841506958007812
1745669124.7579968,-0.0041316295973956585,-0.003813753603026271,0.3537556529045105,0.5543355941772461,0.5776532888412476,-9.541471481323242
1745669124.75804,0.004275281447917223,-0.011226686649024487,0.3558826744556427,0.25953707098960876,0.6134635210037231,-9.72966194152832
1745669124.7599988,0.0041161165572702885,-0.01380369532853365,0.35437923669815063,0.5180569887161255,0.662274956703186,-9.801688194274902
1745669124.7956064,0.0012597752502188087,-0.011505069211125374,0.35430067777633667,0.4584295153617859,0.544113278388977,-9.895402908325195
1745669124.8003025,0.007560125086456537,-0.0016203701961785555,0.35499054193496704,0.33986568450927734,0.7682312726974487,-9.715993881225586
1745669124.8047192,-0.013263730332255363,-0.018380576744675636,0.35361963510513306,0.4928432106971741,0.3709569573402405,-9.699106216430664
1745669124.8083081,0.011990301311016083,-0.011915805749595165,0.3528597950935364,0.43703514337539673,0.7826380729675293,-9.707318305969238
1745669124.8389223,-0.023554328829050064,-0.008165905252099037,0.35341906547546387,0.46336597204208374,0.40536195039749146,-9.979001998901367
1745669124.8412435,-0.002975590992718935,-0.014837251976132393,0.3520907461643219,0.3162572979927063,0.5926493406295776,-9.786173820495605
1745669124.8435307,-0.006543408147990704,-0.010866129770874977,0.35466402769088745,0.5849254727363586,0.6756304502487183,-9.488807678222656
1745669124.8469787,-0.018420496955513954,-0.01631050929427147,0.3531743884086609,0.32264062762260437,0.5730213522911072,-9.87032413482666
1745669124.8782961,0.011203675530850887,-0.013059154152870178,0.3545148968696594,0.374822199344635,0.7777654528617859,-9.930992126464844
1745669124.881999,-0.017734050750732422,-0.015073781833052635,0.35220226645469666,0.5234545469284058,0.5895372033119202,-9.702543258666992
1745669124.8855736,0.013420304283499718,-0.010082004591822624,0.352883517742157,0.3596467971801758,0.8269622921943665,-9.599441528320312
1745669124.8892326,-0.010446607135236263,-0.021435249596834183,0.35196906328201294,0.44528084993362427,0.5444846749305725,-9.894063949584961
1745669124.89262,0.00839228741824627,-0.018262960016727448,0.34978950023651123,0.3669374883174896,0.5676147937774658,-9.91431999206543
1745669124.9239707,-0.003665529889985919,-0.00862931925803423,0.3526284396648407,0.5405321717262268,0.6500623822212219,-9.51076889038086
1745669124.9261596,-0.018986960873007774,-0.025208476930856705,0.35205477476119995,0.3578125834465027,0.4167017936706543,-9.749109268188477
1745669124.928695,0.010783938691020012,-0.01807257905602455,0.34942302107810974,0.5487505793571472,0.7352320551872253,-9.883796691894531
1745669124.9333286,-0.04888782650232315,-0.029853666201233864,0.35474881529808044,0.30640193819999695,0.8131071925163269,-9.650157928466797
1745669124.9672565,-0.0496048629283905,-0.03072914481163025,0.3558589518070221,0.4631733000278473,0.5485960245132446,-9.681970596313477
1745669124.968724,-0.04492516443133354,-0.030536551028490067,0.3548857271671295,0.4245724678039551,0.6792155504226685,-9.88624382019043
1745669124.9711285,-0.05646713823080063,-0.01896188035607338,0.35406947135925293,0.25528979301452637,0.7814713716506958,-9.875445365905762
1745669124.9741375,-0.03958744555711746,-0.035125333815813065,0.3551473319530487,0.5079623460769653,0.48969966173171997,-9.519804000854492
1745669124.9779353,-0.05263325572013855,-0.025889983400702477,0.35439997911453247,0.36941879987716675,0.9031268954277039,-9.655149459838867
1745669125.010755,-0.05916668847203255,-0.02838629111647606,0.3538277745246887,0.48443326354026794,0.3619728982448578,-10.14716911315918
1745669125.0142305,-0.039837371557950974,-0.03236747533082962,0.3546105921268463,0.3379165530204773,0.786288857460022,-9.732187271118164
1745669125.0164404,-0.0557812936604023,-0.019555723294615746,0.3543478846549988,0.44744402170181274,0.5748839378356934,-9.457287788391113
1745669125.0186121,-0.05331744626164436,-0.03335114195942879,0.3571911156177521,0.3360750377178192,0.5825898051261902,-9.74614429473877
1745669125.0513802,-0.050881873816251755,-0.02710934542119503,0.3561834394931793,0.39915552735328674,0.8592779040336609,-9.873692512512207
1745669125.0536904,-0.05111796781420708,-0.03029043599963188,0.3557767868041992,0.5482794046401978,0.5600780844688416,-9.859747886657715
1745669125.0552607,-0.04663483798503876,-0.021704761311411858,0.3530558943748474,0.24087238311767578,0.9772852063179016,-9.697454452514648
1745669125.0565188,-0.05627817660570145,-0.03236914053559303,0.3544735312461853,0.4556911587715149,0.4008669853210449,-9.729116439819336
1745669125.0584579,-0.038649193942546844,-0.0313190333545208,0.3538059592247009,0.35421356558799744,0.8578346371650696,-9.607645034790039
1745669125.0957558,-0.06750272959470749,-0.022380303591489792,0.3527982234954834,0.36423665285110474,0.5204504132270813,-9.90593433380127
1745669125.0974007,-0.049191929399967194,-0.03359782323241234,0.35313335061073303,0.38484224677085876,0.6128748059272766,-9.821470260620117
1745669125.0999827,-0.051490239799022675,-0.02370409481227398,0.35168057680130005,0.4274126887321472,0.9110884666442871,-9.603364944458008
1745669125.1010287,-0.0645744577050209,-0.02877160534262657,0.3529040515422821,0.34081125259399414,0.46819502115249634,-9.810661315917969
1745669125.1392314,-0.04371862858533859,-0.028708383440971375,0.3512435555458069,0.23126332461833954,0.8348044157028198,-9.718321800231934
1745669125.1410122,-0.06414145976305008,-0.02419438399374485,0.35103291273117065,0.5099488496780396,0.44255751371383667,-9.70661735534668
1745669125.1442888,-0.05140414834022522,-0.024739945307374,0.35158970952033997,0.2845918834209442,0.8003832101821899,-9.738927841186523
1745669125.149676,-0.0656440258026123,-0.027818793430924416,0.35236215591430664,0.3688029944896698,0.5851042866706848,-9.855634689331055
1745669125.1800284,-0.05715972185134888,-0.02894797921180725,0.3496435582637787,0.381259948015213,0.6328786015510559,-9.788518905639648
1745669125.1820803,-0.06423740088939667,-0.015788735821843147,0.34782224893569946,0.3848188519477844,0.8732231855392456,-9.624326705932617
1745669125.1842513,-0.07414086908102036,-0.03381505608558655,0.3476443290710449,0.41234010457992554,0.41498011350631714,-9.781935691833496
1745669125.186474,-0.05166627839207649,-0.025908520445227623,0.34914350509643555,0.35403385758399963,0.9202669858932495,-9.735310554504395
1745669125.1886604,-0.08573724329471588,-0.02101023867726326,0.3479268252849579,0.4539623260498047,0.5043787956237793,-9.861120223999023
1745669125.2251947,-0.05434100702404976,-0.030102377757430077,0.3484066426753998,0.2893337607383728,0.8101198077201843,-9.689075469970703
1745669125.2263339,-0.06538813561201096,-0.023903863504529,0.34900903701782227,0.4969274401664734,0.7514466047286987,-9.656381607055664
1745669125.2289088,-0.061981212347745895,-0.025362279266119003,0.35070958733558655,0.2796477675437927,0.7015678882598877,-9.932573318481445
1745669125.2299867,-0.05160249024629593,-0.024395018815994263,0.34748929738998413,0.3833366930484772,0.9305188059806824,-9.65818977355957
1745669125.2681918,-0.06329751014709473,-0.03456372767686844,0.3477570414543152,0.48515862226486206,0.5668886303901672,-9.661181449890137
1745669125.2701395,-0.04817252978682518,-0.020265035331249237,0.34801992774009705,0.29968440532684326,0.955538272857666,-9.855209350585938
1745669125.2744396,-0.07519254088401794,-0.02818421460688114,0.3460608124732971,0.3965774476528168,0.4781811833381653,-9.934080123901367
1745669125.2745159,-0.04461822658777237,-0.02855578623712063,0.3454217314720154,0.32481473684310913,0.8733783960342407,-9.511220932006836
1745669125.3095024,-0.03709031641483307,-0.021005544811487198,0.3341323733329773,0.3148985803127289,0.992588222026825,-9.675512313842773
1745669125.311335,-0.049703117460012436,-0.026737192645668983,0.33466005325317383,0.4302639961242676,0.49565330147743225,-9.792466163635254
1745669125.3129296,-0.03503406047821045,-0.02727876603603363,0.3352319896221161,0.23913928866386414,1.0173419713974,-9.625665664672852
1745669125.3269742,-0.04833792895078659,-0.019140038639307022,0.33767169713974,0.43428364396095276,0.6835995316505432,-9.760146141052246
1745669125.3270726,-0.032010339200496674,-0.029255550354719162,0.33490854501724243,0.2899239659309387,1.127065658569336,-9.748788833618164
1745669125.3556783,-0.028632760047912598,-0.022895699366927147,0.3297913074493408,0.20952792465686798,1.0291115045547485,-9.85486888885498
1745669125.3598554,-0.009416243061423302,-0.027205366641283035,0.32955271005630493,0.3010837733745575,0.9619477987289429,-9.662345886230469
1745669125.359922,-0.016109982505440712,-0.020171955227851868,0.3260479271411896,0.07117976248264313,1.097919225692749,-9.645866394042969
1745669125.3639185,0.0035744730848819017,-0.03244185447692871,0.32455459237098694,0.3266719877719879,0.6280815601348877,-9.735405921936035
1745669125.4016707,-0.004986804444342852,-0.02031073346734047,0.32213884592056274,0.09397799521684647,0.9609894752502441,-9.857731819152832
1745669125.405202,-0.003024777863174677,-0.021129945293068886,0.324135959148407,0.35713493824005127,0.44101500511169434,-9.802192687988281
1745669125.4165509,-0.00774527620524168,-0.02793518267571926,0.3218424320220947,0.28410130739212036,0.8507198095321655,-9.539849281311035
1745669125.416716,-0.022150341421365738,-0.02763400413095951,0.3224017024040222,0.3160521388053894,0.563156008720398,-9.88203239440918
1745669125.4431846,-0.014782628044486046,-0.024905547499656677,0.3220374882221222,0.36952292919158936,0.6815007328987122,-9.860444068908691
1745669125.444857,-0.02789311483502388,-0.017348021268844604,0.3215530216693878,0.14278313517570496,0.850236713886261,-9.685378074645996
1745669125.4477866,-0.03148766607046127,-0.032495737075805664,0.3202425241470337,0.43329519033432007,0.7208164930343628,-9.540461540222168
1745669125.4491134,-0.01998831331729889,-0.029475916177034378,0.31692230701446533,0.233251690864563,1.0362293720245361,-9.873048782348633
1745669125.4501345,-0.01677943393588066,-0.019144807010889053,0.31576403975486755,0.3140106797218323,0.9706465601921082,-10.024477005004883
1745669125.4910257,-0.016054216772317886,-0.02578103169798851,0.31461235880851746,0.09721187502145767,0.9895648956298828,-9.628076553344727
1745669125.491119,0.014960572123527527,-0.028176164254546165,0.3133172392845154,0.48274102807044983,1.0662567615509033,-9.292875289916992
1745669125.4966211,0.00020487196161411703,-0.02959197387099266,0.31402409076690674,0.34163323044776917,0.955632209777832,-10.011999130249023
1745669125.497977,0.028705531731247902,-0.02315119467675686,0.31168463826179504,0.15877071022987366,0.9621418118476868,-10.25330924987793
1745669125.5277183,0.03217199072241783,-0.021610260009765625,0.3146538734436035,0.40022867918014526,0.8713473081588745,-9.389087677001953
1745669125.5312254,0.03816596418619156,-0.03307273983955383,0.307637482881546,0.36668533086776733,0.7889602780342102,-10.049760818481445
1745669125.5368931,0.030178582295775414,-0.026678835973143578,0.3047335743904114,0.07139460742473602,0.981907844543457,-10.245137214660645
1745669125.5403452,0.04323083162307739,-0.01256798766553402,0.29860973358154297,0.1540967971086502,0.8186140060424805,-9.421911239624023
1745669125.5705082,0.026093950495123863,-0.03731456398963928,0.2970251441001892,0.08445023745298386,0.8295356631278992,-9.31091594696045
1745669125.5906184,0.03580784052610397,-0.03437170013785362,0.2911395728588104,0.09396938979625702,0.6236892342567444,-10.183374404907227
1745669125.5907454,0.02931869588792324,-0.01830194517970085,0.2906406819820404,0.13043168187141418,0.5572028160095215,-10.173832893371582
1745669125.5908248,0.024268221110105515,-0.017344363033771515,0.2922089099884033,-0.028890768066048622,0.6911033987998962,-9.296882629394531
1745669125.6113155,0.024645136669278145,-0.037225332111120224,0.2919345796108246,0.3794308304786682,0.539620041847229,-9.264801025390625
1745669125.6134708,0.011034158989787102,-0.0346694216132164,0.2914813160896301,0.18974700570106506,0.7612142562866211,-10.389451026916504
1745669125.6151907,0.020855750888586044,-0.013924944214522839,0.2857113480567932,0.22680827975273132,0.7284218072891235,-10.346146583557129
1745669125.6173992,0.010835153050720692,-0.02551693096756935,0.2850481867790222,0.1460639387369156,0.8715224266052246,-9.167757987976074
1745669125.6191237,0.02218990959227085,-0.03254588693380356,0.2813352048397064,0.22152133285999298,0.979401707649231,-9.167989730834961
1745669125.657072,0.0077775632962584496,-0.034820687025785446,0.27745306491851807,0.287647545337677,0.8905888795852661,-10.361764907836914
1745669125.6607933,0.09071026742458344,-0.012228133156895638,0.22600364685058594,0.23846307396888733,0.8647192120552063,-9.645513534545898
1745669125.6630423,0.08067844808101654,-0.014537230134010315,0.22170379757881165,0.28740572929382324,0.6581317186355591,-9.916016578674316
1745669125.6657648,0.08920256048440933,-0.015062341466546059,0.2213265597820282,0.044727593660354614,0.6997445821762085,-9.977394104003906
1745669125.699273,0.10349448025226593,-0.011775469407439232,0.2213180512189865,0.38437002897262573,0.4966928958892822,-9.573732376098633
1745669125.7011464,0.08281507343053818,-0.008825100027024746,0.21894879639148712,0.09447547048330307,0.6523457169532776,-9.654699325561523
1745669125.702458,0.09010427445173264,-0.018226217478513718,0.22042424976825714,0.30508050322532654,0.2896263599395752,-9.937239646911621
1745669125.7053435,0.08107074350118637,-0.014604628086090088,0.2202107012271881,0.2771535813808441,0.4934784770011902,-9.854540824890137
1745669125.7076995,0.0730166882276535,-0.0025090842973440886,0.217398002743721,0.15617454051971436,0.43691715598106384,-9.759626388549805
1745669125.7463405,0.06512964516878128,-0.01619727723300457,0.21863503754138947,0.247693732380867,0.3645026683807373,-9.634946823120117
1745669125.7464702,0.06407321989536285,-0.00810311920940876,0.2165011614561081,0.1945096105337143,0.6335323452949524,-9.707944869995117
1745669125.7486553,0.05071989819407463,-0.008688296191394329,0.21410326659679413,0.3484862744808197,0.4750216007232666,-9.89842414855957
1745669125.750659,0.05973010137677193,-0.012133078649640083,0.2126626968383789,0.14098230004310608,0.6400429010391235,-9.880281448364258
1745669125.7848127,0.0703464224934578,-0.00730751920491457,0.2136693000793457,0.3896588683128357,0.7466238141059875,-9.588624000549316
1745669125.7870808,0.06099073961377144,-0.010681696236133575,0.2081577032804489,-0.000864786677993834,0.7277700304985046,-9.857820510864258
1745669125.7882485,0.09327361732721329,-0.011729500256478786,0.20727336406707764,0.22649028897285461,0.7619081139564514,-9.65973949432373
1745669125.7900224,0.0897713303565979,-0.01384645700454712,0.20413963496685028,0.2713371813297272,0.6577733755111694,-9.78347110748291
1745669125.826946,0.10061131417751312,-0.0052652666345238686,0.20215944945812225,-0.061173271387815475,0.704184889793396,-9.981207847595215
1745669125.8302646,0.10158044099807739,-0.010297697968780994,0.19905219972133636,0.20710794627666473,0.38125306367874146,-9.683547973632812
1745669125.8324337,0.09900881350040436,-0.007927030324935913,0.19863161444664001,0.07249628752470016,0.582962155342102,-9.470738410949707
1745669125.83529,0.08734563738107681,-0.01321923267096281,0.19571951031684875,0.30893027782440186,0.12599146366119385,-9.865804672241211
1745669125.8379514,0.08148747682571411,-0.01387998927384615,0.19540928304195404,0.1927865594625473,0.3356035351753235,-10.086482048034668
1745669125.8730106,0.06742212921380997,4.602251647156663e-05,0.19180868566036224,0.1972792148590088,0.30642589926719666,-9.77098274230957
1745669125.8780625,0.05372461676597595,-0.01658334955573082,0.19170208275318146,0.31502655148506165,0.20371034741401672,-9.427885055541992
1745669125.8831635,0.05024733394384384,-0.012746957130730152,0.19012770056724548,0.17512646317481995,0.5193919539451599,-9.763076782226562
1745669125.888122,0.035927675664424896,-0.014086510054767132,0.18810279667377472,0.2569267153739929,0.29415541887283325,-10.204314231872559
1745669125.9127035,0.05417938157916069,-0.007633411791175604,0.18506450951099396,0.028514793142676353,0.7905592918395996,-9.710546493530273
1745669125.9146733,0.05709001421928406,-0.011515592224895954,0.18518710136413574,0.2625441551208496,0.5483224987983704,-9.3500337600708
1745669125.9162323,0.06293933838605881,-0.021787943318486214,0.18238738179206848,0.19142703711986542,0.7785934209823608,-9.80106258392334
1745669125.9185956,0.08969106525182724,-0.011120231822133064,0.18245552480220795,0.21548373997211456,0.7599295377731323,-10.174111366271973
1745669125.9205148,0.08895380049943924,-0.009213721379637718,0.17864370346069336,0.10148070007562637,0.5697938203811646,-9.821972846984863
1745669125.957587,0.10825282335281372,-0.010532746091485023,0.17812618613243103,0.24443697929382324,0.6747487783432007,-9.207429885864258
1745669125.9615953,0.09344650059938431,-0.02058885432779789,0.1790684461593628,0.345872700214386,0.2955739498138428,-9.749041557312012
1745669125.9649115,0.09878909587860107,-0.012434466741979122,0.17535889148712158,0.052376411855220795,0.5914769768714905,-10.258349418640137
1745669125.9666405,0.090669184923172,-0.008841393515467644,0.17399807274341583,0.34567001461982727,0.2455935925245285,-9.827802658081055
1745669126.0014102,0.09033818542957306,-0.012994280084967613,0.17327344417572021,0.18500272929668427,0.39309489727020264,-9.283233642578125
1745669126.0052817,0.06692744046449661,-0.01475689746439457,0.16953185200691223,0.1697635054588318,0.2909599840641022,-9.762741088867188
1745669126.0092692,0.015013893134891987,-0.005249472800642252,0.17679278552532196,0.32819440960884094,0.9537838101387024,-9.802184104919434
1745669126.0150397,0.03958941251039505,0.012266291305422783,0.1789504587650299,0.38203349709510803,0.9869300127029419,-8.88499641418457
1745669126.042694,0.037924472242593765,0.00032801181077957153,0.1833769977092743,0.2052156627178192,0.8519170880317688,-9.715826988220215
1745669126.0460634,0.11799405515193939,0.003202795283868909,0.18437346816062927,0.38048791885375977,1.011715292930603,-10.423408508300781
1745669126.048586,0.1111452728509903,0.01773299090564251,0.19057919085025787,0.525139570236206,0.36411991715431213,-9.988801956176758
1745669126.0522487,0.1416926383972168,0.01919933222234249,0.19395712018013,0.1587260663509369,0.47796329855918884,-9.093421936035156
1745669126.0548558,0.1151718944311142,0.005585429258644581,0.20210210978984833,0.5728035569190979,-0.33985084295272827,-9.576791763305664
1745669126.086174,0.09587977826595306,0.015735110267996788,0.20603656768798828,0.34822025895118713,-0.2696724236011505,-10.404989242553711
1745669126.087266,0.06416366994380951,0.0362766794860363,0.20777805149555206,0.3812101483345032,-0.4904307425022125,-9.951326370239258
1745669126.0895426,0.0049172258004546165,0.018884845077991486,0.21217437088489532,0.3598228394985199,-0.5018255114555359,-9.128046989440918
1745669126.0910256,-0.024520140141248703,0.020062822848558426,0.21099767088890076,0.4371374249458313,-0.22349131107330322,-9.502686500549316
1745669126.13007,-0.061608076095581055,0.02251584827899933,0.21032491326332092,0.5411156415939331,-0.08945610374212265,-10.380786895751953
1745669126.1314406,-0.06029175594449043,0.03844206780195236,0.2109670341014862,0.30154454708099365,0.22031335532665253,-10.070029258728027
1745669126.1329305,-0.06595134735107422,0.026861006394028664,0.21655865013599396,0.49417251348495483,0.378994345664978,-9.197072982788086
1745669126.1335151,-0.041987769305706024,0.02155020460486412,0.21987538039684296,0.3902781903743744,0.7258433699607849,-9.511433601379395
1745669126.1741793,-0.014333573170006275,0.0314563512802124,0.22744199633598328,0.4163393974304199,0.6396831274032593,-10.37987995147705
1745669126.1758435,0.02651393786072731,0.03297287970781326,0.23182766139507294,0.2596089839935303,0.9571407437324524,-9.952927589416504
1745669126.1782167,0.045680608600378036,0.037176135927438736,0.2327418029308319,0.3606630265712738,0.8963502049446106,-9.172006607055664
1745669126.1783936,0.06080508232116699,0.018633881583809853,0.23210647702217102,0.424937903881073,0.5974962115287781,-9.523465156555176
1745669126.180189,0.08032725006341934,0.03680767863988876,0.23050186038017273,0.384493350982666,0.5477604269981384,-10.250835418701172
1745669126.2215889,0.04369356110692024,0.03680621087551117,0.2311353236436844,0.5984644889831543,-0.0407862588763237,-10.031903266906738
1745669126.221664,0.04135899245738983,0.02829648181796074,0.23326900601387024,0.48795151710510254,0.03417593985795975,-9.286277770996094
1745669126.2253182,0.0007516918703913689,0.02354869619011879,0.23845510184764862,0.6923829913139343,-0.3312809467315674,-9.652328491210938
1745669126.229422,-0.013426159508526325,0.030109692364931107,0.24071648716926575,0.40590301156044006,-0.03687300533056259,-10.332930564880371
1745669126.257905,-0.03269214555621147,0.03845326602458954,0.24559728801250458,0.4146975576877594,-0.2029000222682953,-9.903642654418945
1745669126.2613096,-0.039463918656110764,0.02776467427611351,0.2511904537677765,0.434457927942276,0.15299589931964874,-9.138100624084473
1745669126.2637258,-0.040046025067567825,0.030108977109193802,0.25390395522117615,0.25766026973724365,0.36946624517440796,-9.762594223022461
1745669126.2664328,-0.0327744334936142,0.028540056198835373,0.2522607445716858,0.3504188060760498,0.2643095850944519,-10.329124450683594
1745669126.267013,-0.018385248258709908,0.04224461317062378,0.25488728284835815,0.20763139426708221,0.7197968363761902,-9.651677131652832
1745669126.3031716,-0.019424986094236374,0.031864866614341736,0.25675398111343384,0.43783456087112427,0.2751620411872864,-9.30329418182373
1745669126.3061485,-0.008398930542171001,0.02807348594069481,0.25972703099250793,0.3652920424938202,0.5210950374603271,-9.695684432983398
1745669126.310358,-0.015297822654247284,0.042712338268756866,0.261229544878006,0.6252444982528687,0.17011846601963043,-10.180926322937012
1745669126.3138564,-0.013557595200836658,0.033442333340644836,0.2622230648994446,0.6390716433525085,0.38615843653678894,-9.751311302185059
1745669126.3444479,-0.021502967923879623,0.028626665472984314,0.266393780708313,0.5835398435592651,0.34779244661331177,-9.553189277648926
1745669126.3478117,-0.022591615095734596,0.025546913966536522,0.2680022716522217,0.5802575349807739,0.2254348248243332,-9.911932945251465
1745669126.3509223,-0.020699141547083855,0.03883970156311989,0.271323025226593,0.2581990659236908,0.6046255826950073,-9.886466979980469
1745669126.357309,0.022821439430117607,-0.04925072565674782,0.15310445427894592,0.29339978098869324,-0.03698387369513512,-9.538192749023438
1745669126.3874876,0.011499224230647087,-0.07915722578763962,0.15024375915527344,0.24635155498981476,0.11230387538671494,-9.880778312683105
1745669126.390702,-5.76984130020719e-05,-0.06055111810564995,0.14490321278572083,-0.2630021870136261,0.2992287278175354,-10.293867111206055
1745669126.3919547,0.00029400241328403354,-0.03971674665808678,0.13608309626579285,0.05739498883485794,0.4314793050289154,-9.32111930847168
1745669126.3937094,0.012214255519211292,-0.0682939738035202,0.13421553373336792,0.3569805324077606,-0.13883154094219208,-9.309382438659668
1745669126.430363,-0.008112216368317604,-0.07114923745393753,0.13515034317970276,0.14696916937828064,0.3499770164489746,-10.319262504577637
1745669126.4316351,0.017766546458005905,-0.038502149283885956,0.13890205323696136,0.02988564409315586,-0.09268323332071304,-10.449114799499512
1745669126.431707,0.025438055396080017,-0.043648507446050644,0.13927705585956573,0.28022581338882446,0.34998124837875366,-8.96149730682373
1745669126.4443731,0.014339372515678406,-0.053651295602321625,0.13656702637672424,0.4565933346748352,0.17651386559009552,-9.113847732543945
1745669126.4444692,0.003102127695456147,-0.06553195416927338,0.13144612312316895,0.46619048714637756,0.5813714265823364,-10.62947940826416
1745669126.474347,0.04230687394738197,-0.03551673889160156,0.11936378479003906,0.011654228903353214,0.6488109230995178,-10.560966491699219
1745669126.4767761,0.0200275257229805,-0.031282857060432434,0.11277691274881363,0.23205117881298065,0.38616758584976196,-8.869552612304688
1745669126.4778814,0.00429136585444212,-0.05624740198254585,0.10603475570678711,0.3960290253162384,0.29886916279792786,-8.946927070617676
1745669126.4801247,0.033354051411151886,-0.05376727506518364,0.10734093189239502,0.33313196897506714,0.5656051635742188,-10.644715309143066
1745669126.5184162,0.017763648182153702,-0.02715091034770012,0.10091231018304825,-0.06600186228752136,0.3986147344112396,-10.812797546386719
1745669126.520844,0.05984138697385788,-0.020580235868692398,0.1036151647567749,0.3104732930660248,0.43256744742393494,-8.893536567687988
1745669126.523734,0.05241917818784714,-0.05769549682736397,0.10255268961191177,0.44730788469314575,0.26815739274024963,-8.986703872680664
1745669126.537722,0.07248356193304062,-0.043455835431814194,0.10123348236083984,0.01209564134478569,0.39478665590286255,-10.906665802001953
1745669126.5378346,0.08211947977542877,-0.01774214766919613,0.10026125609874725,0.08995410799980164,0.16630929708480835,-10.658295631408691
1745669126.5609326,0.07651425898075104,-0.0208510123193264,0.09532896429300308,-0.047715090215206146,0.20966783165931702,-8.777615547180176
1745669126.5622602,0.04234723374247551,-0.03889711946249008,0.09194095432758331,0.32496485114097595,0.0011457264190539718,-8.942503929138184
1745669126.564798,0.029317770153284073,-0.04289630055427551,0.08044840395450592,0.4334508776664734,0.04716012626886368,-10.880282402038574
1745669126.5670702,0.024931352585554123,-0.009731898084282875,0.07202781736850739,0.4687858521938324,0.3346058428287506,-10.820622444152832
1745669126.6102026,0.033982276916503906,-0.03606807440519333,0.055874280631542206,1.0503486394882202,0.4549357295036316,-8.726557731628418
1745669126.6102471,0.03434715420007706,-0.025810033082962036,0.05631902068853378,0.8310819864273071,0.22472862899303436,-10.982234954833984
1745669126.6102848,0.0674767717719078,0.008497253060340881,0.054368458688259125,0.12292414903640747,0.46426334977149963,-10.964715003967285
1745669126.6139138,0.10769655555486679,0.018455734476447105,0.053646672517061234,0.2831342816352844,0.41567540168762207,-8.590143203735352
1745669126.6463635,0.09219099581241608,-0.00815923698246479,0.048684053122997284,0.17812851071357727,0.7809162139892578,-8.476225852966309
1745669126.6486356,0.12825164198875427,0.003769508097320795,0.03721906244754791,0.32186466455459595,0.5527878999710083,-10.752187728881836
1745669126.6526008,0.14282825589179993,0.028874576091766357,0.01941571570932865,0.31791481375694275,0.9903993606567383,-10.798851013183594
1745669126.652818,0.12327728420495987,0.038115955889225006,0.007829886861145496,0.3334881663322449,0.017285440117120743,-9.163658142089844
1745669126.6883357,0.12575411796569824,0.008018778637051582,0.005973058752715588,0.8861621022224426,-0.30120086669921875,-8.657354354858398
1745669126.6903632,0.06421685963869095,0.016026388853788376,0.003226685803383589,0.6725144982337952,-0.3963284492492676,-10.68797492980957
1745669126.693001,0.07889433205127716,0.042358122766017914,0.008250406943261623,0.5829278230667114,-0.6177786588668823,-10.970988273620605
1745669126.6945534,0.06092814728617668,0.044934406876564026,0.00794262532144785,0.4389573037624359,0.3085683584213257,-8.844566345214844
1745669126.7005396,0.057216815650463104,0.02701583132147789,0.00443005096167326,0.4895593225955963,0.3082555830478668,-8.85981273651123
1745669126.732977,0.057052839547395706,0.00620196433737874,-0.0299905426800251,0.2735198140144348,0.24399057030677795,-8.800686836242676
1745669126.7358959,0.0649561658501625,-0.011738971807062626,-0.03327241912484169,0.672239363193512,-0.052041180431842804,-9.428764343261719
1745669126.739157,0.05685665085911751,-0.0028310432098805904,-0.03408406674861908,-0.10803347826004028,-0.07634853571653366,-11.145392417907715
1745669126.742105,0.06415201723575592,0.02076997607946396,-0.02791879139840603,0.09091557562351227,-0.4407137334346771,-9.834071159362793
1745669126.7755935,0.047952670603990555,-0.0006336026126518846,-0.021560121327638626,0.5158817172050476,-0.23599600791931152,-7.97671365737915
1745669126.7757127,0.04586945101618767,-0.013139346614480019,-0.021433427929878235,0.2338481843471527,-0.04781653359532356,-9.876556396484375
1745669126.7776494,0.04346255213022232,-0.005128488875925541,-0.02601337432861328,0.47748398780822754,-0.003962463233619928,-11.339875221252441
1745669126.780467,0.04255465045571327,0.008009405806660652,-0.030158642679452896,0.3475547134876251,0.24698534607887268,-9.680112838745117
1745669126.780813,0.06134599447250366,-0.007032512221485376,-0.031882211565971375,0.5922673940658569,0.06709890067577362,-8.214864730834961
1745669126.8176703,0.016711793839931488,-0.03282977640628815,-0.035635367035865784,0.18322309851646423,0.005434525199234486,-9.927321434020996
1745669126.8225794,0.05193397402763367,-0.007876108400523663,-0.030363256111741066,0.3559148907661438,-0.3212120831012726,-10.989771842956543
1745669126.824681,0.032386429607868195,0.01010997872799635,-0.027777034789323807,0.23706404864788055,0.12535187602043152,-9.356369018554688
1745669126.8297398,0.05108710005879402,-0.016524042934179306,-0.024745065718889236,0.22097544372081757,-0.03282066062092781,-8.662938117980957
1745669126.8664238,0.07014844566583633,-0.030022744089365005,-0.02381303533911705,0.5821033120155334,0.2773740589618683,-9.842050552368164
1745669126.8665464,0.037624046206474304,-0.003393791615962982,-0.031704217195510864,0.2186141461133957,0.1220899373292923,-11.060943603515625
1745669126.866628,0.10270234197378159,-0.0005738098989240825,-0.035747550427913666,0.582592785358429,0.010240268893539906,-9.423967361450195
1745669126.870604,0.04406294971704483,-0.025277798995375633,-0.04120567440986633,0.5728002190589905,0.26806125044822693,-8.65536117553711
1745669126.9123404,0.08562038093805313,-0.002480538794770837,-0.04564380645751953,0.5797024965286255,-0.031600747257471085,-10.097480773925781
1745669126.9158442,0.08282820135354996,-0.017341887578368187,-0.054165225476026535,0.9975908994674683,0.0843290239572525,-10.261085510253906
1745669126.9193077,0.07966605573892593,0.002266861032694578,-0.05893533304333687,0.8797253370285034,-0.28427058458328247,-9.852775573730469
1745669126.92371,0.09066339582204819,-0.015681596472859383,-0.059666913002729416,0.7762538194656372,-0.044882114976644516,-9.407812118530273
1745669126.9252322,0.08679214864969254,-0.006282508373260498,-0.062469273805618286,0.4022273123264313,-0.4155997335910797,-9.821516990661621
1745669126.9478343,0.08919554203748703,0.0057666366919875145,-0.06581621617078781,0.5762119889259338,-0.09188920259475708,-9.727837562561035
1745669126.9507866,0.04092051461338997,0.007516820915043354,-0.09306859225034714,0.37869858741760254,-0.09844211488962173,-10.007164001464844
1745669126.9527862,0.09260126948356628,0.0030849550385028124,-0.09782394021749496,0.7113624811172485,-0.36001965403556824,-9.68018627166748
1745669126.9535315,0.05677458643913269,-0.006736778654158115,-0.10000497102737427,0.920253574848175,-0.0007782250759191811,-9.493388175964355
1745669126.9893384,0.05886698514223099,0.009702974930405617,-0.10108071565628052,0.3546808958053589,-0.40378889441490173,-10.3594331741333
1745669126.9923189,0.08780983835458755,0.01278596930205822,-0.10237199068069458,0.6264163255691528,0.08625484257936478,-9.590242385864258
1745669126.9934065,0.05869751423597336,0.005095743574202061,-0.10431549698114395,0.5903135538101196,0.0335511788725853,-9.210914611816406
1745669126.9945126,0.1017896756529808,-0.004486461635679007,-0.11053448915481567,0.5738706588745117,0.0680059939622879,-10.016181945800781
1745669127.0321574,0.10264784097671509,0.006909406278282404,-0.1178707629442215,0.30063381791114807,0.4193389415740967,-10.495552062988281
1745669127.0342152,0.13199470937252045,0.020170914009213448,-0.1244867816567421,0.28723281621932983,0.190923810005188,-9.51848316192627
1745669127.0384507,0.11323169618844986,0.00478782132267952,-0.13204410672187805,0.533908486366272,-0.04231392592191696,-8.844694137573242
1745669127.0394866,0.11822272837162018,0.000276338862022385,-0.13232001662254333,0.5223174095153809,-0.4296388626098633,-10.052719116210938
1745669127.044342,0.12568990886211395,0.00999794527888298,-0.13480684161186218,0.6231316328048706,-0.3715750575065613,-10.632043838500977
1745669127.0757973,0.0968007892370224,0.025538653135299683,-0.1339598000049591,0.4469987452030182,-0.4802876114845276,-9.745460510253906
1745669127.0786817,0.10114234685897827,0.015389176085591316,-0.20709550380706787,0.6203442811965942,-0.6725426316261292,-9.921513557434082
1745669127.0793066,0.10372612625360489,0.01204279251396656,-0.21026559174060822,0.501036524772644,-0.31235381960868835,-9.838197708129883
1745669127.0806582,0.09102314710617065,0.010703353211283684,-0.20935463905334473,0.7732170820236206,-0.560116171836853,-9.674636840820312
1745669127.1193097,0.0864659994840622,0.010641299188137054,-0.2106643170118332,0.4070280194282532,-0.44242626428604126,-9.909784317016602
1745669127.1236186,0.1002044826745987,0.009627781808376312,-0.2115669697523117,0.551814615726471,-0.548803985118866,-9.890932083129883
1745669127.1273258,0.0766993910074234,0.0057264650240540504,-0.21453961730003357,0.5044935941696167,-0.2599962055683136,-9.603525161743164
1745669127.1311572,0.09191355854272842,0.007834775373339653,-0.21272039413452148,0.4990256428718567,-0.5566695928573608,-9.669943809509277
1745669127.1352525,0.09904778748750687,0.007446864154189825,-0.2152290791273117,0.5495237708091736,-0.1636844426393509,-9.700132369995117
1745669127.1618316,0.08574947714805603,0.010450090281665325,-0.21696707606315613,0.4664599299430847,-0.3188846707344055,-9.974298477172852
1745669127.163318,0.11780174821615219,0.0023666773922741413,-0.21900610625743866,0.592586100101471,-0.4966990053653717,-9.811711311340332
1745669127.166156,0.10281028598546982,0.0036683506332337856,-0.21807046234607697,0.4182967245578766,-0.2670343816280365,-9.655433654785156
1745669127.1697302,0.10946830362081528,0.009709235280752182,-0.21717803180217743,0.5358858108520508,-0.6467882394790649,-9.766894340515137
1745669127.206646,0.09958700835704803,-0.0007458265172317624,-0.22068491578102112,0.503924548625946,-0.46765536069869995,-9.601730346679688
1745669127.209288,0.1033535748720169,0.009341159835457802,-0.2193705290555954,0.6449755430221558,-0.4464985728263855,-9.63587760925293
1745669127.2113483,0.07893143594264984,0.0002705708029679954,-0.22139449417591095,0.4635441303253174,-0.6243827939033508,-10.041666030883789
1745669127.2141569,0.09670864790678024,0.0007629509782418609,-0.22277632355690002,0.492575079202652,-0.5732921361923218,-9.9425630569458
1745669127.2161176,0.08377165347337723,0.000706368125975132,-0.22566461563110352,0.6148445010185242,-0.4199582636356354,-9.479378700256348
1745669127.2492726,0.07185415923595428,-0.0009434279054403305,-0.22604994475841522,0.3227063715457916,-0.6981557607650757,-9.68571662902832
1745669127.2513497,0.10073354095220566,-0.001930853701196611,-0.22545456886291504,0.6334953308105469,-0.3525660037994385,-9.654667854309082
1745669127.2536857,0.0607459731400013,0.0015495012048631907,-0.22755488753318787,0.513974666595459,-0.49573594331741333,-9.938070297241211
1745669127.2571323,0.10687609761953354,0.00776593666523695,-0.22536012530326843,0.44502925872802734,-0.5569567680358887,-9.789859771728516
1745669127.2926857,0.08418596535921097,-0.011658661998808384,-0.22826847434043884,0.4782208502292633,-0.27240699529647827,-9.6215181350708
1745669127.2960174,0.09720689803361893,0.001326121622696519,-0.23115091025829315,0.4960741400718689,-0.5643991827964783,-9.829046249389648
1745669127.3015754,0.07906924188137054,-0.00944112241268158,-0.2313930094242096,0.6765626668930054,-0.7319756150245667,-9.740629196166992
1745669127.3042948,0.06494680792093277,-0.010506517253816128,-0.23167090117931366,0.4759056568145752,-0.6756460070610046,-9.960474967956543
1745669127.332663,0.085087850689888,-0.00448644207790494,-0.2324036806821823,0.5172716379165649,-0.41327565908432007,-9.731396675109863
1745669127.3348475,0.04714158549904823,-0.019375115633010864,-0.23514561355113983,0.479051411151886,-0.6258024573326111,-9.635246276855469
1745669127.3371615,0.10096050798892975,-0.006360702216625214,-0.2380727231502533,0.4797496199607849,-0.29324251413345337,-9.642658233642578
1745669127.3491373,0.05862005800008774,-0.011102507822215557,-0.24009008705615997,0.6413592100143433,-0.41942667961120605,-9.75661563873291
1745669127.3745003,0.08684726059436798,-0.012254767119884491,-0.240139439702034,0.33505305647850037,-0.6455948948860168,-9.977893829345703
1745669127.3799555,0.09424181282520294,-0.013941643759608269,-0.23940224945545197,0.6289231181144714,-0.4046151638031006,-9.633630752563477
1745669127.3811972,0.06870175153017044,-0.011769706383347511,-0.2406190186738968,0.3534882664680481,-0.6845310926437378,-9.802355766296387
1745669127.3849938,0.09912849962711334,-0.014030985534191132,-0.24136218428611755,0.5061296224594116,-0.5162425637245178,-9.65568733215332
1745669127.3970718,0.06769569218158722,-0.019332950934767723,-0.24234822392463684,0.6554073095321655,-0.5915916562080383,-9.593805313110352
1745669127.420109,0.08126764744520187,-0.012038715183734894,-0.2445540428161621,0.514399528503418,-0.5826865434646606,-9.911463737487793
1745669127.4223726,0.05923202633857727,-0.017569076269865036,-0.24355736374855042,0.5376670360565186,-0.7766392827033997,-9.947774887084961
1745669127.4282992,0.030077580362558365,-0.028251076117157936,-0.26300865411758423,0.42266497015953064,-0.5734551548957825,-9.647546768188477
1745669127.4300075,0.046236440539360046,-0.023535359650850296,-0.2627919316291809,0.42455196380615234,-0.9691442251205444,-10.133646965026855
1745669127.4656596,0.04656454920768738,-0.028634434565901756,-0.26209402084350586,0.4904348850250244,-0.6158562898635864,-9.82164192199707
1745669127.4693966,0.027268528938293457,-0.021347060799598694,-0.263514906167984,0.3249220848083496,-0.6895816326141357,-9.623305320739746
1745669127.4712589,0.050288885831832886,-0.02474023401737213,-0.2640562653541565,0.5360795259475708,-0.7470225095748901,-9.557527542114258
1745669127.4754944,0.031317196786403656,-0.02569754049181938,-0.2631753087043762,0.42437443137168884,-0.5687825083732605,-9.817646026611328
1745669127.5044537,0.044170357286930084,-0.020565003156661987,-0.2592380940914154,0.5179554224014282,-0.8028116226196289,-10.029821395874023
1745669127.5084586,0.03835367411375046,-0.024727199226617813,-0.26356691122055054,0.3591773808002472,-0.620236873626709,-9.84749698638916
1745669127.5120335,0.04621351510286331,-0.020391080528497696,-0.2621672749519348,0.43124818801879883,-0.699256181716919,-9.647212982177734
1745669127.515534,0.027387958019971848,-0.02927071787416935,-0.2622743248939514,0.4932967722415924,-0.5942737460136414,-9.661829948425293
1745669127.5243077,0.04906501621007919,-0.020572569221258163,-0.26561978459358215,0.407833993434906,-0.6945483684539795,-9.902061462402344
1745669127.5508482,0.034139037132263184,-0.02162105217576027,-0.26561588048934937,0.5319549441337585,-0.6048425436019897,-9.710921287536621
1745669127.552674,0.027607634663581848,-0.01907459646463394,-0.2657572031021118,0.3438989520072937,-0.7554508447647095,-9.832842826843262
1745669127.5547304,0.0549895279109478,-0.02330586314201355,-0.26341041922569275,0.49657756090164185,-0.6550843119621277,-9.72761058807373
1745669127.5557802,0.021285826340317726,-0.02501949667930603,-0.26503199338912964,0.33565694093704224,-0.624174177646637,-9.845908164978027
1745669127.591723,0.054654985666275024,-0.01331094466149807,-0.26198720932006836,0.4522363543510437,-0.7759708166122437,-9.795056343078613
1745669127.5955992,0.033410996198654175,-0.023213783279061317,-0.263992577791214,0.4799630641937256,-0.6728354692459106,-9.548226356506348
1745669127.6005507,0.042782723903656006,-0.018267272040247917,-0.26348578929901123,0.41072916984558105,-0.676153302192688,-9.737812995910645
1745669127.6035256,0.031514525413513184,-0.02276276797056198,-0.26282036304473877,0.5482790470123291,-0.831222414970398,-9.96699047088623
1745669127.60622,0.031321488320827484,-0.017195651307702065,-0.2647286057472229,0.3148571848869324,-0.7503329515457153,-9.964469909667969
1745669127.6380615,0.024077583104372025,-0.018856024369597435,-0.2642810344696045,0.5443464517593384,-0.7242249250411987,-9.561654090881348
1745669127.6416414,0.018962953239679337,-0.022357668727636337,-0.2647421956062317,0.3627815544605255,-0.8546217679977417,-9.64844036102295
1745669127.6440861,0.03339546173810959,-0.01388374250382185,-0.26426342129707336,0.5025964975357056,-0.5066505670547485,-9.770459175109863
1745669127.6473207,0.0012409394839778543,-0.0156601183116436,-0.26569390296936035,0.5368829965591431,-0.7599315643310547,-9.953259468078613
1745669127.6792412,0.041098274290561676,-0.012732957489788532,-0.2650551199913025,0.3249156177043915,-0.568332314491272,-9.784239768981934
1745669127.6809373,0.014845920726656914,-0.020602380856871605,-0.2657115161418915,0.4607321321964264,-0.6589614152908325,-9.67371940612793
1745669127.6904585,0.03620408847928047,-0.013939490541815758,-0.26665741205215454,0.30891942977905273,-0.6442996263504028,-9.817140579223633
1745669127.6905086,0.034863777458667755,-0.014900773763656616,-0.26523828506469727,0.5298003554344177,-0.7087811231613159,-9.70210075378418
1745669127.721269,0.02753051556646824,-0.015138715505599976,-0.26430270075798035,0.4197107255458832,-0.6557100415229797,-9.718159675598145
1745669127.724004,0.0346379354596138,-0.012455063872039318,-0.26586171984672546,0.49922695755958557,-0.7375539541244507,-9.84619140625
1745669127.7266576,0.02196057140827179,-0.01748638041317463,-0.265331894159317,0.4521309733390808,-0.8384189605712891,-9.873886108398438
1745669127.7302635,0.030630623921751976,-0.009877899661660194,-0.2654336094856262,0.43899232149124146,-0.589519739151001,-9.683631896972656
1745669127.733007,0.006623242981731892,-0.019024832174181938,-0.2649657428264618,0.48766058683395386,-0.9957369565963745,-9.796274185180664
1745669127.765073,0.03573451191186905,-0.00990554690361023,-0.26440978050231934,0.31822675466537476,-0.5213702917098999,-9.697534561157227
1745669127.7689173,0.0015741899842396379,-0.010347472503781319,-0.26618871092796326,0.613856852054596,-0.7979735136032104,-9.703577995300293
1745669127.7729766,0.02290671318769455,-0.012703497894108295,-0.26532870531082153,0.31546682119369507,-0.7174174785614014,-9.821507453918457
1745669127.7754898,0.020569413900375366,-0.01779935136437416,-0.276652455329895,0.4668118953704834,-0.7603304386138916,-9.946584701538086
1745669127.8083565,-0.00048204418271780014,-0.018198836594820023,-0.2764427661895752,0.41795507073402405,-0.6596719026565552,-9.700462341308594
1745669127.8113167,0.027725690975785255,-0.014625510200858116,-0.27863451838493347,0.4003778398036957,-0.728817343711853,-9.452810287475586
1745669127.8130944,-0.0013731054496020079,-0.020637448877096176,-0.27865326404571533,0.5813683867454529,-0.6392331123352051,-9.578539848327637
1745669127.8172705,0.005051116459071636,-0.01579296961426735,-0.27878040075302124,0.4361325800418854,-0.8967544436454773,-10.124244689941406
1745669127.8502057,0.022512763738632202,-0.019858848303556442,-0.27765360474586487,0.5766282081604004,-0.7152008414268494,-9.845980644226074
1745669127.853655,-0.0039492035284638405,-0.021833932027220726,-0.276597261428833,0.3920125663280487,-0.7096604704856873,-9.553483963012695
1745669127.8577933,0.026709791272878647,-0.017086585983633995,-0.2757694125175476,0.5547357797622681,-0.8019472360610962,-9.590669631958008
1745669127.859261,8.991100185085088e-05,-0.026193127036094666,-0.2754110097885132,0.4640789031982422,-0.6691264510154724,-9.83944320678711
1745669127.8625863,0.019118953496217728,-0.016504032537341118,-0.2764543294906616,0.4079365134239197,-0.6524089574813843,-9.856976509094238
1745669127.893141,0.0036493490915745497,-0.027186090126633644,-0.27872756123542786,0.4831472337245941,-0.7961336970329285,-9.69652271270752
1745669127.8949077,0.01331212930381298,-0.023354249075055122,-0.27793556451797485,0.36610502004623413,-0.7105605602264404,-9.725862503051758
1745669127.898096,-0.0022220290265977383,-0.02761702612042427,-0.27947917580604553,0.5864065885543823,-0.7389569282531738,-9.765054702758789
1745669127.9022684,0.0034528381656855345,-0.026479538530111313,-0.27905333042144775,0.370280385017395,-0.8944205045700073,-9.815608978271484
1745669127.939473,0.011264166794717312,-0.020379453897476196,-0.27755922079086304,0.5440276861190796,-0.5540815591812134,-9.52941608428955
1745669127.9421442,-0.023378929123282433,-0.027586961165070534,-0.27914494276046753,0.509930431842804,-0.8853603601455688,-9.793421745300293
1745669127.9447665,0.02631591260433197,-0.021318674087524414,-0.27738404273986816,0.39702466130256653,-0.6016032695770264,-9.856834411621094
1745669127.9487998,-0.010924064554274082,-0.029074210673570633,-0.2770077586174011,0.4789111614227295,-0.6680505871772766,-9.80769157409668
1745669127.983965,0.022633567452430725,-0.02119622938334942,-0.2762407660484314,0.31440138816833496,-0.666764497756958,-9.6987886428833
1745669127.9883978,0.013151240535080433,-0.024760333821177483,-0.27804678678512573,0.4781222939491272,-0.6194246411323547,-9.507879257202148
1745669127.9954338,0.01458412129431963,-0.022865302860736847,-0.2787033021450043,0.3320114016532898,-0.6305491328239441,-9.733399391174316
1745669127.9970105,0.018116381019353867,-0.020724648609757423,-0.2794472575187683,0.5432737469673157,-0.7457889318466187,-9.837990760803223
1745669127.9982393,0.005664778407663107,-0.026332255452871323,-0.2782251238822937,0.4218110144138336,-0.8451575040817261,-9.860360145568848
1745669128.0230365,0.014338028617203236,-0.019678447395563126,-0.27921852469444275,0.4477638602256775,-0.5972799062728882,-9.665478706359863
1745669128.0248256,-0.00817791372537613,-0.030573617666959763,-0.27731800079345703,0.49920782446861267,-1.1091368198394775,-9.766866683959961
1745669128.0260746,0.01860489509999752,-0.021018480882048607,-0.27786320447921753,0.39386478066444397,-0.5575590133666992,-9.673723220825195
1745669128.0294037,-0.02011099085211754,-0.023909449577331543,-0.2767249047756195,0.6111401319503784,-0.8294144868850708,-9.743915557861328
1745669128.065238,0.014800098724663258,-0.021143805235624313,-0.27936139702796936,0.26652026176452637,-0.6040239334106445,-9.818638801574707
1745669128.0665526,0.0008052747580222785,-0.022273540496826172,-0.2785787582397461,0.4916003346443176,-0.5518730878829956,-9.722417831420898
1745669128.069951,0.006036579608917236,-0.029010534286499023,-0.27983206510543823,0.39755284786224365,-0.7826792001724243,-9.849761009216309
1745669128.071824,0.018403267487883568,-0.021226519718766212,-0.2804340124130249,0.4075705111026764,-0.5938510894775391,-9.774542808532715
1745669128.074588,0.0061232647858560085,-0.027318021282553673,-0.27730289101600647,0.5196875333786011,-0.864358127117157,-9.689079284667969
1745669128.1106215,0.013158637098968029,-0.02324732020497322,-0.2778947353363037,0.3961606025695801,-0.6465808153152466,-9.678494453430176
1745669128.1153336,-0.0007772741955704987,-0.025373641401529312,-0.2759396433830261,0.5976289510726929,-0.9385968446731567,-9.840295791625977
1745669128.1169307,0.01131153292953968,-0.024333493784070015,-0.27625757455825806,0.3703245520591736,-0.4913812577724457,-9.762975692749023
1745669128.117996,-0.008860488422214985,-0.02420571818947792,-0.27707594633102417,0.46779775619506836,-0.9149526357650757,-9.826197624206543
1745669128.1536965,0.026698749512434006,-0.014820541255176067,-0.274580180644989,0.4276355803012848,-0.7985786199569702,-9.83703899383545
1745669128.1552444,0.014143288135528564,-0.01629243977367878,-0.2750232219696045,0.4984418749809265,-0.6077720522880554,-9.697698593139648
1745669128.1565018,0.008018733933568,-0.01193587388843298,-0.2756953835487366,0.3614760935306549,-0.8171077966690063,-9.85673713684082
1745669128.158197,0.0318710096180439,-0.018275482580065727,-0.271505206823349,0.5058389902114868,-0.6717720031738281,-9.695005416870117
1745669128.2023609,0.00301744625903666,-0.01878337748348713,-0.27595168352127075,0.3079409897327423,-0.6341086626052856,-9.77387523651123
1745669128.20435,0.03975068777799606,-0.010877561755478382,-0.27492231130599976,0.46374931931495667,-0.7671551704406738,-9.79847526550293
1745669128.2057405,0.015130147337913513,-0.01878775656223297,-0.27418380975723267,0.411795437335968,-0.5926163196563721,-9.62243938446045
1745669128.2073925,0.03303086385130882,-0.01127631962299347,-0.2762731909751892,0.4247477650642395,-0.6919183135032654,-9.721292495727539
1745669128.2359796,0.016047310084104538,-0.01801091618835926,-0.2752254605293274,0.46725550293922424,-0.7820426821708679,-9.856039047241211
1745669128.2392585,0.023863619193434715,-0.011370012536644936,-0.27702292799949646,0.2774457037448883,-0.7329787015914917,-9.920614242553711
1745669128.2429307,0.022063899785280228,-0.014634886756539345,-0.2758948802947998,0.5332606434822083,-0.7362847328186035,-9.60273551940918
1745669128.242993,0.012249389663338661,-0.018443653360009193,-0.2757710814476013,0.3368164300918579,-0.8890311121940613,-9.704649925231934
1745669128.2451787,0.03219307214021683,-0.014198996126651764,-0.2752082347869873,0.5517484545707703,-0.567452073097229,-9.722352981567383
1745669128.2826984,-0.004486201796680689,-0.013363058678805828,-0.2751263976097107,0.4656895697116852,-0.8026357889175415,-9.923545837402344
1745669128.2863348,0.04139535874128342,-0.00761967059224844,-0.276178240776062,0.3383026719093323,-0.6629487872123718,-9.682867050170898
1745669128.2916133,0.008262201212346554,-0.021692465990781784,-0.275188684463501,0.46234169602394104,-0.6942208409309387,-9.628175735473633
1745669128.296614,0.026719296351075172,-0.0136807756498456,-0.27761727571487427,0.32025235891342163,-0.7571792602539062,-9.923260688781738
1745669128.3241572,0.0228438600897789,-0.015560546889901161,-0.27622342109680176,0.5004681348800659,-0.7060970067977905,-9.778483390808105
1745669128.328371,0.015281351283192635,-0.015302447602152824,-0.2776171565055847,0.3484055995941162,-0.7069710493087769,-9.634943962097168
1745669128.3284285,0.022029127925634384,-0.015585695393383503,-0.27618280053138733,0.5611060857772827,-0.7922724485397339,-9.632661819458008
1745669128.3317778,0.0010385358473286033,-0.02028512954711914,-0.27732330560684204,0.45189017057418823,-0.8511444330215454,-9.979780197143555
1745669128.335023,0.020683368667960167,-0.012470589950680733,-0.27599745988845825,0.3884168565273285,-0.6220344305038452,-9.858813285827637
1745669128.3704448,0.003978273365646601,-0.019168896600604057,-0.27800098061561584,0.36054471135139465,-0.8647867441177368,-9.681262969970703
1745669128.3705342,0.028828918933868408,-0.014450497925281525,-0.2742217183113098,0.40188583731651306,-0.630943775177002,-9.72953987121582
1745669128.3723752,0.005621064454317093,-0.019658872857689857,-0.27727675437927246,0.5176010131835938,-0.8457099795341492,-9.776090621948242
1745669128.4094148,0.019888103008270264,-0.008942202664911747,-0.27556851506233215,0.33676281571388245,-0.626151978969574,-9.694437980651855
1745669128.4127083,0.002552309539169073,-0.014886786229908466,-0.27686119079589844,0.5502856969833374,-0.8506765365600586,-9.659955978393555
1745669128.4176636,0.02173352614045143,-0.018107324838638306,-0.2758564352989197,0.32566994428634644,-0.5215356945991516,-9.705788612365723
1745669128.422726,-0.003834908362478018,-0.011197660118341446,-0.2780359089374542,0.45939821004867554,-0.8328722715377808,-9.869362831115723
1745669128.422822,0.021266525611281395,-0.018866727128624916,-0.2792094647884369,0.3538106679916382,-0.7423421144485474,-9.80025577545166
1745669128.4537456,0.011187560856342316,-0.01077362336218357,-0.2768048644065857,0.39658355712890625,-0.49554577469825745,-9.561450004577637
1745669128.4545872,0.007212088909000158,-0.016010742634534836,-0.2759283483028412,0.4839535653591156,-0.9302929639816284,-9.692804336547852
1745669128.4562714,0.03126104921102524,-0.011144502088427544,-0.2777453660964966,0.31281882524490356,-0.4108249545097351,-9.73826789855957
1745669128.4591122,0.0040848348289728165,-0.015295589342713356,-0.2760280966758728,0.5315669178962708,-0.9476944208145142,-9.867383003234863
1745669128.4961767,0.02659880742430687,-0.01421352755278349,-0.27584922313690186,0.2940228581428528,-0.5374726057052612,-9.804350852966309
1745669128.5073419,0.019664641469717026,-0.016934074461460114,-0.2783215343952179,0.514091432094574,-0.8389986157417297,-9.705151557922363
1745669128.5092516,0.02041543647646904,-0.01761079765856266,-0.2754974961280823,0.38942912220954895,-0.6191524267196655,-9.805697441101074
1745669128.5124931,0.02946961484849453,-0.010524643585085869,-0.27848273515701294,0.4474003314971924,-0.7791382074356079,-9.619002342224121
1745669128.51696,0.014869633130729198,-0.018950892612338066,-0.27606460452079773,0.5058950185775757,-0.8231395483016968,-9.677093505859375
1745669128.5383568,0.021634835749864578,-0.013464368879795074,-0.27706167101860046,0.3094279170036316,-0.7631417512893677,-9.967866897583008
1745669128.5406284,0.018858786672353745,-0.014538714662194252,-0.27672237157821655,0.4923039376735687,-0.7206190824508667,-9.777422904968262
1745669128.5424562,0.005082576535642147,-0.016959186643362045,-0.2776017487049103,0.27817508578300476,-0.8193361163139343,-9.723443984985352
1745669128.5540211,0.031890738755464554,-0.015750136226415634,-0.2765483260154724,0.5158414244651794,-0.6599618792533875,-9.594511032104492
1745669128.5851393,-0.005361846182495356,-0.019000504165887833,-0.27935248613357544,0.4566359519958496,-0.6929971575737,-9.876237869262695
1745669128.5876184,0.03237258642911911,-0.010003037750720978,-0.27769359946250916,0.37279602885246277,-0.7821304798126221,-9.863245010375977
1745669128.5895565,0.009217770770192146,-0.016849424690008163,-0.2790672779083252,0.43694204092025757,-0.6539767384529114,-9.598998069763184
1745669128.590456,0.01497602742165327,-0.016890205442905426,-0.276936411857605,0.286085307598114,-0.811802864074707,-9.785354614257812
1745669128.59463,0.01841794326901436,-0.018566228449344635,-0.27549922466278076,0.4980340898036957,-0.8133900761604309,-9.81933879852295
1745669128.6308303,0.012343394570052624,-0.01743556186556816,-0.27533477544784546,0.34130820631980896,-0.6691877841949463,-9.796234130859375
1745669128.631337,0.017810607329010963,-0.014100524596869946,-0.2748790979385376,0.5091654062271118,-0.7993741631507874,-9.701197624206543
1745669128.6492183,0.007052931003272533,-0.01735210418701172,-0.2754916548728943,0.3460500240325928,-0.7034168839454651,-9.710481643676758
1745669128.6493516,0.02481606975197792,-0.012714925222098827,-0.2752922475337982,0.4247422218322754,-0.6015220284461975,-9.67812728881836
1745669128.6707234,-0.006915264762938023,-0.02059977315366268,-0.27684086561203003,0.3848106265068054,-0.8971090316772461,-9.880309104919434
1745669128.6734855,0.029563898220658302,-0.013836750760674477,-0.2768785357475281,0.3145850598812103,-0.6207529306411743,-9.871831893920898
1745669128.6773865,0.005363042000681162,-0.019569052383303642,-0.2752452790737152,0.5590375661849976,-0.7275737524032593,-9.690412521362305
1745669128.6795733,0.011198613792657852,-0.013371491804718971,-0.2745664417743683,0.32641249895095825,-0.7646603584289551,-9.715962409973145
1745669128.7115178,0.024715563282370567,-0.014308804646134377,-0.2756139636039734,0.4961368441581726,-0.611851692199707,-9.665613174438477
1745669128.7147663,0.00338943675160408,-0.018169503659009933,-0.27352261543273926,0.321366548538208,-0.7760336995124817,-9.916991233825684
1745669128.7181342,-0.010039405897259712,-0.011984418146312237,-0.27453985810279846,0.48736071586608887,-0.823573112487793,-9.761625289916992
1745669128.7247725,0.011718484573066235,-0.017617452889680862,-0.27336257696151733,0.38766056299209595,-0.8159381747245789,-9.93356704711914
1745669128.7267075,0.011003266088664532,-0.014767232351005077,-0.2758566439151764,0.4346705377101898,-0.5850006341934204,-9.798060417175293
1745669128.7560506,-0.00808033812791109,-0.01602802984416485,-0.27323874831199646,0.40246787667274475,-0.9108490943908691,-9.750418663024902
1745669128.7580574,0.024001318961381912,-0.008253959938883781,-0.27419543266296387,0.3311174809932709,-0.49700355529785156,-9.561714172363281
1745669128.7591724,-0.006989332847297192,-0.017412081360816956,-0.2725299894809723,0.48830270767211914,-0.8557594418525696,-9.735923767089844
1745669128.7613792,0.014209139160811901,-0.012376882135868073,-0.2746028006076813,0.28132638335227966,-0.5493035912513733,-9.905917167663574
1745669128.818755,0.003622011747211218,-0.015132245607674122,-0.2739935517311096,0.5229628086090088,-0.867983341217041,-9.876965522766113
1745669128.8189087,0.008685742504894733,-0.019190307706594467,-0.27196234464645386,0.3359297811985016,-0.6854471564292908,-9.768773078918457
1745669128.8190837,0.003475968260318041,-0.013917753472924232,-0.27216440439224243,0.49481552839279175,-0.7446296811103821,-9.703702926635742
1745669128.819144,0.013794729486107826,-0.019274750724434853,-0.27256298065185547,0.3937658369541168,-0.807910144329071,-9.753318786621094
1745669128.84243,0.003994885832071304,-0.005221099592745304,-0.2717275023460388,0.3600926399230957,-0.4618326723575592,-9.62166690826416
1745669128.8469326,0.0023182451259344816,-0.015524419955909252,-0.2728556990623474,0.49175697565078735,-0.9440712928771973,-9.793115615844727
1745669128.8499904,0.024922996759414673,-0.013764324598014355,-0.27245160937309265,0.28321748971939087,-0.3970502018928528,-9.807069778442383
1745669128.85324,-0.00896783173084259,-0.017595473676919937,-0.26923197507858276,0.2962709069252014,-0.8034122586250305,-9.878676414489746
1745669128.8565502,0.02201247774064541,-0.019850030541419983,-0.2687106728553772,0.4883425831794739,-0.8082466125488281,-9.831644058227539
1745669128.8855374,-0.006358858197927475,-0.020884083583950996,-0.2689906060695648,0.3785156011581421,-0.5199390649795532,-9.647512435913086
1745669128.887964,0.015401536598801613,-0.012509082444012165,-0.26646342873573303,0.48579129576683044,-0.8338364362716675,-9.68629264831543
1745669128.893426,0.012420998886227608,-0.02310759201645851,-0.2688855826854706,0.36565089225769043,-0.4614807963371277,-9.690720558166504
1745669128.8957167,0.012276267632842064,-0.015648283064365387,-0.2662452161312103,0.36358970403671265,-0.7719337344169617,-9.912035942077637
1745669128.926035,0.01576170139014721,-0.02312781848013401,-0.2682913541793823,0.43818360567092896,-0.7085328698158264,-9.795303344726562
1745669128.9302173,0.017400667071342468,-0.020005039870738983,-0.27005621790885925,0.3285042345523834,-0.6732344627380371,-9.668614387512207
1745669128.9347389,0.013225358910858631,-0.02322349324822426,-0.2668471336364746,0.5227631330490112,-0.8515011668205261,-9.692452430725098
1745669128.9363515,-8.06628740974702e-05,-0.020829271525144577,-0.26639118790626526,0.3513129651546478,-0.6851961016654968,-9.790948867797852
1745669128.9393327,0.022069036960601807,-0.01614215224981308,-0.26894667744636536,0.492379367351532,-0.7730825543403625,-9.62570858001709
1745669128.974974,-0.018750445917248726,-0.02257467620074749,-0.2690355181694031,0.33776742219924927,-0.7094377279281616,-9.75361442565918
1745669128.9750679,0.023161878809332848,-0.01733005791902542,-0.26865994930267334,0.43606656789779663,-0.7953267097473145,-9.890273094177246
1745669128.9751194,-0.00012901239097118378,-0.02602263167500496,-0.26913830637931824,0.455984503030777,-0.59992516040802,-9.740686416625977
1745669128.9756734,0.005705565679818392,-0.01476028561592102,-0.2693008482456207,0.32197117805480957,-0.752739429473877,-9.728452682495117
1745669129.0114393,0.017911095172166824,-0.020306814461946487,-0.267935574054718,0.4956713616847992,-0.6142150163650513,-9.53999137878418
1745669129.0141108,0.0017540771514177322,-0.02157307043671608,-0.2708813548088074,0.3185414671897888,-0.6622689962387085,-9.835739135742188
1745669129.0183146,0.023156072944402695,-0.019743436947464943,-0.2671501934528351,0.5169571042060852,-0.7285297513008118,-9.86413860321045
1745669129.019681,0.005699276924133301,-0.026349103078246117,-0.26880961656570435,0.3916873037815094,-0.7609452605247498,-9.820158004760742
1745669129.022934,0.02034880593419075,-0.021572433412075043,-0.2687537372112274,0.42891955375671387,-0.7772176861763,-9.796875953674316
1745669129.0580454,-0.004716993775218725,-0.026900077238678932,-0.2665558457374573,0.4781211018562317,-0.7420207262039185,-9.710412979125977
1745669129.0621977,0.02234826050698757,-0.019782815128564835,-0.2690292298793793,0.33056068420410156,-0.7167913913726807,-9.628610610961914
1745669129.0666008,0.000227845084737055,-0.028086772188544273,-0.26816362142562866,0.4691162705421448,-0.8266692161560059,-9.764215469360352
1745669129.0683367,0.02059246599674225,-0.017541473731398582,-0.26615071296691895,0.3134910464286804,-0.6730090379714966,-9.814007759094238
1745669129.1017156,0.006985094398260117,-0.022048963233828545,-0.2671624422073364,0.49137407541275024,-0.8665095567703247,-9.702754974365234
1745669129.1067715,0.011533098295331001,-0.023774512112140656,-0.2690306007862091,0.32518190145492554,-0.6892822980880737,-9.774127960205078
1745669129.1128826,0.0031531304121017456,-0.023046310991048813,-0.26825737953186035,0.541122317314148,-0.7315570712089539,-9.797295570373535
1745669129.11759,0.0059481048956513405,-0.02532154880464077,-0.2669668197631836,0.3594619035720825,-0.8838576078414917,-9.861597061157227
1745669129.142776,0.011013424023985863,-0.014835668727755547,-0.26874053478240967,0.3788262605667114,-0.5471997261047363,-9.516142845153809
1745669129.1439376,-0.01432159822434187,-0.025302404537796974,-0.26829710602760315,0.4239751696586609,-0.8861444592475891,-9.66539478302002
1745669129.1482232,0.026059936732053757,-0.020813703536987305,-0.2677561640739441,0.27640432119369507,-0.5144073367118835,-9.856359481811523
1745669129.1487646,-0.006605468690395355,-0.024939175695180893,-0.26993104815483093,0.4657251238822937,-0.6775268912315369,-9.935154914855957
1745669129.1832795,0.025344396010041237,-0.018067751079797745,-0.2696667015552521,0.33129313588142395,-0.5863996744155884,-9.776158332824707
1745669129.1866307,0.013968991115689278,-0.02398710884153843,-0.2683011591434479,0.5320135354995728,-0.710959255695343,-9.542016983032227
1745669129.1894653,0.01318296231329441,-0.026124456897377968,-0.26685553789138794,0.3571370542049408,-0.7414342164993286,-9.764361381530762
1745669129.1925852,0.017690692096948624,-0.020810198038816452,-0.26745930314064026,0.3860936760902405,-0.7763720750808716,-9.91037368774414
1745669129.1943254,0.008539161644876003,-0.01827412098646164,-0.2655057907104492,0.4640325605869293,-0.7829078435897827,-9.799448013305664
1745669129.2278903,-0.0011206725612282753,-0.012593907304108143,-0.26487407088279724,0.2613552212715149,-0.5637997388839722,-9.690913200378418
1745669129.2293952,0.025010231882333755,-0.015231013298034668,-0.26569366455078125,0.4848359525203705,-0.7599064707756042,-9.575052261352539
1745669129.2305663,-0.012748725712299347,-0.0166308656334877,-0.2662891149520874,0.3382777273654938,-0.5710970759391785,-9.84533977508545
1745669129.2328174,0.018823999911546707,-0.010863477364182472,-0.26581281423568726,0.3996345102787018,-0.9259851574897766,-10.059379577636719
1745669129.2704134,0.007949319668114185,-0.01957388035953045,-0.2656978964805603,0.411445677280426,-0.5611771941184998,-9.605168342590332
1745669129.27422,-0.0026285613421350718,-0.011241365224123001,-0.2670097053050995,0.3523058295249939,-0.7976832389831543,-9.615968704223633
1745669129.2793727,0.016327250748872757,-0.016585249453783035,-0.26623889803886414,0.470022976398468,-0.7011398077011108,-9.764223098754883
1745669129.2840307,-0.004512593150138855,-0.01408818643540144,-0.26554909348487854,0.30007991194725037,-0.5671864748001099,-9.891054153442383
1745669129.313803,0.014022253453731537,-0.01173383928835392,-0.2668481171131134,0.44511207938194275,-0.7714230418205261,-9.763778686523438
1745669129.3145862,0.00041033662273548543,-0.018737029284238815,-0.26772183179855347,0.2819094955921173,-0.6210468411445618,-9.703348159790039
1745669129.3168423,0.014159826561808586,-0.014119194820523262,-0.2676984667778015,0.4069356322288513,-0.7612451314926147,-9.813325881958008
1745669129.318422,-0.00604776106774807,-0.01907472312450409,-0.2673753499984741,0.4301365911960602,-0.6908630728721619,-9.803216934204102
1745669129.323939,0.021003808826208115,-0.013387037441134453,-0.26550227403640747,0.36245179176330566,-0.7605127096176147,-9.68323802947998
1745669129.3574421,-0.002779251430183649,-0.015503096394240856,-0.2671845555305481,0.49225902557373047,-0.6507463455200195,-9.579241752624512
1745669129.3578908,0.0009243130916729569,-0.01501812320202589,-0.2644820809364319,0.279529333114624,-0.8210719227790833,-9.934239387512207
1745669129.360143,0.020304463803768158,-0.015375694260001183,-0.2675885558128357,0.44495850801467896,-0.5738967657089233,-9.841222763061523
1745669129.3611166,-0.007285462226718664,-0.018945379182696342,-0.268083393573761,0.2771390378475189,-0.6454285383224487,-9.744946479797363
1745669129.3986242,0.026773417368531227,-0.00906866043806076,-0.269487589597702,0.43695688247680664,-0.6883813738822937,-9.615394592285156
1745669129.4022446,-0.002629189984872937,-0.021341096609830856,-0.26966720819473267,0.43683862686157227,-0.7452287673950195,-9.663073539733887
1745669129.405599,0.01161268912255764,-0.013454322703182697,-0.26627451181411743,0.33630868792533875,-0.7283823490142822,-9.86497688293457
1745669129.409563,-0.0031229578889906406,-0.01620757393538952,-0.2666100859642029,0.4372958242893219,-0.8465005159378052,-9.834851264953613
1745669129.4106655,0.006001096218824387,-0.014117041602730751,-0.26564180850982666,0.25653356313705444,-0.6669990420341492,-9.750617980957031
1745669129.4466743,-0.0068190633319318295,-0.01581439934670925,-0.27010011672973633,0.40818652510643005,-0.8151865005493164,-9.736724853515625
1745669129.448007,0.034650325775146484,-0.013391153886914253,-0.26646310091018677,0.2830067574977875,-0.5443126559257507,-9.678528785705566
1745669129.4526093,-0.00011483319394756109,-0.0208866186439991,-0.26855233311653137,0.47366923093795776,-0.7216941714286804,-9.7794828414917
1745669129.4543512,0.027171557769179344,-0.010767810977995396,-0.26828864216804504,0.28130799531936646,-0.6563574075698853,-9.886932373046875
1745669129.4854534,0.021289370954036713,-0.013513552956283092,-0.2685467600822449,0.51264488697052,-0.6726773381233215,-9.566136360168457
1745669129.4871993,0.014732818119227886,-0.01778118684887886,-0.2675054967403412,0.35561245679855347,-0.6727458238601685,-9.637919425964355
1745669129.4888291,0.019700100645422935,-0.013968458399176598,-0.2658950388431549,0.4557015895843506,-0.7781111598014832,-9.913597106933594
1745669129.4909523,0.009725000709295273,-0.019156215712428093,-0.26619449257850647,0.340872585773468,-0.7921326756477356,-9.943964958190918
1745669129.4918337,0.01767878793179989,-0.008685138076543808,-0.26677078008651733,0.2995795011520386,-0.5181789398193359,-9.606904029846191
1745669129.5286815,0.003878460731357336,-0.020780423656105995,-0.26569390296936035,0.45839032530784607,-0.9574311375617981,-9.617502212524414
1745669129.5303197,0.027445584535598755,-0.011871707625687122,-0.26842713356018066,0.29942187666893005,-0.3756157457828522,-9.729654312133789
1745669129.53244,0.00175413116812706,-0.011849376372992992,-0.26656365394592285,0.5540013313293457,-0.8400706052780151,-9.918763160705566
1745669129.5336118,0.026897137984633446,-0.012553040869534016,-0.26547038555145264,0.2577541470527649,-0.6747135519981384,-9.746773719787598
1745669129.5768502,0.0057153236120939255,-0.010662834160029888,-0.2604779899120331,0.3360518515110016,-0.7171885371208191,-9.774104118347168
1745669129.5809307,0.02304844930768013,-0.011134129948914051,-0.26127323508262634,0.512791097164154,-0.6715005040168762,-9.573441505432129
1745669129.584363,0.009162068367004395,-0.014277731068432331,-0.2601678967475891,0.36053234338760376,-0.618768036365509,-9.713205337524414
1745669129.5865211,0.024217400699853897,-0.015548835508525372,-0.2591715455055237,0.4982355237007141,-0.7318444848060608,-9.89938735961914
1745669129.618795,0.0099161546677351,-0.015143254771828651,-0.25954070687294006,0.2568151652812958,-0.6782088875770569,-9.956499099731445
1745669129.6194267,0.02850990928709507,-0.009333638474345207,-0.25960201025009155,0.3492777943611145,-0.6995660066604614,-9.641885757446289
1745669129.62367,0.0027977065183222294,-0.01990005001425743,-0.26204913854599,0.43768730759620667,-0.6368623971939087,-9.517984390258789
1745669129.633139,0.029607683420181274,-0.015119597315788269,-0.26139673590660095,0.3643188178539276,-0.7279761433601379,-9.880768775939941
1745669129.6593451,0.012230876833200455,-0.01355910487473011,-0.2642246186733246,0.5040108561515808,-0.5885295867919922,-9.79414176940918
1745669129.66195,0.005173070821911097,-0.009486221708357334,-0.2635919153690338,0.35036736726760864,-0.853681743144989,-9.826189994812012
1745669129.66422,0.02906038798391819,-0.015169350430369377,-0.2617350220680237,0.4658198356628418,-0.7271275520324707,-9.635990142822266
1745669129.6667857,-0.006988228764384985,-0.020787689834833145,-0.2624486982822418,0.3412664532661438,-0.7361096143722534,-9.83098030090332
1745669129.7048306,0.030612105503678322,-0.007467201910912991,-0.2607068121433258,0.4044853746891022,-0.7604193687438965,-9.831644058227539
1745669129.7094643,0.006168773397803307,-0.011971700005233288,-0.2621607780456543,0.39804041385650635,-0.5844051241874695,-9.494436264038086
1745669129.714154,0.024850180372595787,-0.013212698511779308,-0.2619468569755554,0.3673233687877655,-0.5888084173202515,-9.620343208312988
1745669129.7167766,0.013132935389876366,-0.01905137300491333,-0.2637266516685486,0.48548898100852966,-0.7918471693992615,-10.025411605834961
1745669129.7419631,0.020718242973089218,-0.01089322566986084,-0.2626471221446991,0.2748129963874817,-0.6633961200714111,-10.04773235321045
1745669129.7442377,0.017017900943756104,-0.012507657520473003,-0.2605317533016205,0.46842679381370544,-0.6762270927429199,-9.515426635742188
1745669129.7490053,0.007975454442203045,-0.019143106415867805,-0.26210078597068787,0.2987852692604065,-0.8615723848342896,-9.51026725769043
1745669129.7533069,0.030411895364522934,-0.010972383432090282,-0.2598035931587219,0.5050314664840698,-0.45847612619400024,-9.69155502319336
1745669129.7557094,-0.005501933395862579,-0.013646779581904411,-0.26462844014167786,0.470389187335968,-0.8269648551940918,-10.045437812805176
1745669129.8036509,0.0406772717833519,-0.005811378359794617,-0.26247721910476685,0.31257495284080505,-0.5847455859184265,-9.74539852142334
1745669129.803758,0.029902582988142967,-0.012644803151488304,-0.26076215505599976,0.4975742697715759,-0.7511864304542542,-9.685672760009766
1745669129.803818,0.012632817029953003,-0.019693156704306602,-0.26136070489883423,0.44801777601242065,-0.8036388158798218,-10.016403198242188
1745669129.8038828,0.03068923018872738,-0.008838331326842308,-0.2616104185581207,0.3375145494937897,-0.5568116307258606,-9.871084213256836
1745669129.8312466,0.00404501473531127,-0.017005113884806633,-0.2611944079399109,0.42256078124046326,-0.9813857078552246,-9.646021842956543
1745669129.8358324,0.03955652192234993,-0.014390332624316216,-0.26045605540275574,0.27385836839675903,-0.5024901628494263,-9.504011154174805
1745669129.8375237,0.00043677835492417216,-0.015024672262370586,-0.26121190190315247,0.5641301870346069,-0.7916069626808167,-9.81797981262207
1745669129.8403702,0.025284413248300552,-0.009717235341668129,-0.26313334703445435,0.2854406237602234,-0.6862789392471313,-9.992383003234863
1745669129.8435988,0.023106584325432777,-0.0099421301856637,-0.2640174925327301,0.4256163239479065,-0.5157586336135864,-9.632222175598145
1745669129.874763,0.011307387612760067,-0.01983584649860859,-0.26327815651893616,0.3610092103481293,-0.8729411959648132,-9.699207305908203
1745669129.8758383,0.03251691535115242,-0.014913571067154408,-0.2617042362689972,0.35807228088378906,-0.5898305177688599,-9.810726165771484
1745669129.878231,0.013837945647537708,-0.020730124786496162,-0.2626464068889618,0.511005699634552,-0.8978726267814636,-9.850680351257324
1745669129.8812833,0.025873467326164246,-0.011891393922269344,-0.26277878880500793,0.3169446289539337,-0.5896309614181519,-9.695150375366211
1745669129.9144924,0.01229493785649538,-0.01659797504544258,-0.2629087567329407,0.5379310846328735,-0.910312294960022,-9.651601791381836
1745669129.917837,0.022929776459932327,-0.01877577416598797,-0.26260533928871155,0.3104914128780365,-0.5600556135177612,-9.720064163208008
1745669129.9204447,0.019265752285718918,-0.015241709537804127,-0.26469236612319946,0.40976205468177795,-0.8089216351509094,-9.805366516113281
1745669129.9235768,-0.001590083702467382,-0.02436411939561367,-0.26661935448646545,0.43349742889404297,-0.691731333732605,-9.752802848815918
1745669129.9242396,0.01643017865717411,-0.014234088361263275,-0.2650315463542938,0.3867277204990387,-0.8749019503593445,-9.763202667236328
1745669129.9627228,0.006157214753329754,-0.018050767481327057,-0.2640991806983948,0.5430561304092407,-0.6641372442245483,-9.547822952270508
1745669129.962829,-0.003811529604718089,-0.016289260238409042,-0.2631424069404602,0.3561585545539856,-0.7402549982070923,-9.873517990112305
1745669129.9630601,0.025607552379369736,-0.014749464578926563,-0.2596403956413269,0.413735955953598,-0.7065213918685913,-9.901904106140137
1745669129.9647884,-0.0007049791747704148,-0.01937185786664486,-0.26388710737228394,0.21993927657604218,-0.5394260287284851,-9.758956909179688
1745669130.0036647,0.027791351079940796,-0.01171969622373581,-0.26312074065208435,0.39004677534103394,-0.7105310559272766,-9.628868103027344
1745669130.0102847,0.012203952297568321,-0.021504871547222137,-0.26486629247665405,0.3871568441390991,-0.570484459400177,-9.604673385620117
1745669130.0114446,0.024237744510173798,-0.010815094225108624,-0.26533520221710205,0.3984614908695221,-0.7388755679130554,-9.852790832519531
1745669130.0137434,0.007062245160341263,-0.019083933904767036,-0.26606276631355286,0.5354324579238892,-0.8834112882614136,-9.926010131835938
1745669130.0444992,0.0069005368277430534,-0.013044094666838646,-0.26061713695526123,0.3054981231689453,-0.8328801989555359,-9.866673469543457
1745669130.0477488,0.0032564878929406404,-0.01665286347270012,-0.26052358746528625,0.4969046115875244,-0.7359739542007446,-9.604630470275879
1745669130.0498521,-0.012452815659344196,-0.018857121467590332,-0.26186490058898926,0.25736039876937866,-0.8308364748954773,-9.788966178894043
1745669130.052736,0.02087845839560032,-0.010892156511545181,-0.2618330419063568,0.4684078097343445,-0.46292051672935486,-9.646071434020996
1745669130.0569854,-0.018611934036016464,-0.018071744590997696,-0.2651841342449188,0.4186718463897705,-0.6438411474227905,-9.81098747253418
1745669130.0890608,0.0276201032102108,-0.012180695310235023,-0.26435670256614685,0.279238224029541,-0.6335328221321106,-9.864721298217773
1745669130.092425,0.003985913470387459,-0.01805051788687706,-0.2665078341960907,0.39571282267570496,-0.5781079530715942,-9.732394218444824
1745669130.0937872,0.016492998227477074,-0.013967255130410194,-0.26391515135765076,0.2511439323425293,-0.7598689794540405,-9.837334632873535
1745669130.0940733,0.02032771147787571,-0.0166437029838562,-0.26177775859832764,0.5028802156448364,-0.7313136458396912,-9.679457664489746
1745669130.1320634,0.01327921636402607,-0.016472646966576576,-0.264182984828949,0.3896815776824951,-0.7423068881034851,-9.72276496887207
1745669130.1339996,0.01674370840191841,-0.014941391535103321,-0.2611483931541443,0.5243346691131592,-0.7601076364517212,-9.8077392578125
1745669130.139197,0.013642802834510803,-0.012620829045772552,-0.2637571692466736,0.33353540301322937,-0.7163065671920776,-9.842241287231445
1745669130.1393673,0.021258193999528885,-0.011843807995319366,-0.2653549909591675,0.5069096088409424,-0.5361883044242859,-9.735211372375488
1745669130.175905,0.004482611082494259,-0.017114683985710144,-0.2633804678916931,0.3777850568294525,-0.8618308305740356,-9.875866889953613
1745669130.1806397,0.028688475489616394,-0.012149816378951073,-0.26232486963272095,0.3514546751976013,-0.6544289588928223,-9.757004737854004
1745669130.1833315,0.008233750239014626,-0.018782932311296463,-0.2647230625152588,0.46603232622146606,-0.8417824506759644,-9.693741798400879
1745669130.1870804,0.01979592815041542,-0.012410471215844154,-0.26391324400901794,0.31630128622055054,-0.62374347448349,-9.739703178405762
1745669130.1883562,0.0011325463419780135,-0.014943231828510761,-0.26384490728378296,0.4740385413169861,-0.8482219576835632,-9.775291442871094
1745669130.217941,0.021445734426379204,-0.014663152396678925,-0.2649495601654053,0.28743159770965576,-0.49778199195861816,-9.65941333770752
1745669130.2196631,-0.011883913539350033,-0.014839817769825459,-0.26717862486839294,0.4265054762363434,-0.849000096321106,-9.824743270874023
1745669130.221447,0.013410277664661407,-0.019477395340800285,-0.26944321393966675,0.36387699842453003,-0.7926767468452454,-9.90849781036377
1745669130.2246614,0.0028573595918715,-0.012497670948505402,-0.2674579918384552,0.4416119158267975,-0.6270126104354858,-9.682805061340332
1745669130.26083,-0.005938883405178785,-0.017141681164503098,-0.26567283272743225,0.4755310118198395,-0.9935066103935242,-9.728416442871094
1745669130.2616966,0.015457771718502045,-0.01059447880834341,-0.2635658383369446,0.2966715097427368,-0.5239320993423462,-9.689069747924805
