timestamp,angular_vel_x,angular_vel_y,angular_vel_z,linear_acc_x,linear_acc_y,linear_acc_z
1745727885.6762412,-0.13949093222618103,-0.07267852127552032,0.527474582195282,0.7269761562347412,0.7410563230514526,-9.59568977355957
1745727885.699292,-0.12194180488586426,-0.06751903891563416,0.5295522212982178,0.6433601975440979,0.6371069550514221,-9.990686416625977
1745727885.6993883,-0.1324654221534729,-0.06957147270441055,0.5275670886039734,0.7308910489082336,0.7516106367111206,-9.906774520874023
1745727885.6997187,-0.11943244934082031,-0.0691298320889473,0.5256730914115906,0.4920637011528015,0.7427722811698914,-9.683353424072266
1745727885.7023675,-0.12721183896064758,-0.06275232136249542,0.5279449224472046,0.7079516053199768,0.5798026323318481,-9.589300155639648
1745727885.7373009,-0.1351562887430191,-0.0658925250172615,0.5268203616142273,0.6045066118240356,0.812874972820282,-9.76164436340332
1745727885.739982,-0.1285330206155777,-0.06298796832561493,0.5267223119735718,0.6643902063369751,0.4726559519767761,-9.918806076049805
1745727885.740541,-0.14526960253715515,-0.06483779102563858,0.5258347988128662,0.7361944913864136,0.7838329076766968,-9.730855941772461
1745727885.7443044,-0.12377183139324188,-0.05412711575627327,0.5256530046463013,0.5332396030426025,0.7010911703109741,-9.696393013000488
1745727885.779324,-0.08215192705392838,-0.023215139284729958,0.5147907733917236,0.47116032242774963,0.8277482986450195,-9.759071350097656
1745727885.783117,-0.09288805723190308,-0.02549154683947563,0.5173487663269043,0.7486650347709656,0.866762638092041,-9.668591499328613
1745727885.784171,-0.07730042934417725,-0.022056344896554947,0.5134441256523132,0.5352153182029724,1.0242328643798828,-9.730769157409668
1745727885.7842839,-0.08320401608943939,-0.02296043559908867,0.513360321521759,0.6188979148864746,0.840812087059021,-9.772419929504395
1745727885.7856765,-0.07828972488641739,-0.028001094236969948,0.5136400461196899,0.5547866821289062,1.0746711492538452,-9.717024803161621
1745727885.8241851,-0.06873796880245209,-0.019005801528692245,0.51307213306427,0.6442376375198364,0.8600654602050781,-9.759824752807617
1745727885.8253243,-0.08285753428936005,-0.024109279736876488,0.5087394714355469,0.6154094934463501,1.0126316547393799,-9.70832633972168
1745727885.827997,-0.0652570128440857,-0.024841848760843277,0.5084103941917419,0.5290775895118713,0.811413586139679,-9.762945175170898
1745727885.8288095,-0.08512592315673828,-0.024103501811623573,0.5076857805252075,0.7142347097396851,0.9498896598815918,-9.6975679397583
1745727885.867041,-0.07139991968870163,-0.018490072339773178,0.5083759427070618,0.49409303069114685,0.9337339401245117,-9.755495071411133
1745727885.869555,-0.07647430896759033,-0.02100961096584797,0.5073415637016296,0.6444216966629028,0.8186675906181335,-9.685726165771484
1745727885.8711586,-0.06714891642332077,-0.025868166238069534,0.5061989426612854,0.58168625831604,1.13909912109375,-9.6709566116333
1745727885.8718157,-0.0697476714849472,-0.018931269645690918,0.5080307126045227,0.6628429889678955,0.7967042922973633,-9.830739974975586
1745727885.8747053,-0.059250153601169586,-0.02363649755716324,0.5062786340713501,0.6326265931129456,1.1815154552459717,-9.699884414672852
1745727885.92067,-0.06193503737449646,-0.020528528839349747,0.5016772150993347,0.49867352843284607,0.923531174659729,-9.7660551071167
1745727885.9208496,-0.061973877251148224,-0.025124231353402138,0.5029541254043579,0.638333797454834,0.9193412065505981,-9.681589126586914
1745727885.920939,-0.04648115113377571,-0.01946842297911644,0.5024209022521973,0.5028079152107239,1.107283115386963,-9.625585556030273
1745727885.9209878,-0.07232309877872467,-0.019718585535883904,0.5006940960884094,0.6283539533615112,0.7280782461166382,-9.810232162475586
1745727885.9550533,-0.04902050644159317,-0.027967408299446106,0.49890580773353577,0.549996554851532,1.0515704154968262,-9.708165168762207
1745727885.95759,-0.05885941535234451,-0.01893349550664425,0.5019723773002625,0.7014585733413696,0.8072490692138672,-9.693166732788086
1745727885.9576979,-0.06164276599884033,-0.021712612360715866,0.5009928345680237,0.6055941581726074,1.053893804550171,-9.721774101257324
1745727885.9599748,-0.0449899323284626,-0.02320512942969799,0.4997828006744385,0.5582521557807922,0.8415154218673706,-9.807759284973145
1745727885.9952877,-0.04744850844144821,-0.025183308869600296,0.4946405291557312,0.6334322094917297,1.0995862483978271,-9.751611709594727
1745727886.0024014,-0.04152991622686386,-0.025992508977651596,0.4951094090938568,0.5638850927352905,0.8170964121818542,-9.84090518951416
1745727886.0025845,-0.04882429912686348,-0.026720896363258362,0.4946649670600891,0.597484290599823,0.9550521969795227,-9.641829490661621
1745727886.0027504,-0.03680284693837166,-0.023441050201654434,0.49778565764427185,0.5663290023803711,0.9695844650268555,-9.53172779083252
1745727886.002825,-0.052442051470279694,-0.026077887043356895,0.49590882658958435,0.7057887315750122,0.9057859182357788,-9.78877067565918
1745727886.0380118,-0.02620862051844597,-0.029772479087114334,0.493610680103302,0.46648573875427246,1.2518221139907837,-9.921379089355469
1745727886.0392468,-0.03678636997938156,-0.024030698463320732,0.49170151352882385,0.6192275881767273,0.827844500541687,-9.696182250976562
1745727886.0429473,-0.0289238803088665,-0.0280875563621521,0.49119478464126587,0.4890965521335602,1.2282286882400513,-9.468831062316895
1745727886.0434206,-0.034920912235975266,-0.023744681850075722,0.49053555727005005,0.5496314167976379,0.7831674218177795,-9.756187438964844
1745727886.0805542,-0.034549690783023834,-0.030479002743959427,0.4905647337436676,0.6725562810897827,0.9364210367202759,-9.810328483581543
1745727886.0829206,-0.027586352080106735,-0.020536908879876137,0.49012666940689087,0.5946542024612427,0.9530541300773621,-9.766685485839844
1745727886.084411,-0.04155219346284866,-0.027643820270895958,0.49026280641555786,0.6679025888442993,0.8780908584594727,-9.625589370727539
1745727886.0879624,-0.02144141122698784,-0.02786165103316307,0.49154624342918396,0.4802340567111969,1.1150773763656616,-9.652421951293945
1745727886.1247044,-0.03160160034894943,-0.03016066551208496,0.4897780418395996,0.7049954533576965,0.9137061238288879,-9.852517127990723
1745727886.1361232,-0.0009681092342361808,-0.030962612479925156,0.4711509644985199,0.6211928129196167,1.1726223230361938,-9.6914701461792
1745727886.1366796,0.002347264438867569,-0.0279361791908741,0.4697956144809723,0.4412679076194763,0.9635265469551086,-9.84777545928955
1745727886.1378262,-0.01015250850468874,-0.03323645517230034,0.4668605923652649,0.6179529428482056,0.7693076133728027,-9.72425651550293
1745727886.169984,-0.001866726903244853,-0.03220861405134201,0.4659334123134613,0.528836727142334,1.1032898426055908,-9.607376098632812
1745727886.1717463,-0.014772730879485607,-0.02890036627650261,0.46854788064956665,0.6078463792800903,0.6279115676879883,-9.809959411621094
1745727886.1738682,-0.007724965922534466,-0.030678952112793922,0.4684947431087494,0.4522365629673004,1.087968111038208,-9.746053695678711
1745727886.175751,-0.010363683104515076,-0.028685709461569786,0.4667457640171051,0.604716420173645,0.7828642725944519,-9.703330039978027
1745727886.178191,-0.01572265848517418,-0.03488655760884285,0.46626338362693787,0.5793094038963318,1.0877685546875,-9.634284973144531
1745727886.2100658,0.0014072868507355452,-0.027559708803892136,0.4666534960269928,0.4700877070426941,0.938506007194519,-9.81382942199707
1745727886.2134233,-0.018400149419903755,-0.031910669058561325,0.4648151397705078,0.5800854563713074,0.9547407031059265,-9.83149528503418
1745727886.2175288,0.0021564834751188755,-0.028834030032157898,0.4639686644077301,0.35158514976501465,1.0075411796569824,-9.641512870788574
1745727886.2231765,-0.012404014356434345,-0.028695816174149513,0.465076744556427,0.6043668389320374,0.8118358850479126,-9.493017196655273
1745727886.252351,-0.011905771680176258,-0.03306574001908302,0.4622228145599365,0.49736452102661133,1.0615053176879883,-9.815619468688965
1745727886.2550945,-0.01242606807500124,-0.030513053759932518,0.4602004587650299,0.5575223565101624,0.766486644744873,-9.974771499633789
1745727886.25839,-0.017417971044778824,-0.02832353115081787,0.4620034098625183,0.5239248275756836,1.021662950515747,-9.600092887878418
1745727886.2597616,-0.013054681941866875,-0.025843704119324684,0.4606795310974121,0.5074664354324341,0.8263075947761536,-9.440359115600586
1745727886.2622743,-0.02822054922580719,-0.030546803027391434,0.4602932929992676,0.5924496054649353,0.8759022951126099,-9.846403121948242
1745727886.2988677,-0.012973885051906109,-0.026202449575066566,0.45945873856544495,0.38891419768333435,1.0717928409576416,-9.985258102416992
1745727886.299776,-0.026318002492189407,-0.024547474458813667,0.45986127853393555,0.6306235194206238,0.7612153887748718,-9.587794303894043
1745727886.3012376,-0.019197169691324234,-0.027691930532455444,0.45818597078323364,0.41481494903564453,1.2267526388168335,-9.441141128540039
1745727886.3047187,-0.02635502815246582,-0.025977248325943947,0.4553855359554291,0.5182348489761353,0.7399290204048157,-9.952291488647461
1745727886.3393502,-0.01685146614909172,-0.028108825907111168,0.45577138662338257,0.5454232096672058,1.1342582702636719,-9.861366271972656
1745727886.3415978,-0.02627282403409481,-0.019260147586464882,0.4533595144748688,0.5199035406112671,0.8240151405334473,-9.613788604736328
1745727886.3457937,-0.028985122218728065,-0.02465575560927391,0.4519634246826172,0.4768606722354889,1.0655906200408936,-9.605276107788086
1745727886.348036,-0.03139602392911911,-0.026673872023820877,0.45340585708618164,0.5866795778274536,0.9099711179733276,-9.664289474487305
1745727886.3503487,-0.037635691463947296,-0.03247412294149399,0.4485820233821869,0.5192395448684692,1.0751707553863525,-9.901843070983887
1745727886.3837202,-0.020157387480139732,-0.02138635702431202,0.4476967751979828,0.47439661622047424,0.9488191604614258,-9.86945915222168
1745727886.3852792,-0.04493885114789009,-0.02745492197573185,0.44707536697387695,0.549326479434967,1.0279515981674194,-9.48918342590332
1745727886.3860383,-0.02690870128571987,-0.029925286769866943,0.44357481598854065,0.4218798577785492,0.8910142779350281,-9.66463565826416
1745727886.3864934,-0.04815646633505821,-0.027930479496717453,0.4467722475528717,0.6667020916938782,0.92491614818573,-9.91046142578125
1745727886.4263163,-0.030035261064767838,-0.023479986935853958,0.4425707459449768,0.4309304654598236,1.0856164693832397,-9.876005172729492
1745727886.4263916,-0.03707215562462807,-0.022439826279878616,0.443229615688324,0.5283905267715454,0.8485957384109497,-9.533056259155273
1745727886.4285955,-0.030192604288458824,-0.03573615849018097,0.44352850317955017,0.5130959153175354,1.1088148355484009,-9.611198425292969
1745727886.4315126,-0.034846533089876175,-0.024380482733249664,0.4411563277244568,0.5218955278396606,0.8479965329170227,-9.97169303894043
1745727886.4696307,-0.030217424035072327,-0.02465437725186348,0.44272318482398987,0.5439678430557251,1.0263473987579346,-9.751680374145508
1745727886.4721372,-0.02733783982694149,-0.0256489310413599,0.4406281113624573,0.4249354302883148,1.003178596496582,-9.577526092529297
1745727886.4754975,-0.02006884105503559,-0.033173155039548874,0.4190114140510559,0.42283886671066284,1.0798251628875732,-9.967720031738281
1745727886.4774187,-0.024714481085538864,-0.03228869289159775,0.41786330938339233,0.5621975660324097,0.8346093893051147,-9.91833782196045
1745727886.514347,-0.019952137023210526,-0.03471928834915161,0.41859596967697144,0.45259562134742737,1.1182200908660889,-9.4516019821167
1745727886.5172226,-0.022353198379278183,-0.02833845652639866,0.4220426678657532,0.4785969853401184,0.8823553919792175,-9.53039264678955
1745727886.5203767,-0.029618242755532265,-0.036710210144519806,0.419604629278183,0.528179943561554,1.017172932624817,-9.972111701965332
1745727886.5221481,-0.004348904825747013,-0.030729779973626137,0.41827526688575745,0.42973852157592773,1.1567416191101074,-9.883674621582031
1745727886.5533676,-0.023112738505005836,-0.029784828424453735,0.42068108916282654,0.6085516810417175,0.9843150973320007,-9.557827949523926
1745727886.554441,-0.007192184682935476,-0.03506655618548393,0.41526150703430176,0.3563762903213501,1.2062124013900757,-9.638246536254883
1745727886.5639908,-0.013448596000671387,-0.03191681206226349,0.4139920175075531,0.5232144594192505,0.8225140571594238,-9.924409866333008
1745727886.5641537,-0.006659320089966059,-0.03275129199028015,0.41546565294265747,0.4783879220485687,1.1733977794647217,-9.699918746948242
1745727886.56428,-0.01566663756966591,-0.028891757130622864,0.4130156636238098,0.544917106628418,0.8545980453491211,-9.63410758972168
1745727886.5983396,-0.013167637400329113,-0.03944878652691841,0.41270309686660767,0.5310403108596802,1.1243250370025635,-9.701171875
1745727886.6011965,-0.003294468391686678,-0.03181777521967888,0.41319411993026733,0.41259512305259705,1.0197978019714355,-9.887453079223633
1745727886.602995,-0.012241506949067116,-0.02937396429479122,0.4132064878940582,0.6146469712257385,0.9834426045417786,-9.663887023925781
1745727886.6062636,0.0015358475502580404,-0.030353646725416183,0.41529712080955505,0.40522533655166626,1.114464282989502,-9.567489624023438
1745727886.6415927,-0.004445462021976709,-0.03210624307394028,0.41457781195640564,0.5681746602058411,0.971591591835022,-9.746979713439941
1745727886.6462052,0.003924040589481592,-0.03590986877679825,0.4124704897403717,0.4457927644252777,1.1631596088409424,-9.867460250854492
1745727886.6474888,0.017824526876211166,-0.026877835392951965,0.41186729073524475,0.4723065495491028,1.0232200622558594,-9.802083015441895
1745727886.6509876,0.004502519033849239,-0.03238079696893692,0.40979012846946716,0.4812590479850769,1.205500602722168,-9.500429153442383
1745727886.6840858,0.019240453839302063,-0.032412853091955185,0.40921124815940857,0.4311980605125427,0.9485213160514832,-9.68198299407959
1745727886.6851504,0.00583659065887332,-0.036975935101509094,0.4078966975212097,0.6659135222434998,1.0232923030853271,-9.877434730529785
1745727886.6865175,0.02175438404083252,-0.02904440090060234,0.40789079666137695,0.41225510835647583,1.0436294078826904,-9.875776290893555
1745727886.6884105,0.02239835634827614,-0.034698378294706345,0.40523290634155273,0.5013337731361389,1.0069069862365723,-9.54348087310791
1745727886.6885407,0.034512221813201904,-0.028935331851243973,0.40611904859542847,0.41096511483192444,1.1250410079956055,-9.651300430297852
1745727886.7298849,0.013193106278777122,-0.029164427891373634,0.40501007437705994,0.5783412456512451,0.7554845809936523,-9.945029258728027
1745727886.7307448,0.03520194813609123,-0.034122832119464874,0.4044272005558014,0.46284112334251404,1.1355278491973877,-9.760642051696777
1745727886.7346108,0.020221348851919174,-0.026642898097634315,0.4041546881198883,0.5285531282424927,0.7645448446273804,-9.595552444458008
1745727886.7375147,0.020759429782629013,-0.03166975826025009,0.40643471479415894,0.4791603982448578,1.0973484516143799,-9.579681396484375
1745727886.7702925,0.029528740793466568,-0.03002048470079899,0.40598875284194946,0.48217520117759705,0.827862560749054,-9.96744441986084
1745727886.7704263,0.022074788808822632,-0.03436855226755142,0.40589839220046997,0.5610364079475403,1.0918655395507812,-9.85599136352539
1745727886.7720284,0.041634541004896164,-0.02645527943968773,0.4051874577999115,0.3630964756011963,1.0244907140731812,-9.62887191772461
1745727886.7773514,0.023002738133072853,-0.03221563622355461,0.40417441725730896,0.5467875599861145,0.9872310757637024,-9.55387020111084
1745727886.7775147,0.04044212028384209,-0.03279119357466698,0.4023456573486328,0.387789249420166,1.0993722677230835,-9.872625350952148
1745727886.8235457,0.04331620782613754,-0.028302287682890892,0.4016062319278717,0.5270566344261169,0.8809296488761902,-9.89399242401123
1745727886.8236809,0.03593668341636658,-0.03041534684598446,0.3998252749443054,0.5052517652511597,1.095049262046814,-9.598329544067383
1745727886.8238885,0.04448070749640465,-0.030961528420448303,0.40169620513916016,0.46449795365333557,0.8407643437385559,-9.655248641967773
1745727886.825507,0.02824058011174202,-0.030872773379087448,0.3887401223182678,0.5903891324996948,0.8050870895385742,-9.568323135375977
1745727886.8570359,0.04141772538423538,-0.0303445216268301,0.38879984617233276,0.39438682794570923,0.8937179446220398,-9.668845176696777
1745727886.8596902,0.03051786497235298,-0.03222975134849548,0.3870674967765808,0.5315605401992798,0.7429648637771606,-9.915739059448242
1745727886.8618531,0.042294859886169434,-0.03458516672253609,0.3874313533306122,0.389643132686615,0.9604093432426453,-9.840723991394043
1745727886.8639934,0.038966841995716095,-0.026347244158387184,0.38508838415145874,0.4863712787628174,0.7209967374801636,-9.677558898925781
1745727886.8677318,0.02969796024262905,-0.033300627022981644,0.38577306270599365,0.4401461184024811,0.9506133198738098,-9.547842979431152
1745727886.9004016,0.03321834281086922,-0.031506143510341644,0.3850603997707367,0.4882226884365082,0.6215127110481262,-9.858625411987305
1745727886.9022121,0.022865261882543564,-0.036435455083847046,0.38438791036605835,0.5790743827819824,0.8566862940788269,-9.940338134765625
1745727886.9028797,0.036117278039455414,-0.02623007260262966,0.3863457441329956,0.3333238661289215,0.7851014137268066,-9.76915454864502
1745727886.9047842,0.022181803360581398,-0.029442299157381058,0.3860361874103546,0.4972657263278961,0.7546690106391907,-9.449399948120117
1745727886.9438972,0.03877950832247734,-0.03821072727441788,0.3843393921852112,0.4434105455875397,0.9857234954833984,-9.752982139587402
1745727886.944339,0.029008442535996437,-0.029078800231218338,0.3868851661682129,0.5424628257751465,0.7207026481628418,-10.082809448242188
1745727886.9459994,0.04062565416097641,-0.02844030223786831,0.3844680190086365,0.3882512152194977,1.0017855167388916,-9.699899673461914
1745727886.9464498,0.03732142224907875,-0.031294599175453186,0.3833479583263397,0.38892942667007446,0.6865233182907104,-9.509984016418457
1745727886.9862094,0.029473593458533287,-0.03477301076054573,0.38296249508857727,0.5199825763702393,0.7809756398200989,-9.68171215057373
1745727886.986416,0.03912172466516495,-0.02801898680627346,0.384304940700531,0.42762309312820435,0.7684619426727295,-9.912841796875
1745727886.9894977,0.01331773679703474,-0.02876311168074608,0.3811948895454407,0.5508264303207397,0.6410726308822632,-9.853264808654785
1745727886.994273,0.02992427721619606,-0.033687226474285126,0.38199862837791443,0.3878694772720337,0.9152129888534546,-9.572741508483887
1745727886.997431,0.013077387586236,-0.0300594475120306,0.38274145126342773,0.5276013612747192,0.5910293459892273,-9.705012321472168
1745727887.030612,0.01735859178006649,-0.02688661776483059,0.38507527112960815,0.4482366144657135,0.9043453335762024,-9.818853378295898
1745727887.0324278,0.01975623145699501,-0.024032697081565857,0.38227295875549316,0.4509314000606537,0.6056038737297058,-9.87353229522705
1745727887.0340772,0.012990830466151237,-0.03233088552951813,0.38449233770370483,0.44885072112083435,0.972417950630188,-9.588348388671875
1745727887.0367963,0.015790853649377823,-0.025380779057741165,0.38035348057746887,0.41944989562034607,0.5794164538383484,-9.941328048706055
1745727887.0715466,0.007505153305828571,-0.02688259445130825,0.3810308277606964,0.3919455111026764,0.7996271848678589,-9.688067436218262
1745727887.074186,0.015067733824253082,-0.025042226538062096,0.3837275803089142,0.42795974016189575,0.6762908697128296,-9.559618949890137
1745727887.0752027,-0.004378786776214838,-0.025605345144867897,0.3831186294555664,0.5424946546554565,0.6857201457023621,-9.7643461227417
1745727887.0754385,0.01702856458723545,-0.027392666786909103,0.38473039865493774,0.3689257502555847,0.8700049519538879,-9.92949390411377
1745727887.114159,-0.002932089613750577,-0.024705136194825172,0.3831540644168854,0.5222384333610535,0.6339995265007019,-9.818146705627441
1745727887.1173017,0.01538919098675251,-0.026140909641981125,0.3828568160533905,0.3335025906562805,0.9902361631393433,-9.601957321166992
1745727887.1194801,0.0011149498168379068,-0.022137034684419632,0.38288751244544983,0.4450662136077881,0.6100327968597412,-9.610269546508789
1745727887.1209667,-0.0034139982890337706,-0.030011126771569252,0.3818961977958679,0.48091310262680054,0.7938131093978882,-9.829744338989258
1745727887.1231806,0.007696171756833792,-0.022843685001134872,0.38249772787094116,0.43165311217308044,0.6758562326431274,-9.96894645690918
1745727887.1589932,-0.009349288418889046,-0.02294580265879631,0.38274845480918884,0.5039596557617188,0.7149420380592346,-9.661386489868164
1745727887.1618435,0.00499718589708209,-0.02114221639931202,0.3850735127925873,0.3181821405887604,0.8341600298881531,-9.508930206298828
1745727887.1655195,-0.005751476623117924,-0.026785433292388916,0.3833511471748352,0.5678440928459167,0.5875831246376038,-9.789995193481445
1745727887.1661067,0.0007720550638623536,-0.02505463734269142,0.3850178122520447,0.426474004983902,0.9281622767448425,-9.95886516571045
1745727887.2019937,0.020805325359106064,-0.0261139664798975,0.3837040066719055,0.38681140542030334,0.7036145925521851,-9.754767417907715
1745727887.2066832,0.017107265070080757,-0.030291158705949783,0.3870869576931,0.41838669776916504,0.7660378217697144,-9.6986665725708
1745727887.2067497,0.02769903838634491,-0.025267815217375755,0.3839477002620697,0.42836087942123413,0.6991984248161316,-9.722467422485352
1745727887.2079892,0.002086175139993429,-0.02569665014743805,0.3840310275554657,0.5471977591514587,0.6707719564437866,-9.848715782165527
1745727887.2080436,0.026611188426613808,-0.028623804450035095,0.3828624486923218,0.3214932084083557,0.8288257718086243,-9.788339614868164
1745727887.24246,0.006097935140132904,-0.02903865836560726,0.3843117356300354,0.4909435212612152,0.5910784006118774,-9.691436767578125
1745727887.244395,0.019816674292087555,-0.028432756662368774,0.3849238157272339,0.43388500809669495,0.9420489072799683,-9.644636154174805
1745727887.2461967,0.014300505630671978,-0.02456827089190483,0.3849380612373352,0.4430694580078125,0.5125880241394043,-9.879617691040039
1745727887.2476068,0.016555266454815865,-0.030704831704497337,0.38385143876075745,0.40069907903671265,0.9794155955314636,-9.781854629516602
1745727887.2857273,0.02361135184764862,-0.02383294887840748,0.38372689485549927,0.3941509425640106,0.6107028126716614,-9.742685317993164
1745727887.2884147,0.01668860763311386,-0.02844437025487423,0.3815399408340454,0.4440433979034424,0.8588496446609497,-9.677813529968262
1745727887.2885585,0.021798348054289818,-0.023900842294096947,0.3815196454524994,0.2925388216972351,0.7915909886360168,-9.848004341125488
1745727887.2890615,0.015619109384715557,-0.02815369889140129,0.37999576330184937,0.5432502031326294,0.5829418897628784,-9.766897201538086
1745727887.3290327,0.017965178936719894,-0.028417374938726425,0.37997108697891235,0.4220000207424164,0.8805900812149048,-9.667163848876953
1745727887.331866,0.009879162535071373,-0.022887183353304863,0.37972018122673035,0.4660923480987549,0.4307742714881897,-9.842716217041016
1745727887.3342147,0.009973379783332348,-0.02883266471326351,0.38249415159225464,0.33378225564956665,0.8030449748039246,-9.763256072998047
1745727887.3378496,0.013951582834124565,-0.022162074223160744,0.3806985020637512,0.4097225069999695,0.5756382346153259,-9.678525924682617
1745727887.3435967,-0.005317539907991886,-0.026350339874625206,0.38179081678390503,0.5103365778923035,0.7741292119026184,-9.673887252807617
1745727887.3742945,0.019712965935468674,-0.02596001699566841,0.3797541558742523,0.33688509464263916,0.8082650899887085,-9.864176750183105
1745727887.3770344,-0.001866177306510508,-0.027795335277915,0.3784101605415344,0.4785897731781006,0.648601233959198,-9.907404899597168
1745727887.37876,0.015680307522416115,-0.022038787603378296,0.3787042200565338,0.2732371389865875,0.8235251307487488,-9.66940975189209
1745727887.3804677,0.0020673114340752363,-0.02188597247004509,0.3785957396030426,0.49942153692245483,0.5395697355270386,-9.492770195007324
1745727887.4180024,-0.0007654735818505287,-0.02334326133131981,0.37586307525634766,0.3264235854148865,0.9440701603889465,-10.0212984085083
1745727887.4212122,-0.0048164622858166695,-0.018177863210439682,0.37599241733551025,0.43115323781967163,0.5622165203094482,-9.786323547363281
1745727887.423621,-0.0030731135047972202,-0.026537159457802773,0.37316831946372986,0.30439499020576477,0.9818674921989441,-9.472143173217773
1745727887.4242682,-0.004665818996727467,-0.02508118748664856,0.3726677894592285,0.35323625802993774,0.549271285533905,-9.82226848602295
1745727887.4574502,-0.0067352973856031895,-0.025578748434782028,0.3705010712146759,0.457477331161499,0.7857587337493896,-9.905621528625488
1745727887.4578426,-0.004427418578416109,-0.017978142946958542,0.37076377868652344,0.3869578242301941,0.5827429294586182,-9.770418167114258
1745727887.4599192,-0.022130880504846573,-0.02723800204694271,0.3714945912361145,0.48097071051597595,0.5978841185569763,-9.586642265319824
1745727887.4616022,-0.011013305746018887,-0.02705525793135166,0.37288612127304077,0.2932394742965698,0.6847124099731445,-9.750940322875977
1745727887.4636273,-0.02518201805651188,-0.021060725674033165,0.37331533432006836,0.5567642450332642,0.5530203580856323,-9.882152557373047
1745727887.5040627,-0.02343609556555748,-0.02180120348930359,0.3729782700538635,0.38026610016822815,0.8403559923171997,-9.783241271972656
1745727887.5044124,-0.01841583475470543,-0.022707875818014145,0.37308269739151,0.36930227279663086,0.6521018743515015,-9.675497055053711
1745727887.5072186,-0.02728714607656002,-0.029592672362923622,0.37103861570358276,0.44230788946151733,0.8290573954582214,-9.714640617370605
1745727887.5141208,-0.0066033415496349335,-0.020669158548116684,0.37158340215682983,0.3063346743583679,0.8112457394599915,-9.896034240722656
1745727887.5565255,-0.02757991850376129,-0.022737372666597366,0.3687431812286377,0.4076002240180969,0.7679824829101562,-9.722112655639648
1745727887.556632,-0.052612997591495514,-0.023222699761390686,0.3666324019432068,0.47977709770202637,0.6031340956687927,-9.712084770202637
1745727887.5567107,-0.047320615500211716,-0.023488104343414307,0.3671700656414032,0.4584280848503113,0.8962593078613281,-9.794540405273438
1745727887.5567834,-0.04731021076440811,-0.023967590183019638,0.36325955390930176,0.48340240120887756,0.6815865635871887,-9.857563972473145
1745727887.5872166,-0.037256039679050446,-0.02266092225909233,0.361659973859787,0.09946992993354797,1.1161682605743408,-9.733625411987305
1745727887.588666,-0.028340494260191917,-0.02501032128930092,0.35799717903137207,0.18245984613895416,0.8145977854728699,-9.633660316467285
1745727887.5922768,-0.025154370814561844,-0.032943081110715866,0.35242176055908203,0.1977647840976715,1.0347379446029663,-9.657234191894531
1745727887.5933783,0.005520973354578018,-0.020721908658742905,0.3525892198085785,-0.020375292748212814,0.8324396014213562,-9.84844970703125
1745727887.5968032,-0.03207790106534958,-0.024809937924146652,0.3505331575870514,0.10117622464895248,0.5391855239868164,-9.827352523803711
1745727887.6335187,0.0032625063322484493,-0.0279841311275959,0.3510015904903412,0.13093706965446472,0.49481526017189026,-9.561111450195312
1745727887.6346836,-0.040189217776060104,-0.02450486458837986,0.3466125428676605,0.49262991547584534,0.44628268480300903,-9.581686019897461
1745727887.636311,-0.05879788473248482,-0.03117026761174202,0.3478294014930725,0.25070810317993164,0.3921617269515991,-10.143911361694336
1745727887.6487598,-0.050389427691698074,-0.02704903855919838,0.34290024638175964,0.3724103569984436,0.35992687940597534,-9.857441902160645
1745727887.673832,-0.10460307449102402,-0.027884479612112045,0.34240591526031494,0.332908570766449,0.6023966670036316,-9.447111129760742
1745727887.6744492,-0.08802761137485504,-0.03305121511220932,0.34196987748146057,0.3422858715057373,0.5082544088363647,-9.693214416503906
1745727887.6771078,-0.10258819162845612,-0.033648937940597534,0.34090983867645264,0.30792275071144104,1.0143711566925049,-9.940984725952148
1745727887.677741,-0.0782729834318161,-0.02811403013765812,0.33869439363479614,0.0150461969897151,1.1359628438949585,-9.86555290222168
1745727887.6823168,-0.07986201345920563,-0.027304287999868393,0.3348291218280792,0.35692504048347473,1.0159145593643188,-9.43869400024414
1745727887.7192602,-0.021916506811976433,-0.040329452604055405,0.33399224281311035,0.3139015734195709,1.5162975788116455,-9.588212966918945
1745727887.7223637,-0.0370490588247776,-0.030032631009817123,0.33202916383743286,0.25456637144088745,0.9807945489883423,-10.235246658325195
1745727887.7249837,0.00041888802661560476,-0.03252190351486206,0.33016905188560486,0.21326234936714172,0.928135097026825,-9.894627571105957
1745727887.7282882,0.011264218017458916,-0.029464248567819595,0.33269834518432617,0.3214927315711975,1.0021218061447144,-9.136224746704102
1745727887.761294,-0.026741981506347656,-0.03681135177612305,0.3307384252548218,0.3459135890007019,0.5270512700080872,-9.747268676757812
1745727887.7631114,-0.055936336517333984,-0.03846804052591324,0.31551921367645264,0.19274163246154785,0.775469958782196,-9.107364654541016
1745727887.7741349,-0.03493563458323479,-0.043523211032152176,0.31775861978530884,0.26245617866516113,0.7488155364990234,-9.75592041015625
1745727887.7742684,-0.05453523248434067,-0.030130654573440552,0.31350645422935486,0.2307867705821991,0.7999805212020874,-10.474177360534668
1745727887.8122566,-0.03610862046480179,-0.028278592973947525,0.31143924593925476,0.05648351460695267,0.8257350921630859,-9.791742324829102
1745727887.8123205,-0.041756514459848404,-0.0379849337041378,0.30650562047958374,0.3758244216442108,0.827248215675354,-8.985231399536133
1745727887.8123724,-0.06390627473592758,-0.04710378497838974,0.30480313301086426,0.20949876308441162,0.9215167164802551,-9.850220680236816
1745727887.812423,-0.03677015379071236,-0.03246260806918144,0.30134057998657227,0.23000112175941467,0.7353398203849792,-10.518535614013672
1745727887.8137434,-0.05833845213055611,-0.031749580055475235,0.29787057638168335,0.23047690093517303,1.1360249519348145,-9.603958129882812
1745727887.8467708,-0.03135481849312782,-0.04154907539486885,0.29623162746429443,0.23560945689678192,0.9013360142707825,-9.143251419067383
1745727887.8501377,-0.03628399968147278,-0.046242017298936844,0.2965594232082367,0.4237421154975891,1.0566980838775635,-9.887602806091309
1745727887.8509092,-0.0053617991507053375,-0.03685208037495613,0.29516810178756714,0.10083319991827011,1.0484126806259155,-10.539548873901367
1745727887.8557477,-0.0014363344525918365,-0.032954297959804535,0.2957952618598938,0.18530623614788055,0.8158897161483765,-9.596966743469238
1745727887.8891006,0.011736069805920124,-0.03974757343530655,0.29747992753982544,0.11551990360021591,0.923793613910675,-8.972397804260254
1745727887.8910685,0.01622139848768711,-0.03900773450732231,0.2986518442630768,0.22465750575065613,0.8401988744735718,-9.914573669433594
1745727887.8966985,0.02420671656727791,-0.029163336381316185,0.2224798947572708,0.16699866950511932,0.36679503321647644,-10.017288208007812
1745727887.8967397,0.03849656134843826,-0.03540686517953873,0.2227659970521927,0.17078931629657745,1.035857915878296,-9.353530883789062
1745727887.9330106,0.0363989919424057,-0.03234289214015007,0.21932020783424377,0.02168264612555504,0.6599021553993225,-9.693122863769531
1745727887.9342756,0.04770105332136154,-0.032861120998859406,0.2223348319530487,0.12996646761894226,0.8816680908203125,-10.062695503234863
1745727887.93799,0.06523703038692474,-0.026455257087945938,0.21819742023944855,-0.013436014764010906,0.9455686807632446,-9.842475891113281
1745727887.939924,0.060485392808914185,-0.02936381660401821,0.2175775021314621,0.17351773381233215,0.6205040216445923,-9.53974723815918
1745727887.9429538,0.06523501127958298,-0.032838255167007446,0.21553680300712585,0.12712343037128448,0.9717575311660767,-9.658636093139648
1745727887.9802632,0.06614213436841965,-0.023614495992660522,0.21159520745277405,0.28360337018966675,0.4299120008945465,-10.107366561889648
1745727887.9803739,0.052226919680833817,-0.03296629711985588,0.21062345802783966,0.2569529116153717,0.7780441641807556,-9.875788688659668
1745727887.9814224,0.05285301059484482,-0.024052318185567856,0.2097497433423996,0.14454546570777893,0.3709060549736023,-9.685562133789062
1745727887.985378,0.040080584585666656,-0.029360268265008926,0.21008363366127014,0.28240498900413513,0.8152524828910828,-9.537031173706055
1745727888.0192957,0.04517998918890953,-0.0309344083070755,0.20727162063121796,0.08934494107961655,0.7308731079101562,-9.99052906036377
1745727888.0210884,0.053655415773391724,-0.02874564565718174,0.20722384750843048,0.25084105134010315,0.7255763411521912,-10.009930610656738
1745727888.0247457,0.06271295994520187,-0.021358180791139603,0.20293183624744415,-0.0030519142746925354,1.1409783363342285,-9.55249309539795
1745727888.0284212,0.06886545568704605,-0.027658436447381973,0.20193080604076385,0.0831756442785263,0.5861707925796509,-9.659296035766602
1745727888.0606906,0.08652327954769135,-0.03407449647784233,0.20224277675151825,0.18118879199028015,1.0700383186340332,-9.754537582397461
1745727888.0627751,0.099135622382164,-0.016933917999267578,0.19722247123718262,0.10695521533489227,0.6784577369689941,-10.110294342041016
1745727888.0655894,0.09175218641757965,-0.02800953947007656,0.1964205503463745,0.1629020869731903,0.7641102075576782,-9.647563934326172
1745727888.2119434,0.11334896087646484,-0.02753409743309021,0.19401192665100098,0.09518348425626755,0.5676980018615723,-9.58169937133789
1745727888.2120016,0.09023866802453995,-0.023989323526620865,0.1900234967470169,0.24429190158843994,0.6012283563613892,-9.79745864868164
1745727888.2120998,0.09185624122619629,-0.019943367689847946,0.18762175738811493,0.04364614561200142,0.5358471274375916,-9.997516632080078
1745727888.212183,0.08723510801792145,-0.009564297273755074,0.16887664794921875,0.16611213982105255,0.6338991522789001,-9.845344543457031
1745727888.212284,0.10521234571933746,-0.016527391970157623,0.1662125438451767,0.10794611275196075,0.8742685317993164,-9.650030136108398
1745727888.212361,0.1129278689622879,-0.012143704108893871,0.1620221734046936,0.15614192187786102,0.6435011029243469,-9.759589195251465
1745727888.212446,0.10633139312267303,-0.016359932720661163,0.15788641571998596,0.14443880319595337,0.7687348127365112,-9.848386764526367
1745727888.2125146,0.12255789339542389,-0.0076822987757623196,0.15663787722587585,0.10162602365016937,0.5347874760627747,-9.809006690979004
1745727888.2125766,0.11246488243341446,-0.01304207555949688,0.15263321995735168,0.31288474798202515,0.5926945209503174,-9.590228080749512
1745727888.2126422,0.11016064882278442,-0.015320071950554848,0.15248596668243408,0.15325535833835602,0.5326291918754578,-9.798617362976074
1745727888.2126987,0.12174686044454575,-0.009014317765831947,0.15013915300369263,0.2642250955104828,0.5250751972198486,-9.918012619018555
1745727888.2127364,0.10458216816186905,-0.009813863784074783,0.14993815124034882,0.031025970354676247,0.6213491559028625,-9.775652885437012
1745727888.2127728,0.13907058537006378,-0.005605562590062618,0.14831432700157166,0.1167953759431839,0.44025030732154846,-9.632832527160645
1745727888.2128096,0.11024492979049683,-0.010248729027807713,0.14683252573013306,0.19049236178398132,0.7152735590934753,-9.64067554473877
1745727888.2128477,0.13725122809410095,-0.0033089492935687304,0.1435619443655014,-0.09578217566013336,0.38073235750198364,-10.026118278503418
1745727888.2321696,0.12151484191417694,-0.006402391940355301,0.1384490430355072,0.23854462802410126,0.5229003429412842,-9.640490531921387
1745727888.237026,0.1350279152393341,-0.0013518055202439427,0.13946421444416046,0.08160693943500519,0.4910762906074524,-9.565134048461914
1745727888.23708,0.10714039951562881,-0.003263693768531084,0.1369556486606598,0.21928517520427704,0.33328890800476074,-9.834396362304688
1745727888.2395904,0.11118854582309723,0.009279849007725716,0.13257922232151031,0.34859174489974976,-0.12027928978204727,-9.554224014282227
1745727888.2760422,0.12031401693820953,0.008377467282116413,0.13508689403533936,0.14243988692760468,0.2144116461277008,-9.525434494018555
1745727888.278841,0.07783535867929459,0.008096428588032722,0.13476762175559998,0.2318609058856964,-0.1702960729598999,-10.061639785766602
1745727888.282442,0.10284149646759033,0.009285716339945793,0.13392412662506104,0.24415473639965057,0.32810178399086,-9.835966110229492
1745727888.284961,0.07607495784759521,0.0202084481716156,0.13348551094532013,0.15425121784210205,0.12963637709617615,-9.577306747436523
1745727888.3210077,0.0745130181312561,0.0014109439216554165,0.13377328217029572,0.26954367756843567,0.26293036341667175,-9.628214836120605
1745727888.451068,0.100153349339962,0.006702118553221226,0.13692092895507812,0.20658588409423828,0.4006078243255615,-9.994731903076172
1745727888.4511802,0.0767948180437088,0.014165962114930153,0.13639594614505768,0.25335693359375,0.2896044850349426,-9.998685836791992
1745727888.4513109,0.11356848478317261,0.012712257914245129,0.13551834225654602,0.12271882593631744,0.47740012407302856,-9.500859260559082
1745727888.4514234,0.09801194816827774,0.005682679358869791,0.1355029195547104,0.37714236974716187,0.3586275279521942,-9.564264297485352
1745727888.451557,0.11372246593236923,0.003970678895711899,0.13820575177669525,0.20104244351387024,0.4555719494819641,-10.085936546325684
1745727888.4517484,0.12327797710895538,0.01598588563501835,0.1344384253025055,0.2268684208393097,0.2505086064338684,-9.97712516784668
1745727888.4518666,0.10954185575246811,0.00648953253403306,0.1350305825471878,0.2730315327644348,0.2210806906223297,-9.473466873168945
1745727888.4519262,0.11823759227991104,0.0045318603515625,0.13309891521930695,0.11461706459522247,0.10951359570026398,-9.615842819213867
1745727888.4520469,0.09054754674434662,0.006362206302583218,0.13410787284374237,0.34466758370399475,0.049908243119716644,-9.982645034790039
1745727888.4521208,0.11075607687234879,0.01340386550873518,0.13303452730178833,0.13789714872837067,0.1169733852148056,-9.917320251464844
1745727888.452163,0.07677881419658661,0.008736999705433846,0.13476362824440002,0.25815892219543457,-0.07503671944141388,-9.55534553527832
1745727888.4522088,0.08487270772457123,0.007316712290048599,0.13477781414985657,0.2311626374721527,0.16146865487098694,-9.593729019165039
1745727888.452255,0.07639984786510468,0.009010114707052708,0.137377068400383,0.29825448989868164,-0.08743326365947723,-9.96277141571045
1745727888.4522932,0.06181957572698593,0.014712932519614697,0.1373605728149414,0.22299861907958984,0.11650290340185165,-9.9769287109375
1745727888.4523692,0.07290367037057877,0.014935213141143322,0.14001862704753876,0.15311019122600555,0.06815837323665619,-9.550016403198242
1745727888.4524176,0.10014195740222931,0.006705351173877716,0.14150527119636536,0.17382988333702087,0.2631848156452179,-9.441047668457031
1745727888.4544728,0.07058704644441605,0.009369386360049248,0.14344076812267303,0.3869084417819977,-0.15958309173583984,-9.814434051513672
1745727888.4913964,0.08317030966281891,0.008518921211361885,0.14399601519107819,0.14126983284950256,0.19457821547985077,-10.06273078918457
1745727888.492754,0.06187579035758972,0.012059817090630531,0.1428975760936737,0.27196004986763,-0.29154160618782043,-9.792635917663574
1745727888.4959078,0.06542785465717316,0.007791251875460148,0.14664992690086365,0.244581937789917,0.1989501416683197,-9.382217407226562
1745727888.498092,0.04689833149313927,0.009352149441838264,0.14385060966014862,0.24544624984264374,-0.21550031006336212,-9.844685554504395
1745727888.5371716,0.041958097368478775,0.008907330222427845,0.1467939019203186,0.39245063066482544,0.042884740978479385,-9.978791236877441
1745727888.5390527,0.045706700533628464,0.016534561291337013,0.14513030648231506,0.16651275753974915,0.1606440246105194,-9.835497856140137
1745727888.54016,0.030012378469109535,0.008115272037684917,0.1457105129957199,0.3222557604312897,0.033232659101486206,-9.548945426940918
1745727888.5415852,0.056375205516815186,0.006700505502521992,0.1480158120393753,0.3126288652420044,0.35104361176490784,-9.70185375213623
1745727888.5434062,0.03553014248609543,0.012437840923666954,0.14826059341430664,0.26744547486305237,0.0609087273478508,-10.14082145690918
1745727888.702122,0.05650929734110832,0.00434290524572134,0.14914588630199432,0.19477753341197968,0.2633652687072754,-9.806711196899414
1745727888.7022536,0.06287376582622528,0.01356555987149477,0.14889061450958252,0.23573556542396545,0.21241578459739685,-9.439886093139648
1745727888.7023928,0.05315319448709488,0.006144226528704166,0.1477900892496109,0.2654644846916199,0.19911815226078033,-9.698158264160156
1745727888.7024727,0.07068590819835663,0.005288966465741396,0.14883530139923096,0.29402992129325867,0.09971998631954193,-10.089361190795898
1745727888.7025785,0.01221928559243679,0.0002614182885736227,0.1637156903743744,0.3527142405509949,-0.02772212028503418,-9.773958206176758
1745727888.7026248,-0.009935201145708561,0.004535772372037172,0.162167489528656,0.3598700165748596,0.13967840373516083,-9.884748458862305
1745727888.702699,0.010492971166968346,0.005506807006895542,0.16515591740608215,0.17173834145069122,0.04036059230566025,-9.844453811645508
1745727888.70274,-0.01092900987714529,-0.0007149608572944999,0.1667601764202118,0.43525728583335876,-0.05065904185175896,-9.624561309814453
1745727888.702802,-0.00021620924235321581,0.0024689561687409878,0.16429072618484497,0.22198061645030975,0.1495952159166336,-9.766077041625977
1745727888.7028625,-0.007153952028602362,0.002116092015057802,0.16634038090705872,0.3100510239601135,-0.05331363528966904,-9.94782829284668
1745727888.7029076,-0.010799365118145943,-0.0005390647565945983,0.16497094929218292,0.2654193937778473,0.12847788631916046,-9.759498596191406
1745727888.7029514,0.002755403518676758,0.008484079502522945,0.16586191952228546,0.2997819483280182,-0.02509075403213501,-9.643033981323242
1745727888.702989,-0.028634676709771156,-0.0016070157289505005,0.16778874397277832,0.3233083486557007,0.08072450757026672,-9.727346420288086
1745727888.7083783,-5.5246055126190186e-05,-0.00118126324377954,0.1687270849943161,0.27994227409362793,-0.07118208706378937,-9.935646057128906
1745727888.7120514,-0.028999898582696915,0.005148214288055897,0.1698974072933197,0.35581785440444946,0.13151071965694427,-9.884010314941406
1745727888.7121012,-0.008800512179732323,0.0007103594834916294,0.1686040461063385,0.18672244250774384,0.043342988938093185,-9.661299705505371
1745727888.7147603,-0.015487393364310265,0.0033261750359088182,0.17072734236717224,0.4284527897834778,0.11069154739379883,-9.591204643249512
1745727888.7476196,-0.02231837622821331,-0.0030641434714198112,0.17051908373832703,0.2897740602493286,0.22743742167949677,-9.974764823913574
1745727888.7508647,-0.004854950122535229,0.0017155876848846674,0.17106635868549347,0.335171103477478,-0.11197863519191742,-10.006908416748047
1745727888.7523582,-0.014832520857453346,0.006899776868522167,0.17232391238212585,0.3067694902420044,0.37774863839149475,-9.55870246887207
1745727888.7557533,-0.013272074051201344,-0.002679624129086733,0.16930577158927917,0.16965708136558533,-0.10659432411193848,-9.673318862915039
1745727888.7682123,-0.011937642470002174,-0.0055520799942314625,0.1717412769794464,0.4421657621860504,0.16484208405017853,-9.793375015258789
1745727888.7960963,-0.013558005914092064,0.006934206001460552,0.17179429531097412,0.24359861016273499,0.08739612996578217,-10.027425765991211
1745727888.7971978,-0.017966145649552345,0.0032034299802035093,0.1701522320508957,0.3246240019798279,-0.07782648503780365,-9.739713668823242
1745727888.7993052,-0.020041560754179955,-0.009014667943120003,0.17207977175712585,0.316192090511322,0.22038540244102478,-9.461685180664062
1745727888.803701,-0.01819349266588688,-0.004380179103463888,0.17849963903427124,0.45260515809059143,0.32539236545562744,-9.953852653503418
1745727888.9544866,-0.02745157852768898,0.0058587840758264065,0.17941555380821228,0.17054922878742218,0.007714075036346912,-10.22105598449707
1745727888.9545743,-0.026884526014328003,-0.001983014866709709,0.17690476775169373,0.41073402762413025,0.0886475071310997,-9.513333320617676
1745727888.9547353,-0.0216996930539608,-0.0004950558650307357,0.1781679093837738,0.2923249900341034,0.24011294543743134,-9.423694610595703
1745727888.954859,-0.037253960967063904,-0.004253135994076729,0.17823226749897003,0.35220903158187866,-0.02875015139579773,-10.086159706115723
1745727888.9550126,-0.024517187848687172,-0.005461837165057659,0.17943435907363892,0.30661648511886597,0.25582122802734375,-10.070161819458008
1745727888.9550896,-0.02785893902182579,0.0049272864125669,0.17825964093208313,0.36524850130081177,-0.05464794486761093,-9.633259773254395
1745727888.9551315,-0.03209850192070007,-0.007454543374478817,0.17814478278160095,0.25329697132110596,0.24335651099681854,-9.450966835021973
1745727888.9551709,-0.02850903943181038,-0.0039059724658727646,0.18178614974021912,0.2806321978569031,-0.012064056470990181,-9.973895072937012
1745727888.9552128,-0.03184371441602707,-0.0026795899029821157,0.18101727962493896,0.4268869459629059,0.09779131412506104,-10.028088569641113
1745727888.9552507,-0.02734549716114998,0.0021076228003948927,0.18021291494369507,0.190852090716362,0.24102731049060822,-9.655179977416992
1745727888.9552877,-0.04162464663386345,-0.00899745337665081,0.18192428350448608,0.4157392084598541,-0.14100080728530884,-9.579225540161133
1745727888.9553328,-0.01936591975390911,-0.0025082076899707317,0.18332917988300323,0.2556998133659363,0.37060946226119995,-9.775324821472168
1745727888.955362,-0.0463583841919899,0.0022053862921893597,0.18157976865768433,0.2396089732646942,-0.0541817769408226,-10.106424331665039
1745727888.9660716,-0.030379105359315872,-0.006773722358047962,0.18556030094623566,0.3766104280948639,0.17872272431850433,-9.59701156616211
1745727888.9688466,-0.016037937253713608,-0.015261699445545673,0.1691962033510208,-0.31379610300064087,-0.21815404295921326,-9.80162239074707
1745727888.9722219,-0.010598373599350452,-0.020330045372247696,0.1715228110551834,0.2910143733024597,-0.25156402587890625,-9.183943748474121
1745727888.9731913,-0.04571661353111267,-0.018812676891684532,0.17178015410900116,0.337599515914917,-0.07730185985565186,-9.862139701843262
1745727889.0074873,-0.0361638069152832,-0.024822702631354332,0.16875571012496948,0.059904228895902634,-0.24968472123146057,-10.593008041381836
1745727889.0132084,-0.07034579664468765,-0.015824900940060616,0.1679057776927948,0.17769522964954376,-0.09550033509731293,-9.616521835327148
1745727889.0165663,-0.06001964956521988,-0.02195313200354576,0.16400694847106934,0.053344130516052246,0.12873072922229767,-9.070627212524414
1745727889.0203092,-0.10854961723089218,-0.03815118968486786,0.16027438640594482,0.2097676545381546,0.07728677988052368,-9.93423080444336
1745727889.026786,-0.059553008526563644,-0.030169611796736717,0.15483175218105316,0.08823303878307343,0.5431092381477356,-10.40755558013916
1745727889.0519147,-0.07269777357578278,-0.018270861357450485,0.15056438744068146,0.06644678860902786,0.6350313425064087,-9.695055961608887
1745727889.056158,-0.046992771327495575,-0.03800033777952194,0.147049218416214,0.12759001553058624,0.7288593649864197,-9.246246337890625
1745727889.0568714,0.009815025143325329,-0.0393231101334095,0.1519007384777069,0.35383936762809753,0.6483554244041443,-9.8892822265625
1745727889.0582614,0.010468865744769573,-0.038027357310056686,0.15705004334449768,-0.15919539332389832,0.3450912833213806,-10.622196197509766
1745727889.2032735,0.05995219200849533,-0.022440457716584206,0.15264400839805603,-0.5713322162628174,0.5290483236312866,-9.613676071166992
1745727889.2033684,-0.0029195353854447603,-0.05117307975888252,0.1476471722126007,0.8031285405158997,-0.3587876260280609,-8.691024780273438
1745727889.203484,-0.014303530566394329,-0.06397167593240738,0.15001538395881653,-0.4247039258480072,0.17487655580043793,-10.870701789855957
1745727889.203546,0.0063402228988707066,-0.002450282219797373,0.13983222842216492,-0.40473657846450806,0.42827749252319336,-10.561470031738281
1745727889.2036557,-0.0019491501152515411,-0.03231097012758255,0.12253724038600922,1.2521960735321045,0.46361446380615234,-7.8087263107299805
1745727889.2038023,-0.016224080696702003,-0.05319201946258545,0.12009890377521515,0.9432326555252075,-0.176250621676445,-9.946927070617676
1745727889.2038755,-0.017249686643481255,-0.06073151156306267,0.12392900139093399,0.6587724089622498,-0.04424590244889259,-11.951523780822754
1745727889.2039332,0.03847326338291168,-0.019892100244760513,0.13611873984336853,-0.7780371904373169,0.07030107825994492,-9.94470500946045
1745727889.203984,-0.02471260353922844,0.0006209030980244279,0.1465376913547516,-0.19101105630397797,-0.7986353039741516,-7.312528133392334
1745727889.2040348,-0.015960780903697014,-0.05766988918185234,0.10275889933109283,0.6714308857917786,0.6766587495803833,-9.634389877319336
1745727889.204083,0.05960872769355774,-0.02986994944512844,0.0846097469329834,0.1915215402841568,1.4048858880996704,-12.912310600280762
1745727889.204136,0.0873120129108429,0.007127811666578054,0.06957200914621353,-0.15683630108833313,0.4027939736843109,-10.427072525024414
1745727889.2041826,0.05380655452609062,-0.024738389998674393,0.06982778757810593,-0.2704086899757385,-0.195392444729805,-6.9153547286987305
1745727889.2219238,0.0385887548327446,-0.04310547560453415,0.07662536203861237,0.3281814157962799,-0.5123029947280884,-9.151948928833008
1745727889.2256901,0.029191818088293076,-0.02054547518491745,0.08179500699043274,0.35652613639831543,-0.031366921961307526,-12.377023696899414
1745727889.2283366,0.056058309972286224,0.021120509132742882,0.0815415233373642,0.1723034381866455,0.013468721881508827,-10.317072868347168
1745727889.2322118,0.025071237236261368,-0.016597172245383263,0.0823073461651802,0.6553833484649658,-0.1103481650352478,-7.4328813552856445
1745727889.2346966,0.01626005955040455,-0.04708806425333023,0.07849115133285522,0.26053398847579956,0.3151165544986725,-9.720963478088379
1745727889.266162,0.014146581292152405,-0.009482854045927525,0.07386454939842224,0.0398230105638504,0.004124723374843597,-12.162764549255371
1745727889.2687073,0.02517993375658989,0.008377921767532825,0.06966233253479004,-0.19577078521251678,0.2373143881559372,-9.856943130493164
1745727889.2705727,0.01780756562948227,-0.006520859897136688,0.06907095015048981,-0.20461468398571014,0.18448388576507568,-7.423746585845947
1745727889.2721612,-0.003925480879843235,-0.03226058930158615,0.06780676543712616,0.13311026990413666,0.40084028244018555,-9.373146057128906
1745727889.3105502,0.053561847656965256,0.0001036211833707057,0.06490691751241684,0.1744963526725769,0.5391073822975159,-11.860137939453125
1745727889.313604,0.04745940864086151,0.013270078226923943,0.06100809574127197,0.3975507616996765,0.17595042288303375,-10.104363441467285
1745727889.4450934,0.05292835086584091,0.0006128397071734071,0.043883293867111206,0.3454020917415619,0.2800871729850769,-9.69437026977539
1745727889.445201,0.010394147597253323,0.016628548502922058,0.04430382326245308,0.14477667212486267,0.002305608941242099,-10.029598236083984
1745727889.445354,0.04277592524886131,0.015682876110076904,0.04642847180366516,-0.07998722791671753,0.21523134410381317,-9.509298324584961
1745727889.4454913,0.03742711991071701,0.015358686447143555,0.043273940682411194,0.4810907244682312,0.3999099135398865,-9.205520629882812
1745727889.445627,0.05428730323910713,0.008786980994045734,0.04274626076221466,0.45836225152015686,0.5491234064102173,-10.177695274353027
1745727889.4458337,0.09412824362516403,0.02294733002781868,0.0363803468644619,0.4347328543663025,0.41911524534225464,-10.375170707702637
1745727889.445999,0.08279693871736526,0.021880818530917168,0.03246196359395981,0.8849431872367859,-0.045129187405109406,-9.47018814086914
1745727889.4461339,0.10223159939050674,0.006399226374924183,0.03176362067461014,0.5617243051528931,0.26181483268737793,-9.448989868164062
1745727889.4462123,0.10394825041294098,0.04747913032770157,0.02582421898841858,0.6955204010009766,0.06515362858772278,-10.01445198059082
1745727889.4462621,0.12523561716079712,0.017035342752933502,0.01807519793510437,0.9163793325424194,0.2557010054588318,-9.62236213684082
1745727889.4463003,0.13029947876930237,0.0378984697163105,0.008442636579275131,0.9807979464530945,-0.007875898852944374,-9.751579284667969
1745727889.4463391,0.12188202142715454,0.03484417870640755,0.000747651036363095,0.5140641331672668,0.1054232269525528,-10.065461158752441
1745727889.4463766,0.14359815418720245,0.04317072778940201,-0.0063501098193228245,0.3116960823535919,-0.6641390919685364,-9.702566146850586
1745727889.4464204,0.0858960896730423,0.05195743963122368,-0.007958972826600075,0.5813989043235779,-0.4020920693874359,-9.191917419433594
1745727889.446459,0.057420581579208374,0.03971526771783829,-0.01495667826384306,0.6357715725898743,-0.8093822598457336,-9.887828826904297
1745727889.4804416,0.07646431773900986,0.05491187050938606,-0.021848656237125397,0.5499699711799622,0.09380479902029037,-10.258275985717773
1745727889.4825926,0.03178705647587776,0.06157134845852852,-0.03362320363521576,0.5308606624603271,-0.10469591617584229,-9.640549659729004
1745727889.4833655,0.057359546422958374,0.057940226048231125,-0.03765527158975601,0.9192096590995789,-0.35526347160339355,-9.156025886535645
1745727889.4850082,0.02565522864460945,0.04488946869969368,-0.04553398862481117,0.7488213777542114,0.2271929681301117,-9.986650466918945
1745727889.486603,0.07236321270465851,0.057833004742860794,-0.043843962252140045,0.5295729637145996,-0.1048232764005661,-10.700324058532715
1745727889.5266821,0.07294605672359467,0.07047267258167267,-0.047042448073625565,0.4056798815727234,0.5558816194534302,-9.377825736999512
1745727889.5289173,0.11371876299381256,0.06475571542978287,-0.05370628088712692,0.5689922571182251,0.4115408957004547,-8.8743257522583
1745727889.5305712,0.16216707229614258,0.0869487076997757,-0.08902285993099213,0.4763254225254059,-0.3868143558502197,-9.318872451782227
1745727889.5340254,0.104974165558815,0.058510493487119675,-0.0982280820608139,0.7877668142318726,-0.4733208119869232,-8.935384750366211
1745727889.6966681,0.13392163813114166,0.060002781450748444,-0.0999092385172844,0.5568273663520813,-0.13978829979896545,-10.134108543395996
1745727889.696892,0.10270848125219345,0.08080783486366272,-0.10687936842441559,0.41457119584083557,-0.2956547737121582,-10.554784774780273
1745727889.6970654,0.12221821397542953,0.07582885026931763,-0.11155958473682404,0.4091220498085022,-0.2051854133605957,-9.3294095993042
1745727889.697179,0.11697670072317123,0.07165983319282532,-0.11081121116876602,0.5986932516098022,-0.25284916162490845,-8.976780891418457
1745727889.6972344,0.109071746468544,0.05846039205789566,-0.11196382343769073,0.6828534603118896,-0.08231142908334732,-10.098942756652832
1745727889.6973145,0.14651957154273987,0.07696233689785004,-0.11716294288635254,0.6565340757369995,-0.09260561317205429,-10.49363899230957
1745727889.6973817,0.12105269730091095,0.07466403394937515,-0.12194456160068512,0.7423406839370728,-0.056916557252407074,-9.370003700256348
1745727889.6974318,0.15960118174552917,0.062441788613796234,-0.12473203986883163,0.6376351118087769,0.07097785174846649,-9.079486846923828
1745727889.6974754,0.13666348159313202,0.060635101050138474,-0.12902075052261353,0.7447241544723511,-0.06279665231704712,-10.11314582824707
1745727889.697516,0.15969569981098175,0.06694631278514862,-0.13563433289527893,0.6552928686141968,0.02061695232987404,-10.43069076538086
1745727889.6975539,0.16415411233901978,0.06877009570598602,-0.141250878572464,0.5553852319717407,-0.21228447556495667,-9.44348430633545
1745727889.697592,0.14762231707572937,0.04897434264421463,-0.1439138799905777,0.5432170629501343,-0.08520935475826263,-9.12375259399414
1745727889.6976295,0.04847342148423195,-0.004459200892597437,0.0638662800192833,0.9325377345085144,-1.4508726596832275,-11.961740493774414
1745727889.699271,0.027854207903146744,0.01197346393018961,0.0785520076751709,0.6768495440483093,-1.3527029752731323,-9.799001693725586
1745727889.7012458,-0.04946532100439072,-0.0185402724891901,0.08447320759296417,0.6488161087036133,-0.9938535690307617,-7.662339687347412
1745727889.7030723,-0.07759658247232437,-0.03189394623041153,0.08466269820928574,0.367356538772583,-0.754848837852478,-9.692220687866211
1745727889.7047915,-0.08152338117361069,-0.0047515942715108395,0.084309421479702,0.6493769884109497,-0.3587951064109802,-11.586091995239258
1745727889.7404406,-0.09993577003479004,0.000692680652718991,0.08443693816661835,0.4584917426109314,-0.22271497547626495,-9.906869888305664
1745727889.7416017,-0.06436388194561005,-0.01779780164361,0.0938209518790245,0.30639582872390747,-0.45628291368484497,-8.17642879486084
1745727889.7443697,-0.09878811240196228,-0.021945804357528687,0.10733477771282196,0.5789157152175903,-0.3322266936302185,-9.443631172180176
1745727889.7477498,-0.04565448313951492,-0.0062711178325116634,0.11952944099903107,0.5768454670906067,-0.29937830567359924,-11.041814804077148
1745727889.7478552,-0.05599898844957352,0.002555612474679947,0.12678536772727966,0.8732873797416687,-0.18145062029361725,-9.993707656860352
1745727889.7834156,-0.03036484122276306,-0.013082824647426605,0.13415327668190002,0.6800246238708496,0.0028955191373825073,-8.84951400756836
1745727889.7849975,-0.03216279298067093,-0.019036507233977318,0.13469639420509338,0.6844731569290161,-0.0665159523487091,-9.724912643432617
1745727889.7873173,-0.02729196287691593,-0.013521039858460426,0.13648957014083862,0.5711641311645508,-0.0011720552574843168,-10.545536041259766
1745727889.7900822,-0.0318329818546772,-0.012417036108672619,0.14020058512687683,0.5948617458343506,-0.47250285744667053,-10.036137580871582
1745727889.9402547,-0.03746146708726883,-0.02442200481891632,0.13475655019283295,0.3821500241756439,-0.019393691793084145,-9.1004638671875
1745727889.9403315,-0.053461771458387375,-0.031301092356443405,0.13107280433177948,-0.29461392760276794,-0.2736279368400574,-9.91401195526123
1745727889.9404287,-0.06526549905538559,-0.027183089405298233,0.12670500576496124,0.07001614570617676,-0.17200641334056854,-10.116621017456055
1745727889.9405112,-0.023907732218503952,-0.03540917485952377,0.12041117995977402,-0.008209300227463245,-0.12478840351104736,-9.808481216430664
1745727889.9405544,-0.03435564041137695,-0.0274713933467865,0.12440285831689835,-0.3413950800895691,-0.4650000035762787,-9.623525619506836
1745727889.9406526,-0.050571195781230927,-0.036935824900865555,0.134079709649086,-0.578865110874176,-1.0401911735534668,-9.615480422973633
1745727889.9407687,-0.04000657796859741,-0.030384134501218796,0.14343908429145813,0.05225672572851181,-1.024648904800415,-9.513311386108398
1745727889.9409175,-0.08680462092161179,-0.030056167393922806,0.15189653635025024,0.26527249813079834,-1.1422895193099976,-9.973276138305664
1745727889.9410028,-0.2226611077785492,-0.05264417454600334,0.1362510472536087,0.03844910487532616,0.0022628784645348787,-9.702317237854004
1745727889.9410453,-0.19351552426815033,-0.05820956826210022,0.1381416767835617,0.11369061470031738,0.6831453442573547,-9.129293441772461
1745727889.941086,-0.1378900110721588,-0.06691012531518936,0.14211826026439667,0.2601854205131531,0.6994863748550415,-10.09868049621582
1745727889.9411263,-0.0813453420996666,-0.06459358334541321,0.1416950225830078,0.13926942646503448,0.6879550814628601,-10.514287948608398
1745727889.9411645,-0.017577234655618668,-0.05454491451382637,0.1449478417634964,-0.11066339164972305,0.6639127731323242,-9.592084884643555
1745727889.960551,-0.008122733794152737,-0.06462930142879486,0.14226169884204865,0.11576132476329803,0.036202192306518555,-9.104619026184082
1745727889.9614046,-0.004203255288302898,-0.06873859465122223,0.1354992836713791,0.11172447353601456,-0.09324341267347336,-9.936822891235352
1745727889.9614944,-0.04705298691987991,-0.0667901486158371,0.13061514496803284,0.5055773854255676,-0.9177519083023071,-10.569856643676758
1745727889.9622025,-0.06571729481220245,-0.051606446504592896,0.12535080313682556,0.17259517312049866,-0.49940234422683716,-9.826030731201172
1745727889.998959,-0.10658816248178482,-0.059734366834163666,0.12312793731689453,0.5957371592521667,-0.9835735559463501,-8.929948806762695
1745727890.0020406,-0.14968106150627136,-0.06946168839931488,0.1252325028181076,0.8140498995780945,-0.85478276014328,-9.823918342590332
1745727890.0056705,-0.1694057732820511,-0.0661620944738388,0.1281546652317047,0.6216337084770203,-0.8206669092178345,-10.922649383544922
1745727890.0112143,-0.17520135641098022,-0.06177225708961487,0.13239440321922302,0.07899762690067291,-0.4016451835632324,-10.012128829956055
1745727890.0144944,-0.17519550025463104,-0.04180559143424034,0.13354839384555817,-0.2623007893562317,-0.051423609256744385,-8.556296348571777
1745727890.0429194,0.003996382467448711,-0.00335443252697587,-0.035970043390989304,0.4674863815307617,-0.03292401134967804,-11.353670120239258
1745727890.0464008,0.009665029123425484,0.03863128647208214,-0.030939970165491104,0.6388300061225891,-1.0826103687286377,-11.085291862487793
1745727890.0488768,-0.044924989342689514,0.03250214084982872,-0.020497281104326248,0.502730667591095,-0.7179221510887146,-8.17567253112793
1745727890.1888628,-0.042230140417814255,0.010385039262473583,-0.014834143221378326,0.8502629399299622,-0.42318519949913025,-8.360774040222168
1745727890.1890094,-0.05191081017255783,0.016494765877723694,-0.018472831696271896,0.8383369445800781,0.6101629734039307,-11.036933898925781
1745727890.1891258,0.014976372942328453,0.05019065737724304,-0.03571406751871109,0.40799570083618164,0.7454016804695129,-11.264019012451172
1745727890.189209,0.020451553165912628,0.03581715375185013,-0.05057183653116226,0.3584434688091278,0.6918414235115051,-8.546128273010254
1745727890.1893163,0.029109517112374306,0.022665036842226982,-0.06002766638994217,-0.05859370157122612,0.263140469789505,-8.541845321655273
1745727890.1893733,0.04697903245687485,0.039490144699811935,-0.06409956514835358,0.10284493118524551,0.0832769125699997,-10.568567276000977
1745727890.1894639,0.042140550911426544,0.05405939742922783,-0.0655585527420044,0.3711572289466858,0.08281958103179932,-10.570772171020508
1745727890.189506,0.06410037726163864,0.06073446199297905,-0.06343857198953629,0.6657906770706177,-0.22259435057640076,-8.913561820983887
1745727890.1895514,0.02927039936184883,0.035713840276002884,-0.06785611808300018,0.9485021829605103,-0.12398519366979599,-9.11494255065918
1745727890.1895914,0.057950496673583984,0.0397644005715847,-0.07056888192892075,0.8133188486099243,-0.21756987273693085,-10.848616600036621
1745727890.1896315,0.021325234323740005,0.055552829056978226,-0.0746467337012291,0.8505684733390808,-0.2490372210741043,-10.679702758789062
1745727890.1896834,0.04377662390470505,0.05069419741630554,-0.07715924084186554,0.33496445417404175,-0.03906121104955673,-9.070782661437988
1745727890.189734,0.029541809111833572,0.04596426337957382,-0.08211920410394669,0.2944852411746979,0.06932514905929565,-8.810067176818848
1745727890.1897743,0.024532105773687363,0.04352155327796936,-0.08997182548046112,0.2382660210132599,0.3865145146846771,-10.104862213134766
1745727890.21339,0.0669098049402237,0.05959402769804001,-0.09572979062795639,0.4892924726009369,0.1802416741847992,-10.43545150756836
1745727890.223261,0.05402613803744316,0.04841025918722153,-0.10513222217559814,0.4871954917907715,0.38294997811317444,-9.47111988067627
1745727890.2233598,0.09056441485881805,0.04613235592842102,-0.10691896826028824,0.4928151071071625,0.06964344531297684,-9.422407150268555
1745727890.2234259,0.08232293277978897,0.0501091368496418,-0.10731486231088638,0.7556036114692688,-0.12318708747625351,-10.109392166137695
1745727890.226608,0.10680562257766724,0.05297103524208069,-0.10403581708669662,0.6871103048324585,-0.2455120086669922,-10.112760543823242
1745727890.2587712,0.08553408086299896,0.05018063634634018,-0.14114217460155487,0.4106995463371277,-0.1467694193124771,-9.533514976501465
1745727890.259879,0.09126365184783936,0.05453594774007797,-0.13415557146072388,0.8359339833259583,-0.4746178984642029,-9.811058044433594
1745727890.2619402,0.09990934282541275,0.049403782933950424,-0.13382816314697266,0.6066265106201172,0.03514915332198143,-9.93439769744873
1745727890.2643924,0.11135087162256241,0.05624079704284668,-0.13251331448554993,0.5962594151496887,-0.15262602269649506,-9.74409008026123
1745727890.4375243,0.10911235958337784,0.047397468239068985,-0.1407979279756546,0.5607239603996277,0.18890735507011414,-9.447668075561523
1745727890.4376736,0.12333031743764877,0.04612547904253006,-0.1462758481502533,0.5456988215446472,-0.07776200026273727,-9.788817405700684
1745727890.4377508,0.10772190243005753,0.041639965027570724,-0.1557728797197342,0.6006721258163452,0.04358380287885666,-10.053056716918945
1745727890.4378426,0.11143092811107635,0.04428046569228172,-0.1616176813840866,0.3144058287143707,-0.14627595245838165,-9.793281555175781
1745727890.4379106,0.10356412082910538,0.0452939048409462,-0.16231182217597961,0.6283630132675171,-0.45423316955566406,-9.303715705871582
1745727890.4379783,0.10210688412189484,0.03764081001281738,-0.1637914627790451,0.6419163346290588,-0.07447472959756851,-9.50774097442627
1745727890.438042,0.09235073626041412,0.03474640101194382,-0.1641387939453125,0.8576520681381226,-0.5351293087005615,-10.235279083251953
1745727890.4380965,0.11330435425043106,0.03987281024456024,-0.16476115584373474,0.614421546459198,0.14746083319187164,-9.94726276397705
1745727890.4381375,0.11434324830770493,0.03761718422174454,-0.16540057957172394,0.5272289514541626,-0.29750490188598633,-9.358847618103027
1745727890.438222,0.11375844478607178,0.027408599853515625,-0.16931119561195374,0.5832623243331909,-0.040763210505247116,-9.376401901245117
1745727890.4382899,0.0933694988489151,-0.013592787086963654,-0.23265531659126282,0.6365023255348206,-0.3613032102584839,-9.986143112182617
1745727890.43833,0.10770434141159058,-0.015336690470576286,-0.23582768440246582,0.4794711172580719,-0.34882816672325134,-9.722664833068848
1745727890.4383695,0.09349381923675537,-0.01945648156106472,-0.2388167828321457,0.6484359502792358,-0.5594799518585205,-9.551902770996094
1745727890.4384143,0.09680532664060593,-0.023825716227293015,-0.23721417784690857,0.4788891673088074,-0.36543917655944824,-9.782159805297852
1745727890.4384532,0.10224471986293793,-0.015117073431611061,-0.24012219905853271,0.5629135370254517,-0.6646996736526489,-9.919482231140137
1745727890.4384933,0.09100699424743652,-0.018732914701104164,-0.2376302182674408,0.5090217590332031,-0.3561246991157532,-9.6393404006958
1745727890.4385314,0.09840670973062515,-0.020028404891490936,-0.24131187796592712,0.5264065265655518,-0.5671954154968262,-9.639172554016113
1745727890.438571,0.09575523436069489,-0.021049007773399353,-0.2424493283033371,0.6281031370162964,-0.34817662835121155,-9.812283515930176
1745727890.470689,0.10434289276599884,-0.02271445468068123,-0.24475792050361633,0.4334487318992615,-0.3362932801246643,-9.970367431640625
1745727890.4736269,0.10099725425243378,-0.021210530772805214,-0.24932794272899628,0.645384669303894,-0.5604032278060913,-9.731111526489258
1745727890.4738133,0.097381092607975,-0.024510009214282036,-0.24709053337574005,0.41521286964416504,-0.4307022988796234,-9.595189094543457
1745727890.4738872,0.08915229886770248,-0.024029526859521866,-0.2491007298231125,0.5918990969657898,-0.7971245646476746,-9.748130798339844
1745727890.5154312,0.08032986521720886,-0.025356311351060867,-0.24922306835651398,0.5277611613273621,-0.46778351068496704,-9.853750228881836
1745727890.5157843,0.0847792848944664,-0.018159057945013046,-0.24954815208911896,0.4984913468360901,-0.6765431761741638,-9.828729629516602
1745727890.5193038,0.0814870223402977,-0.02543818950653076,-0.25116726756095886,0.5824432969093323,-0.33681267499923706,-9.59327220916748
1745727890.5227017,0.08541084825992584,-0.024110864847898483,-0.2546044588088989,0.4079088568687439,-0.43328753113746643,-9.781074523925781
1745727890.6835341,0.08007093518972397,-0.024856995791196823,-0.2551625669002533,0.6591547727584839,-0.6133849024772644,-9.966859817504883
1745727890.6837265,0.09718110412359238,-0.02210373431444168,-0.25673991441726685,0.34657570719718933,-0.26369428634643555,-9.809884071350098
1745727890.6838448,0.08392073214054108,-0.02667934261262417,-0.2601158618927002,0.5177223086357117,-0.701636016368866,-9.722091674804688
1745727890.6839197,0.09688236564397812,-0.02562761679291725,-0.259381502866745,0.4870133399963379,-0.33574336767196655,-9.648167610168457
1745727890.6840186,0.08673058450222015,-0.02723495289683342,-0.26090580224990845,0.5672321915626526,-0.7425858974456787,-9.946016311645508
1745727890.6841044,0.08544525504112244,-0.029504219070076942,-0.2606234550476074,0.623837411403656,-0.49008116126060486,-9.827316284179688
1745727890.6841657,0.07296248525381088,-0.021621311083436012,-0.26958248019218445,0.4362952709197998,-0.5973407626152039,-9.7964506149292
1745727890.684218,0.07119157910346985,-0.032553479075431824,-0.2703994810581207,0.5072667002677917,-0.42907220125198364,-9.750669479370117
1745727890.684265,0.09123110771179199,-0.019465524703264236,-0.2713366746902466,0.435006707906723,-0.5222457051277161,-9.793228149414062
1745727890.6843112,0.06859328597784042,-0.02853735163807869,-0.27078214287757874,0.6325522065162659,-0.740120530128479,-9.780555725097656
1745727890.684357,0.0877101868391037,-0.023001691326498985,-0.2694493234157562,0.4101499617099762,-0.513007640838623,-9.748750686645508
1745727890.684401,0.07028062641620636,-0.023575305938720703,-0.2695416510105133,0.5631877183914185,-0.771919846534729,-9.816778182983398
1745727890.6844404,0.07738510519266129,-0.027709390968084335,-0.27178260684013367,0.4291090965270996,-0.4716174006462097,-9.809650421142578
1745727890.687167,0.07024023681879044,-0.020232584327459335,-0.27439165115356445,0.5082656145095825,-0.6576326489448547,-9.794065475463867
1745727890.6872575,0.05905338004231453,-0.028550976887345314,-0.27500003576278687,0.5600367784500122,-0.5172423124313354,-9.824581146240234
1745727890.6887739,0.08016417920589447,-0.022097963839769363,-0.2757021486759186,0.3899359703063965,-0.5720885992050171,-9.847111701965332
1745727890.688871,0.059628576040267944,-0.025179285556077957,-0.27969783544540405,0.5214797854423523,-0.5835611820220947,-9.761248588562012
1745727890.6909091,0.07653707265853882,-0.024946745485067368,-0.27547237277030945,0.38295140862464905,-0.6019009351730347,-9.755489349365234
1745727890.735272,0.07039203494787216,-0.017236534506082535,-0.2773534059524536,0.5418848991394043,-0.5741950273513794,-9.777264595031738
1745727890.7372758,0.07492144405841827,-0.02501700259745121,-0.27659061551094055,0.4080553948879242,-0.5293108820915222,-9.807357788085938
1745727890.739914,0.08470933139324188,-0.008761538192629814,-0.2819002568721771,0.13683275878429413,-0.9955979585647583,-9.579205513000488
1745727890.7413924,0.04381236433982849,-0.02915424108505249,-0.2757699489593506,0.26088210940361023,-0.9950157403945923,-9.617773056030273
1745727890.7756155,0.06181517243385315,-0.015036428347229958,-0.2724815905094147,-0.1017465740442276,-0.7590266466140747,-9.955293655395508
1745727890.7779236,0.016935892403125763,-0.014484514482319355,-0.2756875157356262,0.09903305768966675,-0.7508620023727417,-9.715726852416992
1745727890.7819064,0.03466176614165306,-0.026640325784683228,-0.27353453636169434,0.2035040557384491,-0.6171509027481079,-9.44033432006836
1745727890.7839055,0.024800220504403114,-0.02804872766137123,-0.2759825587272644,0.4342099726200104,-0.5881898403167725,-9.826207160949707
1745727890.928319,0.01473421324044466,-0.034658484160900116,-0.27058708667755127,0.38514140248298645,-0.8415365219116211,-10.25587272644043
1745727890.9284205,0.049971263855695724,-0.018671780824661255,-0.2633540630340576,0.11281666904687881,-0.7047931551933289,-9.809173583984375
1745727890.9285328,0.01249883882701397,-0.03763577342033386,-0.25498849153518677,0.3766450583934784,-0.9747527837753296,-9.305378913879395
1745727890.9286106,0.06261760741472244,-0.03396555408835411,-0.24692705273628235,0.1507437378168106,-0.44322043657302856,-9.582130432128906
1745727890.928841,0.03351524472236633,-0.034736327826976776,-0.2486458718776703,0.24693484604358673,-0.5114524960517883,-10.231112480163574
1745727890.928926,0.08083542436361313,-0.03467344492673874,-0.24958321452140808,0.03530276566743851,-0.33109021186828613,-9.887661933898926
1745727890.928971,0.05290856212377548,-0.03369941562414169,-0.25234752893447876,0.15556029975414276,-0.5620899796485901,-9.286385536193848
1745727890.9290192,0.05256976559758186,-0.04629947990179062,-0.2528480887413025,0.2628651261329651,-0.9878978729248047,-9.688702583312988
1745727890.9290595,0.04991540312767029,-0.03548659384250641,-0.2501557469367981,0.16025692224502563,-0.8519506454467773,-10.076759338378906
1745727890.9290977,0.0017877090722322464,-0.03318335860967636,-0.24542748928070068,0.3648078441619873,-1.3463274240493774,-9.920134544372559
1745727890.9291358,0.03209133446216583,-0.036997027695178986,-0.23924624919891357,0.30471697449684143,-0.8327674865722656,-9.24213695526123
1745727890.9291744,-0.03274393081665039,-0.04597868397831917,-0.23578763008117676,0.4623202681541443,-0.9985525012016296,-9.69580078125
1745727890.9292126,0.02029425837099552,-0.04123128950595856,-0.23485055565834045,0.24602873623371124,-0.5987918376922607,-10.232876777648926
1745727890.9292438,0.002100713551044464,-0.03570089489221573,-0.23316307365894318,0.19524268805980682,-0.5296555757522583,-9.888310432434082
1745727890.946703,0.011925240978598595,-0.04210006818175316,-0.2348761260509491,0.14407455921173096,-0.4837036728858948,-9.30212688446045
1745727890.9467554,0.034447163343429565,-0.04761423543095589,-0.23346546292304993,0.05542708560824394,-0.4561630189418793,-9.560853004455566
1745727890.947961,0.023285163566470146,-0.0442618653178215,-0.23418323695659637,0.1374928057193756,-0.5752416253089905,-10.138402938842773
1745727890.948949,0.007005310617387295,-0.04705477133393288,-0.22952234745025635,0.3688362240791321,-1.1703062057495117,-10.145608901977539
1745727890.9890115,0.024160923436284065,-0.044610749930143356,-0.22300800681114197,0.3123062252998352,-0.8275785446166992,-9.630151748657227
1745727890.990356,-0.009517708793282509,-0.039968341588974,-0.21962594985961914,0.2808297872543335,-1.0004394054412842,-9.49806022644043
1745727890.9925747,-0.0012685643741860986,-0.05877574533224106,-0.21833643317222595,0.35571837425231934,-0.6842188835144043,-9.774449348449707
1745727890.9951482,0.009364418685436249,-0.03886470943689346,-0.21830213069915771,0.019472848623991013,-0.44679898023605347,-10.128378868103027
1745727891.0353022,-0.014229926280677319,-0.04458165168762207,-0.22294287383556366,0.21342416107654572,-0.5528219938278198,-9.58414363861084
1745727891.0354073,0.024227343499660492,-0.0535963773727417,-0.225582093000412,0.22553189098834991,-0.3854958117008209,-9.475183486938477
1745727891.0354564,0.006269513163715601,-0.04686659574508667,-0.22495293617248535,0.2416980266571045,-0.7381192445755005,-10.10319709777832
1745727891.0356004,0.01913701370358467,-0.04189241677522659,-0.2215752899646759,-0.04820442944765091,-0.8631914258003235,-9.944496154785156
1745727891.038131,0.015315825119614601,-0.03578069806098938,-0.21488144993782043,0.476828008890152,-0.9599546194076538,-9.07813549041748
1745727891.1750793,-0.006999623961746693,-0.048438213765621185,-0.2083139717578888,0.44879063963890076,-0.6933748126029968,-9.680988311767578
1745727891.1751552,0.01934231072664261,-0.04283813014626503,-0.2089172899723053,0.2669138014316559,-0.6976772546768188,-10.526510238647461
1745727891.1752996,-0.0021521856542676687,-0.035499103367328644,-0.20901994407176971,0.4891311228275299,-0.5691234469413757,-9.848158836364746
1745727891.1753724,0.04430487006902695,0.010806076228618622,-0.26153892278671265,0.40813708305358887,-0.4341060519218445,-9.832108497619629
1745727891.1754546,0.06363140791654587,0.024842839688062668,-0.2624189257621765,0.6652796864509583,-0.9819671511650085,-10.649255752563477
1745727891.1755252,0.05802920460700989,0.0253071840852499,-0.26121073961257935,0.6751875877380371,-0.6137984991073608,-9.661513328552246
1745727891.175571,0.05470312386751175,0.014370749704539776,-0.26024898886680603,0.5270772576332092,-1.0246080160140991,-9.314908027648926
1745727891.1756148,0.039295412600040436,0.00873669795691967,-0.25892671942710876,0.5694197416305542,-0.7973025441169739,-9.827919006347656
1745727891.1756694,0.039150528609752655,0.021734530106186867,-0.2638498544692993,0.3164520859718323,-0.7306555509567261,-10.217611312866211
1745727891.175723,0.038191795349121094,0.024400051683187485,-0.26489412784576416,0.5060458779335022,-0.8263004422187805,-9.564806938171387
1745727891.1757722,0.03655244782567024,0.01272071897983551,-0.26899266242980957,0.3162009119987488,-0.4121266007423401,-9.27961254119873
1745727891.1758108,0.039516303688287735,0.014499996788799763,-0.27147072553634644,0.5559492111206055,-0.81586754322052,-9.932989120483398
1745727891.1758416,0.0467267669737339,0.021875225007534027,-0.27500468492507935,0.5476996898651123,-0.6016327142715454,-10.12929630279541
1745727891.204543,0.053718965500593185,0.022888537496328354,-0.27225953340530396,0.3680458664894104,-0.9192408323287964,-9.689977645874023
1745727891.2056565,0.04535480588674545,0.012814466841518879,-0.2690088748931885,0.6568077802658081,-0.9225394129753113,-9.339909553527832
1745727891.2081685,0.050906140357255936,0.01576646976172924,-0.2652052342891693,0.40636855363845825,-0.7956493496894836,-9.871817588806152
1745727891.209368,0.043991707265377045,0.01812230981886387,-0.2663298547267914,0.6361409425735474,-0.9416283369064331,-10.077620506286621
1745727891.2469845,0.04322328418493271,0.01802097074687481,-0.26753097772598267,0.38981756567955017,-0.5691737532615662,-9.654995918273926
1745727891.2488256,0.032061923295259476,0.015764575451612473,-0.27432477474212646,0.47788316011428833,-0.819922924041748,-9.437223434448242
1745727891.2527316,0.03486078232526779,0.012847376987338066,-0.2780601382255554,0.5120729207992554,-0.5877596139907837,-9.633842468261719
1745727891.2538767,0.033068202435970306,0.021531090140342712,-0.2782081067562103,0.4352998733520508,-0.9173027873039246,-9.930591583251953
1745727891.2574537,0.01940176449716091,0.015820112079381943,-0.27990180253982544,0.6214713454246521,-0.8544734716415405,-9.731427192687988
1745727891.422008,0.035991325974464417,0.02072824165225029,-0.27485164999961853,0.40149253606796265,-0.8145245313644409,-9.529767036437988
1745727891.4221714,0.020808525383472443,0.016044624149799347,-0.27384069561958313,0.5912612676620483,-0.8779193758964539,-9.678346633911133
1745727891.42229,0.045232947915792465,0.015012579038739204,-0.27278274297714233,0.49386900663375854,-0.5822592973709106,-9.893472671508789
1745727891.4224753,0.03780938312411308,0.01581573113799095,-0.27372822165489197,0.5763940215110779,-0.8475894927978516,-9.914222717285156
1745727891.4225793,0.046817462891340256,0.013750488869845867,-0.2779504656791687,0.4622226655483246,-0.8233222961425781,-9.73260498046875
1745727891.4226923,0.022161323577165604,0.012257927097380161,-0.2773522734642029,0.6695543527603149,-0.9973891377449036,-9.693062782287598
1745727891.4228742,0.026098599657416344,0.007571299560368061,-0.2789607048034668,0.487407922744751,-0.7085273861885071,-9.700645446777344
1745727891.4229522,0.02338402345776558,0.007077365182340145,-0.2770988345146179,0.6830634474754333,-1.0196377038955688,-9.809164047241211
1745727891.4230187,0.019214637577533722,0.005256871227174997,-0.2785821557044983,0.4877433776855469,-0.591840386390686,-9.816228866577148
1745727891.423091,0.033952079713344574,0.01105429045855999,-0.2768014371395111,0.42344170808792114,-0.9635359048843384,-9.76005744934082
1745727891.423158,0.022755805402994156,-0.00024126602511387318,-0.2761438488960266,0.5037296414375305,-0.6058596968650818,-9.490530014038086
1745727891.423275,0.04119770601391792,0.0035013172309845686,-0.2750619053840637,0.41323766112327576,-0.7356977462768555,-9.662137985229492
1745727891.423371,0.03047960437834263,-3.6845402064500377e-05,-0.2761853337287903,0.5720717906951904,-0.7803527116775513,-9.874073028564453
1745727891.423447,0.04678904637694359,0.004990230314433575,-0.277646005153656,0.407681405544281,-0.6932501792907715,-9.729423522949219
1745727891.4235137,0.04161211475729942,0.0027652918361127377,-0.27879026532173157,0.6251375079154968,-0.9713549613952637,-9.507087707519531
1745727891.4236767,0.029024168848991394,-0.0023679183796048164,-0.27496251463890076,0.4653071463108063,-0.7345377206802368,-9.607479095458984
1745727891.4238064,0.028875431045889854,0.0017534121870994568,-0.27719196677207947,0.6170187592506409,-1.1853219270706177,-9.953287124633789
1745727891.4620168,0.025833841413259506,-0.029756953939795494,-0.2757887840270996,0.43473300337791443,-0.8339425921440125,-9.613621711730957
1745727891.4634943,0.010996581986546516,-0.02496393397450447,-0.2788753807544708,0.5189692974090576,-0.7587606310844421,-9.840251922607422
1745727891.4652648,0.027730226516723633,-0.027622681111097336,-0.2767927646636963,0.4053056836128235,-0.8265094757080078,-9.776169776916504
1745727891.467584,0.005737189203500748,-0.022116370499134064,-0.2743780314922333,0.5349012613296509,-1.0153625011444092,-9.588419914245605
1745727891.506123,0.010551727376878262,-0.028583282604813576,-0.2753097116947174,0.44086918234825134,-0.7939128279685974,-9.712308883666992
1745727891.5093908,0.006731086410582066,-0.027157366275787354,-0.2725827693939209,0.4810449481010437,-0.9843608736991882,-10.006078720092773
1745727891.5143585,-0.0032224201131612062,-0.028496142476797104,-0.2761443257331848,0.4557594358921051,-0.6569719314575195,-9.800215721130371
1745727891.5237045,0.012177473865449429,-0.02284049801528454,-0.2761947512626648,0.41403383016586304,-0.8577665090560913,-9.587550163269043
1745727891.532743,-0.002730152104049921,-0.026885950937867165,-0.2757449746131897,0.4899441599845886,-0.7625981569290161,-9.663880348205566
1745727891.6679778,0.019285958260297775,-0.030978914350271225,-0.2771753668785095,0.39907020330429077,-0.7013982534408569,-9.825468063354492
1745727891.6681247,0.0064349425956606865,-0.02052324078977108,-0.27454185485839844,0.522210955619812,-0.9814621210098267,-9.850719451904297
1745727891.6681955,0.0212255772203207,-0.02629728987812996,-0.27465537190437317,0.3085440993309021,-0.4565456807613373,-9.575642585754395
1745727891.668328,0.015448607504367828,-0.026179740205407143,-0.27769413590431213,0.5413552522659302,-1.0178451538085938,-9.744285583496094
1745727891.6683953,0.017192361876368523,-0.029350513592362404,-0.27569320797920227,0.5174949765205383,-0.6054549217224121,-9.828695297241211
1745727891.6684685,0.018506158143281937,-0.025458883494138718,-0.27800214290618896,0.4120129942893982,-1.0777157545089722,-10.055462837219238
1745727891.6685174,0.006494374480098486,-0.029240086674690247,-0.2763427793979645,0.3825586140155792,-0.8269466161727905,-9.681588172912598
1745727891.6685565,0.0038078383076936007,-0.022528458386659622,-0.2784326374530792,0.320932000875473,-0.8721033334732056,-9.455955505371094
1745727891.6685944,-0.004157072398811579,-0.028795991092920303,-0.279146671295166,0.5780563950538635,-0.9742536544799805,-9.715083122253418
1745727891.6686444,0.0022432194091379642,-0.02633422613143921,-0.27916228771209717,0.3779982924461365,-0.6444609761238098,-10.086996078491211
1745727891.6686842,-0.0017913675401359797,-0.021768148988485336,-0.28162699937820435,0.4729743003845215,-0.9664981961250305,-9.8451509475708
1745727891.6687267,-0.008289209567010403,-0.02434612438082695,-0.2812129855155945,0.39418020844459534,-0.7344435453414917,-9.390443801879883
1745727891.6772227,0.0009914145339280367,-0.021334026008844376,-0.27870792150497437,0.3238886594772339,-1.039542555809021,-9.66609001159668
1745727891.6787941,0.00028738853870891035,-0.024109631776809692,-0.2825852334499359,0.370463103055954,-0.6727107167243958,-9.89697551727295
1745727891.6822174,0.003359593451023102,-0.015581637620925903,-0.2826370596885681,0.375283420085907,-0.9628236889839172,-9.625017166137695
1745727891.6822886,-0.017486784607172012,-0.028951028361916542,-0.2826017141342163,0.4948205351829529,-0.7436894178390503,-9.49354362487793
1745727891.6840568,0.005277519579976797,-0.021243922412395477,-0.28003495931625366,0.40812206268310547,-0.8896408081054688,-9.896169662475586
1745727891.7218916,-0.014833340421319008,-0.019068533554673195,-0.2839408814907074,0.4698828160762787,-0.7789040803909302,-9.976177215576172
1745727891.7223172,0.01159607246518135,-0.020154457539319992,-0.28022611141204834,0.44579535722732544,-0.7177720069885254,-9.690314292907715
1745727891.7233722,-0.008420254103839397,-0.02434612438082695,-0.2817022204399109,0.513659656047821,-0.9340893626213074,-9.66967487335205
1745727891.7234354,0.00589484628289938,-0.02655894123017788,-0.2815685272216797,0.35698050260543823,-0.6995923519134521,-9.936601638793945
1745727891.7624254,0.0019348927307873964,-0.01576021872460842,-0.2810486853122711,0.34601980447769165,-0.9987733960151672,-9.936588287353516
1745727891.765012,-0.009997762739658356,-0.021254386752843857,-0.2802264392375946,0.38466477394104004,-0.697431743144989,-9.50255012512207
1745727891.7678976,0.006298487074673176,-0.019281644374132156,-0.2824358642101288,0.4020881652832031,-0.8730379939079285,-9.523416519165039
1745727891.7698007,-0.011701589450240135,-0.02081376686692238,-0.2820015251636505,0.4848172664642334,-0.7732144594192505,-9.929595947265625
1745727891.7717302,0.001770491129718721,-0.015790613368153572,-0.28598499298095703,0.3823695182800293,-0.711966872215271,-10.011030197143555
1745727891.913065,-0.009554259479045868,-0.01393640786409378,-0.28450894355773926,0.5455445647239685,-1.0119882822036743,-9.587223052978516
1745727891.9131713,-0.002082051243633032,-0.017914341762661934,-0.2840862274169922,0.31784650683403015,-0.5458759069442749,-9.801623344421387
1745727891.9132607,0.0020838661585003138,-0.011811946518719196,-0.28539857268333435,0.49301838874816895,-0.8636600375175476,-9.853200912475586
1745727891.913356,-0.010922723449766636,-0.0203009732067585,-0.28504878282546997,0.47172704339027405,-0.7350725531578064,-9.753801345825195
1745727891.9134583,0.004544413182884455,-0.013899223878979683,-0.2845925986766815,0.3662475347518921,-0.8455966711044312,-9.672874450683594
1745727891.913532,-0.022704001516103745,-0.01838027499616146,-0.28448787331581116,0.5300412774085999,-0.8451212048530579,-9.725228309631348
1745727891.913619,-0.003145382972434163,-0.013746189884841442,-0.285813570022583,0.37015843391418457,-0.7987316250801086,-9.784720420837402
1745727891.9137018,-0.02122122421860695,-0.01169301476329565,-0.2842029929161072,0.564242959022522,-0.8125628232955933,-9.719112396240234
1745727891.9137497,-0.011971093714237213,-0.019941164180636406,-0.2864011228084564,0.35151684284210205,-0.6083772778511047,-9.692609786987305
1745727891.9137912,-0.010551800951361656,-0.013091975823044777,-0.2848966121673584,0.532454788684845,-0.8334943652153015,-9.83519172668457
1745727891.9138305,-0.005885885562747717,-0.017091166228055954,-0.28699395060539246,0.37361738085746765,-0.4877537190914154,-9.824153900146484
1745727891.9138691,0.006763346493244171,-0.016050124540925026,-0.286283016204834,0.3872605264186859,-0.7913500666618347,-9.781083106994629
1745727891.913899,-0.0019434222485870123,-0.017017420381307602,-0.2865094840526581,0.5307372808456421,-0.6056121587753296,-9.632715225219727
1745727891.9374938,0.012734700925648212,-0.018966129049658775,-0.2861675024032593,0.3760074973106384,-0.8459652066230774,-9.82033920288086
1745727891.9402437,-0.0029553715139627457,-0.019809264689683914,-0.28521567583084106,0.5608209371566772,-0.796674907207489,-9.738725662231445
1745727891.9429734,0.0038542256224900484,-0.019823366776108742,-0.28757914900779724,0.39596372842788696,-0.7530637979507446,-9.759552001953125
1745727891.9460664,-0.006173575762659311,-0.0163978673517704,-0.28634628653526306,0.5188547372817993,-1.0373365879058838,-9.763049125671387
1745727891.9772868,-0.013547195121645927,-0.020032960921525955,-0.2848571240901947,0.4598856568336487,-0.637688934803009,-9.723276138305664
1745727891.981619,-0.01507941447198391,-0.021241411566734314,-0.2855221629142761,0.42855530977249146,-0.9980915188789368,-9.858768463134766
1745727891.9848447,-0.020641203969717026,-0.021875541657209396,-0.2873065769672394,0.4639344811439514,-0.6409695744514465,-9.744893074035645
1745727891.9853652,-0.00482463464140892,-0.018094506114721298,-0.2885666787624359,0.3096940517425537,-0.7100477814674377,-9.746427536010742
1745727891.9893963,-0.01729251816868782,-0.022410111501812935,-0.2880168557167053,0.5555540323257446,-0.7017239928245544,-9.680479049682617
1745727892.1587152,0.004171956796199083,-0.022223446518182755,-0.28782930970191956,0.3806615471839905,-0.5271342396736145,-9.762896537780762
1745727892.1588252,-0.021554606035351753,-0.02212834730744362,-0.2893335819244385,0.5137812495231628,-0.7434395551681519,-9.701690673828125
1745727892.1589086,-0.00011540520790731534,-0.021712398156523705,-0.2915785312652588,0.383965402841568,-0.6334210634231567,-9.609349250793457
1745727892.1590068,-0.014691485092043877,-0.025719651952385902,-0.2915065586566925,0.550287127494812,-0.864119827747345,-9.839062690734863
1745727892.159109,-0.00423309626057744,-0.029182668775320053,-0.2908604145050049,0.3921830356121063,-0.6645808219909668,-9.902142524719238
1745727892.159228,-0.004681555088609457,-0.015633899718523026,-0.2895805835723877,0.4325454831123352,-0.8611472249031067,-9.732179641723633
1745727892.1593187,-0.01092540007084608,-0.026379603892564774,-0.28818634152412415,0.42854052782058716,-0.67744380235672,-9.48326301574707
1745727892.159368,0.002554548205807805,-0.0228982362896204,-0.2866368591785431,0.39198702573776245,-0.7557106018066406,-9.701025009155273
1745727892.1594243,-0.014985285699367523,-0.025834765285253525,-0.2894258201122284,0.5422344207763672,-0.7051435112953186,-9.965459823608398
1745727892.159483,0.004914214834570885,-0.021421143785119057,-0.2896331548690796,0.3106115758419037,-0.6820867657661438,-9.884191513061523
1745727892.1595242,-0.017198961228132248,-0.023514671251177788,-0.28944358229637146,0.4919833242893219,-0.7846512794494629,-9.546795845031738
1745727892.1595724,-0.011710778810083866,-0.02717253938317299,-0.29233962297439575,0.37923747301101685,-0.6346609592437744,-9.658488273620605
1745727892.1596127,-0.012832319363951683,-0.022160973399877548,-0.29221946001052856,0.4868292808532715,-0.8640152812004089,-9.919878005981445
1745727892.1596613,-0.014429676346480846,-0.02438419684767723,-0.29231584072113037,0.48521918058395386,-0.5526000261306763,-9.823169708251953
1745727892.1597128,-0.005177154205739498,-0.02503412961959839,-0.2930491864681244,0.4445342421531677,-0.8167425990104675,-9.649497985839844
1745727892.1597517,0.006263871677219868,-0.02382614091038704,-0.29656800627708435,0.4466148316860199,-0.6362643241882324,-9.709953308105469
1745727892.258018,0.02490335889160633,-0.0217285118997097,-0.2992420494556427,0.40639787912368774,-0.7345881462097168,-9.943780899047852
1745727892.2581458,0.007651136256754398,-0.0228077694773674,-0.29741403460502625,0.49707967042922974,-0.7640577554702759,-9.806356430053711
1745727892.2582011,0.021416857838630676,-0.023640964180231094,-0.2967008650302887,0.3220652937889099,-0.6756633520126343,-9.673449516296387
1745727892.2582538,0.009593508206307888,-0.0239790640771389,-0.2985830307006836,0.4133790135383606,-0.8722831606864929,-9.766656875610352
1745727892.2583053,0.012247524224221706,-0.024254268035292625,-0.2964203357696533,0.3509226441383362,-0.48095956444740295,-9.784854888916016
1745727892.2583556,0.02122030407190323,-0.018178055062890053,-0.3008488714694977,0.42373019456863403,-0.8858181834220886,-9.739215850830078
1745727892.2584069,0.010363278910517693,-0.02623075619339943,-0.2995242178440094,0.4912620186805725,-0.6210373044013977,-9.69109058380127
1745727892.2584572,0.017161408439278603,-0.02380065992474556,-0.2998858392238617,0.416945219039917,-0.7637001276016235,-9.842180252075195
1745727892.2585065,0.001811876194551587,-0.02342718280851841,-0.3014673888683319,0.5378833413124084,-0.8724538087844849,-9.816649436950684
1745727892.2585378,0.015992116183042526,-0.017817962914705276,-0.3002341389656067,0.2364463359117508,-0.6288334131240845,-9.676251411437988
1745727892.4529562,0.00108718394767493,-0.021308252587914467,-0.29921555519104004,0.5731460452079773,-0.8842331171035767,-9.665560722351074
1745727892.4530072,0.00937073677778244,-0.025219615548849106,-0.2989842891693115,0.3580344617366791,-0.4979800283908844,-9.895051002502441
1745727892.4530969,0.011601983569562435,-0.022197982296347618,-0.2991570234298706,0.3897748291492462,-0.8279822468757629,-10.00161075592041
1745727892.453217,0.006837335415184498,-0.025872087106108665,-0.3020896017551422,0.37597736716270447,-0.5600337982177734,-9.645295143127441
1745727892.4532766,0.014352110214531422,-0.023894304409623146,-0.30155104398727417,0.3222794532775879,-0.7011643052101135,-9.56132698059082
1745727892.4533417,0.006219998933374882,-0.025132954120635986,-0.30420416593551636,0.5232876539230347,-0.7410379648208618,-9.75633716583252
1745727892.4533887,0.02647695504128933,-0.01996384561061859,-0.303081214427948,0.33165937662124634,-0.6034564971923828,-9.985211372375488
1745727892.4534538,0.007696551736444235,-0.020037226378917694,-0.30217641592025757,0.5455219149589539,-0.8102105855941772,-9.693918228149414
1745727892.4534945,0.02314508520066738,-0.022085795179009438,-0.3039303123950958,0.4386051595211029,-0.6103318929672241,-9.460139274597168
1745727892.4535663,0.012423669919371605,-0.021576138213276863,-0.30312713980674744,0.3736383020877838,-0.8884288668632507,-9.875797271728516
1745727892.4536495,0.01816694252192974,-0.022143283858895302,-0.30245354771614075,0.4435332715511322,-0.615513801574707,-10.020655632019043
1745727892.453741,0.014016792178153992,-0.019732560962438583,-0.3042636513710022,0.44806498289108276,-0.8513094782829285,-9.541601181030273
1745727892.4537902,0.017140667885541916,-0.024799291044473648,-0.3043752610683441,0.4466544985771179,-0.5201719999313354,-9.766584396362305
1745727892.4683588,0.031260713934898376,-0.012783977203071117,-0.301559716463089,0.3814837634563446,-0.7371820211410522,-9.948246002197266
1745727892.468429,0.020562049001455307,-0.01890554651618004,-0.3061891198158264,0.37239500880241394,-0.5541610717773438,-9.712194442749023
1745727892.468454,0.0434153750538826,-0.018255876377224922,-0.3046625256538391,0.3536311984062195,-0.6662700176239014,-9.64754867553711
1745727892.4684772,0.01988065429031849,-0.020907873287796974,-0.30514174699783325,0.47040310502052307,-0.7844215631484985,-9.864059448242188
1745727892.4684992,0.03600582480430603,-0.02188386209309101,-0.3057948052883148,0.3459959626197815,-0.6369460225105286,-9.920722961425781
1745727892.468521,0.01867781952023506,-0.01569519378244877,-0.30335986614227295,0.5096600651741028,-1.0202802419662476,-9.734382629394531
1745727892.4685428,0.01832621544599533,-0.024070117622613907,-0.3040075898170471,0.3711204528808594,-0.5912008285522461,-9.56300163269043
1745727892.468565,0.027732927352190018,-0.014583629556000233,-0.3041139245033264,0.44675126671791077,-0.8746395111083984,-9.750391960144043
1745727892.4685867,0.013639530166983604,-0.019739830866456032,-0.30389076471328735,0.4449194371700287,-0.5892456769943237,-9.835198402404785
1745727892.495142,0.03114038147032261,-0.016571659594774246,-0.3034120500087738,0.37205973267555237,-0.6799541115760803,-9.801958084106445
1745727892.4976728,0.01968669332563877,-0.015875358134508133,-0.30610913038253784,0.4966253638267517,-0.7425090074539185,-9.70317268371582
1745727892.4998727,0.03540415316820145,-0.0190559234470129,-0.3077522814273834,0.20341400802135468,-0.5213753581047058,-9.764902114868164
1745727892.5022101,0.032851021736860275,-0.016702158376574516,-0.305819571018219,0.31503456830978394,-0.5954260230064392,-9.580870628356934
1745727892.5383322,0.029377171769738197,-0.012012375518679619,-0.3071596026420593,0.49869781732559204,-0.8316909074783325,-9.920969009399414
1745727892.5418262,0.03753261640667915,-0.01282519567757845,-0.304206907749176,0.3441696763038635,-0.6131069660186768,-9.940071105957031
1745727892.5442855,0.04409157484769821,-0.007373832166194916,-0.30372488498687744,0.3182562291622162,-0.8056176900863647,-9.52527904510498
1745727892.548306,0.028148561716079712,-0.01715586706995964,-0.3067559003829956,0.42594781517982483,-0.696323812007904,-9.494965553283691
1745727892.5811708,0.04350863769650459,-0.012947283685207367,-0.3073353171348572,0.3687528967857361,-0.8457597494125366,-9.925044059753418
1745727892.5814548,0.02438470721244812,-0.010653393343091011,-0.3094552159309387,0.5207585692405701,-0.7593161463737488,-9.947555541992188
1745727892.5815296,0.031148020178079605,-0.012815585359930992,-0.30897486209869385,0.3291870355606079,-0.7890514135360718,-9.611244201660156
1745727892.5836225,0.01416016649454832,-0.012645648792386055,-0.30936115980148315,0.5825517773628235,-1.0033212900161743,-9.594841957092285
1745727892.6243613,0.02539324201643467,-0.016722192987799644,-0.30854421854019165,0.3890286982059479,-0.6047731041908264,-9.89806079864502
1745727892.628288,0.02132224850356579,-0.01076958142220974,-0.30670982599258423,0.4261895716190338,-0.9399318695068359,-10.016292572021484
1745727892.6305144,0.02530762553215027,-0.012181263417005539,-0.3078514635562897,0.39044681191444397,-0.5042761564254761,-9.548213005065918
1745727892.6329033,0.031028959900140762,-0.014184567146003246,-0.30950695276260376,0.3387089669704437,-0.8586581945419312,-9.569013595581055
1745727892.635248,0.025284331291913986,-0.018022453412413597,-0.3069075644016266,0.46371880173683167,-0.6801670789718628,-9.756758689880371
1745727892.667081,0.036540232598781586,-0.014131647534668446,-0.3062492311000824,0.32467156648635864,-0.7465426325798035,-10.007883071899414
1745727892.6696022,0.024310065433382988,-0.008772806264460087,-0.30820560455322266,0.47642555832862854,-0.9640935659408569,-9.695417404174805
1745727892.6733902,0.024370085448026657,-0.016219932585954666,-0.31057262420654297,0.3738083243370056,-0.6605175137519836,-9.450642585754395
1745727892.6764412,0.014514237642288208,-0.01646294817328453,-0.30741938948631287,0.5018956661224365,-1.0386707782745361,-9.814443588256836
1745727892.7178347,0.013455788604915142,-0.013301065191626549,-0.307248592376709,0.47824740409851074,-0.6513294577598572,-9.994260787963867
1745727892.7220535,0.024837160483002663,-0.010497072711586952,-0.30721205472946167,0.37931257486343384,-0.8712836503982544,-9.800661087036133
1745727892.727961,0.008480709977447987,-0.021028827875852585,-0.3072485029697418,0.49601155519485474,-0.6831069588661194,-9.489969253540039
1745727892.7325058,0.03003329411149025,-0.01637599989771843,-0.30683934688568115,0.31083640456199646,-0.6142376661300659,-9.740948677062988
1745727892.7339735,0.0335477776825428,-0.015083965845406055,-0.3049371838569641,0.3534284234046936,-0.7362108826637268,-9.625330924987793
1745727892.753478,0.016071397811174393,-0.016529839485883713,-0.3070341944694519,0.4976639151573181,-0.8667097091674805,-9.839167594909668
1745727892.7579734,0.030071314424276352,-0.01987929828464985,-0.30642881989479065,0.38089701533317566,-0.6905460953712463,-9.834297180175781
1745727892.7607217,0.017472902312874794,-0.011775484308600426,-0.3049520254135132,0.5164408087730408,-0.9174714088439941,-9.753880500793457
1745727892.7622085,0.021214082837104797,-0.023240795359015465,-0.3050273060798645,0.3831399977207184,-0.707973837852478,-9.661986351013184
1745727892.7949584,0.02448660507798195,-0.01494707353413105,-0.30423903465270996,0.3797089159488678,-0.868409276008606,-9.768552780151367
1745727892.7973008,0.01755659095942974,-0.019146021455526352,-0.30529844760894775,0.4803466796875,-0.6922076344490051,-9.758119583129883
1745727892.7987032,0.03530726209282875,-0.017637968063354492,-0.3039581775665283,0.3432849943637848,-0.7932065725326538,-9.779610633850098
1745727892.8015919,0.017658904194831848,-0.01726992055773735,-0.3035012185573578,0.44494709372520447,-0.6798407435417175,-9.731657028198242
1745727892.803484,0.03143522888422012,-0.01940387487411499,-0.30720871686935425,0.31469032168388367,-0.6726337671279907,-9.757789611816406
1745727892.8405504,0.02827591262757778,-0.015736853703856468,-0.3073432743549347,0.48269352316856384,-0.8877784013748169,-9.707600593566895
1745727892.842389,0.02808723784983158,-0.022127514705061913,-0.30784475803375244,0.4174261689186096,-0.5937695503234863,-9.757761001586914
1745727892.843549,0.02978309988975525,-0.020138371735811234,-0.30743199586868286,0.47653335332870483,-1.0042548179626465,-9.861227035522461
1745727892.844776,0.027545373886823654,-0.016594279557466507,-0.3050993084907532,0.42509180307388306,-0.5945545434951782,-9.65265941619873
1745727892.8809505,0.031203877180814743,-0.01808949187397957,-0.3041048049926758,0.3943919539451599,-0.564308762550354,-9.754335403442383
1745727892.8826768,0.04334920644760132,-0.01748550496995449,-0.30497121810913086,0.38125699758529663,-0.758992612361908,-9.833599090576172
1745727892.8849845,0.031889066100120544,-0.021030137315392494,-0.3055274486541748,0.4166991114616394,-0.7769848704338074,-9.797880172729492
1745727892.8868384,0.051941294223070145,-0.01698383316397667,-0.3083221912384033,0.24668201804161072,-0.7634119987487793,-9.777677536010742
1745727892.9258356,0.03398675471544266,-0.01705336570739746,-0.30442506074905396,0.4582262635231018,-0.9942266345024109,-9.7350435256958
1745727892.9299462,0.038324810564517975,-0.020010748878121376,-0.30505940318107605,0.3571907877922058,-0.6880651116371155,-9.699724197387695
1745727892.9325042,0.03732306510210037,-0.01365412026643753,-0.3053121268749237,0.5001696944236755,-1.0616651773452759,-9.782552719116211
1745727892.9338903,0.0362156517803669,-0.018783878535032272,-0.3037843108177185,0.4548885226249695,-0.6568349003791809,-9.74793815612793
1745727892.9681962,0.03778275102376938,-0.016407402232289314,-0.3061203360557556,0.3773079514503479,-0.8575563430786133,-9.76524543762207
1745727892.9690845,0.028763163834810257,-0.01792876608669758,-0.3058537542819977,0.48737096786499023,-0.8073478937149048,-9.679097175598145
1745727892.9709396,0.04418005794286728,-0.012965723872184753,-0.3071162700653076,0.21358399093151093,-0.7120307087898254,-9.727216720581055
1745727892.9710827,0.032425783574581146,-0.01570715941488743,-0.3058180510997772,0.5206804275512695,-0.9758177995681763,-9.738198280334473
1745727892.9725792,0.04086237773299217,-0.01926339790225029,-0.30420321226119995,0.3352930545806885,-0.6313484907150269,-9.7638521194458
1745727893.0131648,0.03984178230166435,-0.01285869162529707,-0.3052103519439697,0.4686501622200012,-1.0063939094543457,-9.883936882019043
1745727893.0143616,0.03855138644576073,-0.017376886680722237,-0.3029710650444031,0.37780123949050903,-0.6423299908638,-9.719989776611328
1745727893.0155141,0.044794030487537384,-0.015909548848867416,-0.30269068479537964,0.40707334876060486,-0.9436023831367493,-9.708152770996094
1745727893.0182686,0.037976108491420746,-0.01689322479069233,-0.30307862162590027,0.5353450775146484,-0.8273832201957703,-9.682321548461914
1745727893.053831,0.050138700753450394,-0.015135814435780048,-0.3042024075984955,0.32424330711364746,-0.8162908554077148,-9.926656723022461
1745727893.0558224,0.03451187536120415,-0.01654483936727047,-0.3028925359249115,0.46346765756607056,-0.8099445104598999,-9.702038764953613
1745727893.056848,0.04680142551660538,-0.015435723587870598,-0.30493664741516113,0.32663488388061523,-0.7213122248649597,-9.4806489944458
1745727893.0591228,0.03537432476878166,-0.013964575715363026,-0.3047836422920227,0.44050294160842896,-1.0094513893127441,-9.76207447052002
1745727893.1077206,0.03548957407474518,-0.026095952838659286,-0.30651697516441345,0.4178199768066406,-0.6021482944488525,-9.737367630004883
1745727893.1105595,0.036519136279821396,-0.0168716199696064,-0.3055644631385803,0.4538457989692688,-1.091429591178894,-9.965646743774414
1745727893.1107063,0.028375977650284767,-0.01709004119038582,-0.3044493794441223,0.3580448031425476,-0.8184151649475098,-9.682554244995117
1745727893.112063,0.037345629185438156,-0.01956794038414955,-0.30302661657333374,0.44171714782714844,-1.0275311470031738,-9.531551361083984
1745727893.1395128,0.012543775141239166,-0.025502119213342667,-0.30010396242141724,0.5431419610977173,-0.9160213470458984,-9.817400932312012
1745727893.1418476,0.03658512979745865,-0.0195285864174366,-0.30183306336402893,0.35915452241897583,-0.7647868990898132,-10.067107200622559
1745727893.143864,0.015398884192109108,-0.017459051683545113,-0.30243855714797974,0.46013814210891724,-0.9370529055595398,-9.768693923950195
1745727893.1462958,0.025305232033133507,-0.022272558882832527,-0.30278438329696655,0.3411526083946228,-0.658482551574707,-9.396540641784668
1745727893.1475286,0.02356799505650997,-0.021643172949552536,-0.3051193356513977,0.47641998529434204,-1.006151556968689,-9.727954864501953
1745727893.1824303,0.022246357053518295,-0.02464737929403782,-0.3038853704929352,0.34944480657577515,-0.7416478395462036,-10.010263442993164
1745727893.1860273,0.02988516166806221,-0.015511835925281048,-0.30460435152053833,0.34248465299606323,-0.8663626909255981,-9.729042053222656
1745727893.1893845,0.019560053944587708,-0.021280309185385704,-0.301202654838562,0.5382828116416931,-0.862991213798523,-9.358367919921875
1745727893.192026,0.0387391522526741,-0.023509260267019272,-0.30359646677970886,0.28380465507507324,-0.7058587670326233,-9.747453689575195
1745727893.2261627,0.026445552706718445,-0.019896140322089195,-0.3028305470943451,0.6109671592712402,-0.9309951066970825,-10.140196800231934
1745727893.2286696,0.04113011807203293,-0.020224329084157944,-0.30268770456314087,0.30995479226112366,-0.6773301362991333,-9.794524192810059
1745727893.228787,0.010454083792865276,-0.027275223284959793,-0.29630619287490845,0.3930417597293854,-0.8401086926460266,-9.90489387512207
1745727893.2302427,0.006404244340956211,-0.018776316195726395,-0.29648900032043457,0.4206615388393402,-1.0886945724487305,-9.831003189086914
1745727893.233849,-0.00400665495544672,-0.025893565267324448,-0.2969474196434021,0.4184209704399109,-0.8113309144973755,-9.542497634887695
1745727893.2685049,0.0021210205741226673,-0.019864371046423912,-0.29483678936958313,0.38262468576431274,-1.0056990385055542,-9.650586128234863
1745727893.2702415,-0.00837380439043045,-0.022895628586411476,-0.2988051772117615,0.47072634100914,-0.7523550987243652,-9.777460098266602
1745727893.2713914,0.002032306743785739,-0.022092770785093307,-0.2984221279621124,0.2879559099674225,-0.8515217900276184,-9.863533020019531
1745727893.273275,-0.015724223107099533,-0.020452924072742462,-0.3004741072654724,0.465892493724823,-0.9864185452461243,-9.682889938354492
1745727893.314542,0.0019126745173707604,-0.019415657967329025,-0.2980611324310303,0.3451615869998932,-0.7650730609893799,-9.62707233428955
1745727893.3177392,-0.00922356266528368,-0.021913446485996246,-0.29785698652267456,0.4300324022769928,-0.9929585456848145,-9.837480545043945
1745727893.3211083,-0.003421395318582654,-0.023110559210181236,-0.2979958653450012,0.46469545364379883,-0.6504536867141724,-9.833712577819824
1745727893.330772,0.003300243988633156,-0.01772582344710827,-0.29561173915863037,0.4475908875465393,-1.0613592863082886,-9.777027130126953
1745727893.3335743,-0.006465493235737085,-0.0250687412917614,-0.2972811758518219,0.43390899896621704,-0.7354893088340759,-9.589437484741211
1745727893.354592,0.0025855943094938993,-0.02251502312719822,-0.2950044870376587,0.3064163029193878,-0.952017605304718,-9.783872604370117
1745727893.3559504,-0.010763043537735939,-0.018742185086011887,-0.29363641142845154,0.4122207760810852,-0.9247692823410034,-9.779092788696289
1745727893.360312,0.006818310357630253,-0.015649858862161636,-0.29479554295539856,0.25363001227378845,-0.5977523326873779,-9.57999324798584
1745727893.362578,-0.008280279114842415,-0.018754620105028152,-0.29758530855178833,0.46628910303115845,-0.9317390322685242,-9.634950637817383
1745727893.3993347,0.003277186304330826,-0.022991813719272614,-0.2980424761772156,0.4559648036956787,-0.6605343222618103,-9.810924530029297
1745727893.401126,0.008558178320527077,-0.01264752447605133,-0.29695001244544983,0.4245777726173401,-1.0174895524978638,-9.985137939453125
1745727893.4048553,-0.0037403118330985308,-0.02038823440670967,-0.29462915658950806,0.39890313148498535,-0.8087023496627808,-9.694101333618164
1745727893.4071224,0.01274187583476305,-0.013786351308226585,-0.29258519411087036,0.34876784682273865,-0.9437775611877441,-9.573156356811523
1745727893.4442406,-0.00703025609254837,-0.01977495849132538,-0.2905275225639343,0.48748716711997986,-0.9712291955947876,-9.756704330444336
1745727893.444318,0.013116240501403809,-0.018007755279541016,-0.2912350296974182,0.2890629768371582,-0.6267316937446594,-9.831205368041992
1745727893.449842,0.005887203849852085,-0.02030126191675663,-0.29030364751815796,0.32501301169395447,-0.6925560832023621,-9.790244102478027
1745727893.4498775,-0.001912647276185453,-0.016520952805876732,-0.2934495806694031,0.5001944303512573,-0.8448905944824219,-9.851907730102539
1745727893.4838924,0.008053447119891644,-0.018909433856606483,-0.29159530997276306,0.33495181798934937,-0.6541279554367065,-9.768972396850586
1745727893.4855924,0.008242618292570114,-0.017541592940688133,-0.29463720321655273,0.3702497184276581,-0.8894492983818054,-9.653829574584961
1745727893.4873416,-0.002735770307481289,-0.022927185520529747,-0.29491323232650757,0.38375091552734375,-0.7523320913314819,-9.712367057800293
1745727893.4898164,0.009216043166816235,-0.015090109780430794,-0.2947593927383423,0.3452523350715637,-1.0182521343231201,-9.826635360717773
1745727893.4924088,-0.005920141004025936,-0.01885383203625679,-0.293134868144989,0.49915140867233276,-0.7729358077049255,-9.677436828613281
1745727893.5273852,0.005912681110203266,-0.016448447480797768,-0.2926674485206604,0.38769105076789856,-0.8742896914482117,-9.669157028198242
1745727893.5308216,-0.00475746113806963,-0.018956594169139862,-0.29335975646972656,0.5676409006118774,-0.8902626037597656,-9.844826698303223
1745727893.530902,0.011414097622036934,-0.015874963253736496,-0.29268795251846313,0.33219265937805176,-0.6160684823989868,-9.818216323852539
1745727893.5327964,0.0024558959994465113,-0.01524764858186245,-0.2923133373260498,0.44617533683776855,-1.0177183151245117,-9.716479301452637
1745727893.5707097,0.007550366222858429,-0.02018110826611519,-0.2927897572517395,0.367121160030365,-0.6071990728378296,-9.603378295898438
1745727893.573612,0.007142482791095972,-0.015693536028265953,-0.2931644022464752,0.33645161986351013,-1.0867230892181396,-9.880224227905273
1745727893.5759473,-0.006388242356479168,-0.018523726612329483,-0.2923195958137512,0.40924134850502014,-0.7400432825088501,-9.68592357635498
1745727893.579256,-0.00863570999354124,-0.025976160541176796,-0.2905327379703522,0.45959800481796265,-0.6633287668228149,-9.75914192199707
1745727893.581556,0.005586354993283749,-0.019012216478586197,-0.2915302515029907,0.30823084712028503,-0.8148850202560425,-9.911165237426758
1745727893.615485,-0.0035703617613762617,-0.022228660061955452,-0.2903679311275482,0.45494526624679565,-0.794018566608429,-9.721063613891602
1745727893.618992,0.005129768047481775,-0.023850757628679276,-0.290022075176239,0.2782849371433258,-0.6075872182846069,-9.581059455871582
1745727893.6213598,-0.0007138807559385896,-0.021692033857107162,-0.2916349768638611,0.5243886709213257,-1.0013740062713623,-9.806020736694336
1745727893.6240232,0.006584016140550375,-0.023676251992583275,-0.2914808690547943,0.37770819664001465,-0.5690375566482544,-9.817421913146973
1745727893.6572795,0.008125322870910168,-0.018743392080068588,-0.29341185092926025,0.39074787497520447,-0.9386222958564758,-9.748214721679688
1745727893.6596787,0.0009549520909786224,-0.02384038269519806,-0.2885456681251526,0.42422881722450256,-0.7411878705024719,-9.559654235839844
1745727893.6617618,0.016421830281615257,-0.016684910282492638,-0.2931404113769531,0.3233296871185303,-0.7394310832023621,-9.734060287475586
1745727893.667665,-0.0019170425366610289,-0.022018980234861374,-0.28966832160949707,0.5039454698562622,-0.9157471656799316,-9.852036476135254
1745727893.6678333,0.012266324833035469,-0.02000044845044613,-0.2899346351623535,0.2711639702320099,-0.7007273435592651,-9.771761894226074
1745727893.6994734,-0.0010183441918343306,-0.018410589545965195,-0.2921043634414673,0.4472218453884125,-1.0189272165298462,-9.689786911010742
1745727893.700847,0.0034766800235956907,-0.023856516927480698,-0.28961071372032166,0.3306836783885956,-0.6350356340408325,-9.709175109863281
1745727893.700956,-0.0025826033670455217,-0.018650943413376808,-0.2913431227207184,0.4345323443412781,-0.959738552570343,-9.853586196899414
1745727893.7132425,-0.00728520005941391,-0.023358305916190147,-0.29198527336120605,0.5221673250198364,-0.7285052537918091,-9.811471939086914
1745727893.7424462,0.007200010120868683,-0.018398862332105637,-0.2908889353275299,0.35322433710098267,-0.7960982322692871,-9.75482177734375
1745727893.7440763,-0.012362699955701828,-0.02457457035779953,-0.29232582449913025,0.483116090297699,-0.7346199750900269,-9.64199447631836
1745727893.7469401,0.010647723451256752,-0.023197367787361145,-0.29243937134742737,0.35134437680244446,-0.7147229909896851,-9.731298446655273
1745727893.7498343,-0.0008028168231248856,-0.016974691301584244,-0.2924048602581024,0.4403206706047058,-0.8159776926040649,-9.845318794250488
1745727893.7848423,0.013477712869644165,-0.026284480467438698,-0.2931769788265228,0.386188805103302,-0.5894292593002319,-9.706929206848145
1745727893.7868586,0.008575869724154472,-0.01972138322889805,-0.29174113273620605,0.38886910676956177,-0.8743659257888794,-9.714143753051758
1745727893.7916896,0.00855214986950159,-0.026579592376947403,-0.29237961769104004,0.4500850737094879,-0.6847143769264221,-9.764520645141602
1745727893.805197,0.0032291910611093044,-0.019327795132994652,-0.293999046087265,0.46750274300575256,-0.9668658375740051,-9.756650924682617
1745727893.8287122,0.0027255690656602383,-0.021902959793806076,-0.29555267095565796,0.3178125023841858,-0.5889325141906738,-9.61771297454834
1745727893.8320236,0.014057651162147522,-0.02033386565744877,-0.29348623752593994,0.4222510755062103,-0.8880783915519714,-9.760882377624512
1745727893.8353496,-0.0029055445920675993,-0.02389567159116268,-0.2938633859157562,0.46170592308044434,-0.7275069952011108,-9.847864151000977
1745727893.8383026,0.017849905416369438,-0.018963534384965897,-0.295173704624176,0.34331828355789185,-0.8403472900390625,-9.879639625549316
1745727893.840053,-0.002476033288985491,-0.022993700578808784,-0.292716920375824,0.49216920137405396,-0.8403373956680298,-9.646329879760742
1745727893.8754199,0.010893816128373146,-0.026440229266881943,-0.29407158493995667,0.3490247130393982,-0.571015477180481,-9.644256591796875
1745727893.8755856,0.005926512647420168,-0.021528292447328568,-0.29557108879089355,0.48838678002357483,-0.9415823817253113,-9.85856819152832
1745727893.8757362,0.012235135771334171,-0.024820009246468544,-0.29541492462158203,0.3862374722957611,-0.5348902940750122,-9.838469505310059
1745727893.8786643,0.013367918320000172,-0.02272762730717659,-0.29663902521133423,0.4046436846256256,-0.7965031862258911,-9.660730361938477
1745727893.914559,0.009462503716349602,-0.025186043232679367,-0.29634642601013184,0.4745925962924957,-0.7011656761169434,-9.549581527709961
1745727893.9178486,0.02712901495397091,-0.019577916711568832,-0.2972014546394348,0.2562071681022644,-0.719673752784729,-9.799295425415039
1745727893.9226847,0.014662005007266998,-0.024030964821577072,-0.29628533124923706,0.5585328936576843,-0.857083797454834,-9.914196968078613
1745727893.924959,0.0289754755795002,-0.02235439233481884,-0.2938055992126465,0.30034980177879333,-0.6835461258888245,-9.76283073425293
1745727893.9280293,0.02787364460527897,-0.021138906478881836,-0.2946857810020447,0.372678279876709,-0.946144700050354,-9.48658275604248
1745727893.9578495,0.024549994617700577,-0.02713949605822563,-0.2983933091163635,0.471489816904068,-0.6338253021240234,-9.802608489990234
1745727893.9709878,0.036473773419857025,-0.020127275958657265,-0.2977622151374817,0.3272414207458496,-0.8066638708114624,-9.989900588989258
1745727893.971138,0.01818012073636055,-0.02184043824672699,-0.29850107431411743,0.5211716294288635,-0.8820322155952454,-9.722936630249023
1745727893.9711936,0.041876498609781265,-0.02058132365345955,-0.2973180115222931,0.3242008686065674,-0.7076239585876465,-9.554754257202148
1745727893.9995584,0.022015076130628586,-0.021794859319925308,-0.29572635889053345,0.40350407361984253,-0.9636610150337219,-9.842556953430176
1745727894.0032325,0.03528652340173721,-0.024698015302419662,-0.2965063154697418,0.3839026391506195,-0.6671818494796753,-9.924221992492676
1745727894.0125227,0.029838314279913902,-0.018772337585687637,-0.2945411801338196,0.4366949498653412,-1.0384571552276611,-9.767365455627441
1745727894.0156665,0.029375139623880386,-0.026649003848433495,-0.293942391872406,0.40610772371292114,-0.6595246195793152,-9.509696960449219
1745727894.0172293,0.032627008855342865,-0.022128576412796974,-0.2942642569541931,0.29223546385765076,-0.8899375796318054,-9.818070411682129
1745727894.0442398,0.021442584693431854,-0.020657172426581383,-0.2951202690601349,0.4471186697483063,-0.8139532804489136,-9.81078052520752
1745727894.0475922,0.040451303124427795,-0.017208460718393326,-0.29684895277023315,0.31925636529922485,-0.6440362334251404,-9.617610931396484
1745727894.0478547,0.020770857110619545,-0.022747280076146126,-0.2977774739265442,0.48527732491493225,-0.9582281112670898,-9.647115707397461
1745727894.0479426,0.03306112810969353,-0.025136765092611313,-0.2970840632915497,0.38933974504470825,-0.6891757845878601,-9.843968391418457
1745727894.0868402,0.026917165145277977,-0.014007484540343285,-0.29673779010772705,0.45673733949661255,-1.100679874420166,-9.983686447143555
1745727894.0894506,0.01904258504509926,-0.0246882401406765,-0.292803555727005,0.38579899072647095,-0.7680700421333313,-9.695513725280762
1745727894.091836,0.029117872938513756,-0.0200758446007967,-0.2943463921546936,0.3697752356529236,-0.9068595767021179,-9.661459922790527
1745727894.0949807,0.01723734848201275,-0.024368658661842346,-0.29392561316490173,0.49454307556152344,-0.8453578948974609,-9.811767578125
1745727894.133805,0.036714859306812286,-0.020622625946998596,-0.2923586666584015,0.27443060278892517,-0.6402766108512878,-9.792070388793945
1745727894.134007,0.011977137997746468,-0.021193653345108032,-0.29582512378692627,0.48331278562545776,-0.9326587915420532,-9.680822372436523
1745727894.1352007,0.029376517981290817,-0.02401505783200264,-0.2973352074623108,0.2968100905418396,-0.6614211797714233,-9.647527694702148
1745727894.1390164,0.01964705064892769,-0.01943572424352169,-0.29634958505630493,0.38382330536842346,-0.9809578061103821,-9.786890029907227
1745727894.1418862,0.016728516668081284,-0.026729483157396317,-0.2980117201805115,0.40403541922569275,-0.7485178709030151,-9.774774551391602
1745727894.1732082,0.03032934106886387,-0.022405272349715233,-0.2957679331302643,0.2865407466888428,-0.7132396697998047,-9.759451866149902
1745727894.1761656,0.016894258558750153,-0.018770534545183182,-0.2960696816444397,0.5081812143325806,-0.8564580678939819,-9.685251235961914
