timestamp,angular_vel_x,angular_vel_y,angular_vel_z,linear_acc_x,linear_acc_y,linear_acc_z
1745662381.1309605,-0.20183877646923065,0.05585460737347603,0.31653302907943726,1.0173519849777222,0.25223812460899353,-9.80722427368164
1745662381.144889,-0.2066354751586914,0.046631962060928345,0.31803178787231445,1.05691659450531,0.26946821808815,-10.055377006530762
1745662381.1566133,-0.17473474144935608,0.05236775800585747,0.3239540159702301,0.7901514172554016,0.3628561794757843,-9.829450607299805
1745662381.156663,-0.18571539223194122,0.05100109055638313,0.3284292221069336,0.8390024900436401,0.295588880777359,-9.408472061157227
1745662381.160896,-0.16045382618904114,0.04124369099736214,0.3310663104057312,0.769584059715271,0.36240434646606445,-9.588990211486816
1745662381.1772406,-0.15642277896404266,0.042989134788513184,0.3334200382232666,0.9993091821670532,0.2533039450645447,-9.92912483215332
1745662381.1826699,-0.15619447827339172,0.04436691850423813,0.3384210169315338,0.9048581123352051,0.24216346442699432,-9.941999435424805
1745662381.186706,-0.15729455649852753,0.03752322867512703,0.33858975768089294,0.9229522943496704,0.08231806755065918,-9.621614456176758
1745662381.1902502,-0.17371714115142822,0.029841473326086998,0.34618982672691345,1.0923738479614258,-0.16510233283042908,-9.561595916748047
1745662381.2219002,-0.17554417252540588,0.041189391165971756,0.34951287508010864,0.8533631563186646,-0.10258223861455917,-9.883749008178711
1745662381.2229483,-0.19948671758174896,0.027623340487480164,0.3588060140609741,1.0459800958633423,-0.22433218359947205,-9.822978019714355
1745662381.2230382,-0.20042255520820618,0.02797306701540947,0.3622908592224121,0.9161337018013,0.17031428217887878,-9.548089981079102
1745662381.2230935,-0.2096981257200241,0.0302417129278183,0.3653455376625061,0.9619636535644531,0.13594290614128113,-9.677228927612305
1745662381.2244813,-0.20683693885803223,0.01615385338664055,0.3673776388168335,0.8569909930229187,0.44506263732910156,-9.918304443359375
1745662381.2589166,-0.1948901116847992,0.02202630415558815,0.3668471872806549,0.9307249188423157,0.36033040285110474,-9.876830101013184
1745662381.2611632,-0.1975036859512329,0.014468188397586346,0.3676968216896057,0.937491774559021,0.4338974058628082,-9.618475914001465
1745662381.2665465,-0.18132218718528748,0.010888239368796349,0.3729192614555359,0.7492545247077942,0.3448884189128876,-9.757523536682129
1745662381.2666402,-0.18216532468795776,0.005804538726806641,0.37882599234580994,1.1232147216796875,0.3011859059333801,-9.764278411865234
1745662381.3090138,-0.1682463139295578,0.008567320182919502,0.3826853930950165,0.9043965339660645,0.3921361565589905,-9.828758239746094
1745662381.3090508,-0.16781385242938995,0.005411769263446331,0.38633131980895996,1.0185048580169678,0.3038969337940216,-9.74821662902832
1745662381.3116174,-0.16418719291687012,-0.008991878479719162,0.39219924807548523,0.9926530122756958,0.43272823095321655,-9.701225280761719
1745662381.321663,-0.16074979305267334,-0.002077693585306406,0.39203697443008423,0.9723949432373047,0.3183673024177551,-9.877230644226074
1745662381.3467863,-0.1718555986881256,-0.011273669078946114,0.39934664964675903,0.9395783543586731,0.26035797595977783,-9.582293510437012
1745662381.348662,-0.17551791667938232,-0.016368690878152847,0.39983171224594116,0.7576543092727661,0.3006700575351715,-9.792150497436523
1745662381.3513765,-0.17232447862625122,-0.019219864159822464,0.40361833572387695,0.9915250539779663,0.16314177215099335,-9.804314613342285
1745662381.3549533,-0.1755778193473816,-0.022699017077684402,0.4078921675682068,0.999936580657959,0.4354264736175537,-9.761293411254883
1745662381.387774,-0.1709667146205902,-0.02059783600270748,0.4097776412963867,0.8330413699150085,0.21020087599754333,-9.84460163116455
1745662381.3925178,-0.1777971386909485,-0.029849881306290627,0.4143398404121399,0.8788347244262695,0.32422399520874023,-9.710366249084473
1745662381.3976488,-0.17046497762203217,-0.025360768660902977,0.41990041732788086,0.8563637733459473,0.29382258653640747,-9.630777359008789
1745662381.4012585,-0.18207910656929016,-0.028199102729558945,0.421840101480484,0.9564835429191589,0.3825560212135315,-9.814077377319336
1745662381.4029934,-0.17408958077430725,-0.03624381870031357,0.42080315947532654,0.7710320949554443,0.6067221760749817,-9.895051956176758
1745662381.4327395,-0.17039719223976135,-0.036422885954380035,0.4233883321285248,0.9930374026298523,0.42820972204208374,-9.72587776184082
1745662381.4347908,-0.1720576286315918,-0.03805715590715408,0.42112740874290466,0.838385283946991,0.679145872592926,-9.689860343933105
1745662381.437633,-0.17047011852264404,-0.043145325034856796,0.4240944981575012,0.8719754219055176,0.2735477089881897,-9.869025230407715
1745662381.438717,-0.15986746549606323,-0.047989897429943085,0.4268929064273834,1.024341344833374,0.5735198259353638,-9.736825942993164
1745662381.4741232,-0.11946021020412445,-0.06675203889608383,0.4908263683319092,0.6333293914794922,0.6951910853385925,-9.891016960144043
1745662381.4763591,-0.12148933112621307,-0.07630033791065216,0.49331021308898926,0.7163636684417725,0.8854936361312866,-9.714253425598145
1745662381.4867895,-0.1012924313545227,-0.06867766380310059,0.4938181936740875,0.5912332534790039,0.7972690463066101,-9.757621765136719
1745662381.486889,-0.11259768158197403,-0.06661920249462128,0.49555349349975586,0.7554970979690552,0.7497458457946777,-9.762996673583984
1745662381.5160105,-0.10729026794433594,-0.0732557624578476,0.4927581250667572,0.5779805183410645,0.6635268926620483,-9.825606346130371
1745662381.5187316,-0.10121709108352661,-0.06873194873332977,0.4945048391819,0.7744049429893494,0.6994615197181702,-9.683156967163086
1745662381.5210292,-0.12499042600393295,-0.0682976096868515,0.4960396885871887,0.5971482992172241,0.7195826172828674,-9.780227661132812
1745662381.5240178,-0.10843785852193832,-0.06598983705043793,0.49572405219078064,0.5989425778388977,0.5992564558982849,-9.809385299682617
1745662381.5266097,-0.1237693801522255,-0.06823469698429108,0.49848324060440063,0.7588911056518555,0.7235586047172546,-9.611681938171387
1745662381.559645,-0.11802317202091217,-0.05680454894900322,0.49845704436302185,0.5538226962089539,0.6846479177474976,-9.748193740844727
1745662381.5619211,-0.12145160138607025,-0.06546749174594879,0.499734103679657,0.6989532113075256,0.7243587374687195,-9.770145416259766
1745662381.5648599,-0.11318012326955795,-0.06615641713142395,0.4985671937465668,0.6380218267440796,0.8968410491943359,-9.760984420776367
1745662381.5672202,-0.10564527660608292,-0.05494685098528862,0.49998563528060913,0.7195055484771729,0.823412299156189,-9.750407218933105
1745662381.6036716,-0.11510308086872101,-0.06388019770383835,0.5005456805229187,0.5033646821975708,0.8883718252182007,-9.801004409790039
1745662381.6080122,-0.08823561668395996,-0.05562547966837883,0.49866747856140137,0.7020212411880493,0.7126113176345825,-9.621821403503418
1745662381.609282,-0.10945425182580948,-0.05702204629778862,0.5003732442855835,0.7370521426200867,0.9583900570869446,-9.627360343933105
1745662381.612535,-0.09902981668710709,-0.0580996498465538,0.4984179437160492,0.5318805575370789,0.6950553059577942,-10.00732135772705
1745662381.6142795,-0.09187047183513641,-0.056487035006284714,0.4998703896999359,0.8150862455368042,0.9225043058395386,-9.720014572143555
1745662381.6523306,-0.100904181599617,-0.05070030689239502,0.5001230835914612,0.5575839877128601,0.7836897969245911,-9.657846450805664
1745662381.652386,-0.08961738646030426,-0.04879790544509888,0.500701904296875,0.7195257544517517,0.7478591203689575,-9.618738174438477
1745662381.6525853,-0.09709750860929489,-0.06387735903263092,0.5027204751968384,0.6218446493148804,0.9277579188346863,-9.844693183898926
1745662381.6550677,-0.08035192638635635,-0.04211292788386345,0.501372218132019,0.65816730260849,0.7415468692779541,-9.922751426696777
1745662381.6930463,-0.0909884124994278,-0.048604510724544525,0.5023816227912903,0.6653627157211304,0.9493482708930969,-9.59596061706543
1745662381.6959748,-0.08497267961502075,-0.05273451656103134,0.5026958584785461,0.5050464868545532,0.7102272510528564,-9.709063529968262
1745662381.6961308,-0.08145174384117126,-0.05059375241398811,0.50200355052948,0.7805978655815125,0.8100920915603638,-9.783373832702637
1745662381.697342,-0.09315843880176544,-0.04131361097097397,0.5031397938728333,0.5150234699249268,0.8386966586112976,-9.8649263381958
1745662381.6991959,-0.0880003347992897,-0.04475792497396469,0.5024441480636597,0.6876026391983032,0.6102026104927063,-9.630133628845215
1745662381.7353756,-0.09174183756113052,-0.04996173828840256,0.5038334131240845,0.7007700800895691,0.9309225082397461,-9.566439628601074
1745662381.735467,-0.0946352630853653,-0.03927863389253616,0.5026932954788208,0.6189661026000977,0.7565832734107971,-9.969917297363281
1745662381.7400386,-0.09341476857662201,-0.043445687741041183,0.5031248331069946,0.5949245691299438,0.8835180997848511,-9.834543228149414
1745662381.7434716,-0.07707814872264862,-0.04106241464614868,0.5028116703033447,0.5619476437568665,0.9089702367782593,-9.443188667297363
1745662381.775628,-0.09047503769397736,-0.03821680694818497,0.5052434802055359,0.7281099557876587,0.9053932428359985,-9.616537094116211
1745662381.7803159,-0.06775267422199249,-0.03910404071211815,0.5037384033203125,0.5376141667366028,1.0698503255844116,-10.0234956741333
1745662381.7816656,-0.06807299703359604,-0.035613663494586945,0.503585696220398,0.7002822160720825,0.8083478808403015,-9.821881294250488
1745662381.7832718,-0.06387878954410553,-0.03373435512185097,0.5042473673820496,0.533752977848053,1.0366798639297485,-9.505136489868164
1745662381.8201003,-0.07084397971630096,-0.034869641065597534,0.5024129748344421,0.5760928988456726,0.759485125541687,-9.677127838134766
1745662381.8232083,-0.0365247018635273,-0.025632072240114212,0.4922177195549011,0.6940125226974487,0.8329194188117981,-9.755281448364258
1745662381.8243973,-0.04105313867330551,-0.026853907853364944,0.494051069021225,0.5626609921455383,1.0999752283096313,-9.753536224365234
1745662381.827179,-0.03589806333184242,-0.01651088148355484,0.49168452620506287,0.6157611012458801,0.8530767560005188,-9.741086959838867
1745662381.860694,-0.03551936149597168,-0.027280520647764206,0.4919317364692688,0.6249490976333618,1.1340487003326416,-9.60632038116455
1745662381.8638496,-0.035522960126399994,-0.024073991924524307,0.48773765563964844,0.4694879651069641,0.9096943140029907,-9.808747291564941
1745662381.865029,-0.028653165325522423,-0.024129893630743027,0.4880785346031189,0.7255421280860901,0.8634940981864929,-9.71330738067627
1745662381.8679178,-0.04485193267464638,-0.020311972126364708,0.4865294396877289,0.5221341252326965,0.994404673576355,-9.655000686645508
1745662381.8691778,-0.035527266561985016,-0.029305819422006607,0.4882991909980774,0.7393045425415039,0.7177674770355225,-9.72604751586914
1745662381.9068851,-0.040875162929296494,-0.025720585137605667,0.48728546500205994,0.6163390874862671,1.11087965965271,-9.811836242675781
1745662381.9110837,-0.04243481159210205,-0.021976355463266373,0.4867318272590637,0.6055532693862915,0.8167015910148621,-9.822688102722168
1745662381.9157388,-0.038537655025720596,-0.031008249148726463,0.4863933026790619,0.6002638936042786,1.049597144126892,-9.576322555541992
1745662381.9198508,-0.03367070481181145,-0.023964881896972656,0.4862782061100006,0.62962406873703,0.9799298048019409,-9.625646591186523
1745662381.9494293,-0.035560451447963715,-0.024136921390891075,0.48743191361427307,0.6697201132774353,0.967759907245636,-9.86072063446045
1745662381.9502652,-0.025002533569931984,-0.02814384736120701,0.48521384596824646,0.4757534861564636,1.177528977394104,-9.802438735961914
1745662381.9512525,-0.02144358493387699,-0.028408139944076538,0.4842323362827301,0.7416061162948608,0.9785729646682739,-9.658385276794434
1745662381.9564643,-0.011302413418889046,-0.03268144279718399,0.4788443148136139,0.4756050109863281,1.369814395904541,-9.726775169372559
1745662381.9937782,-0.017739679664373398,-0.029451170936226845,0.4750315248966217,0.45768460631370544,0.8731557130813599,-9.885388374328613
1745662381.9982047,0.006749128457158804,-0.0368545837700367,0.47066545486450195,0.45546191930770874,1.2029061317443848,-9.503301620483398
1745662381.998281,-0.013943610712885857,-0.03215426951646805,0.4666508734226227,0.3624628484249115,0.9033998250961304,-9.709497451782227
1745662382.0023031,0.0025402780156582594,-0.04004085063934326,0.4672536253929138,0.4363681674003601,0.7692784070968628,-9.859820365905762
1745662382.0038073,-0.002970207016915083,-0.025900203734636307,0.4644595682621002,0.3489491641521454,0.9537627100944519,-9.675084114074707
1745662382.034806,-0.016694381833076477,-0.036411263048648834,0.46720996499061584,0.5427387356758118,0.5058028697967529,-9.577594757080078
1745662382.038932,-0.008834711275994778,-0.039468489587306976,0.4652504324913025,0.47805267572402954,0.9207296371459961,-9.628178596496582
1745662382.042206,-0.043919604271650314,-0.03782931715250015,0.45850133895874023,0.48669615387916565,0.8305984735488892,-9.68272876739502
1745662382.0431814,-0.03845067694783211,-0.04468929022550583,0.4586620330810547,0.5428197383880615,0.8792381286621094,-9.738676071166992
1745662382.0767035,-0.047708041965961456,-0.03229442983865738,0.45235762000083923,0.39853453636169434,1.218065857887268,-9.767838478088379
1745662382.079235,-0.03931175917387009,-0.047901466488838196,0.4499496817588806,0.6179305911064148,0.8883260488510132,-9.686834335327148
1745662382.080936,-0.01900818943977356,-0.04332178086042404,0.4497901499271393,0.5054865479469299,1.4575276374816895,-9.589216232299805
1745662382.0821526,-0.023386692628264427,-0.04331618547439575,0.4487486779689789,0.5749847292900085,0.9598857760429382,-9.958372116088867
1745662382.119558,0.014988318085670471,-0.046602681279182434,0.44848260283470154,0.44113215804100037,1.3196654319763184,-9.735125541687012
1745662382.1217785,0.011965449899435043,-0.04150436446070671,0.4459984302520752,0.5041756629943848,1.0111799240112305,-9.640725135803223
1745662382.1236913,0.024249574169516563,-0.04937802627682686,0.44854745268821716,0.5039108395576477,1.021639108657837,-9.657970428466797
1745662382.128794,0.03460869938135147,-0.040890611708164215,0.44539350271224976,0.41793984174728394,1.0236990451812744,-9.811787605285645
1745662382.129123,0.016020413488149643,-0.04865393787622452,0.44272470474243164,0.5131763219833374,0.8624757528305054,-9.752341270446777
1745662382.1647813,0.021483875811100006,-0.04495593532919884,0.43987464904785156,0.46742957830429077,0.8356646299362183,-9.694454193115234
1745662382.1673286,0.008645201101899147,-0.046211499720811844,0.4363357126712799,0.5889711380004883,0.7451305985450745,-9.687484741210938
1745662382.1700196,0.015005980618298054,-0.052064042538404465,0.36200547218322754,0.2956153452396393,0.7984017133712769,-9.836538314819336
1745662382.1722322,0.024722198024392128,-0.05701618641614914,0.35547149181365967,0.3448127508163452,1.0616037845611572,-9.817652702331543
1745662382.2077763,0.019483137875795364,-0.05223928019404411,0.35359472036361694,0.2795405387878418,1.1674578189849854,-9.781106948852539
1745662382.2086372,0.042228154838085175,-0.06417239457368851,0.3503952920436859,0.49091750383377075,0.9213443994522095,-9.798290252685547
1745662382.208678,0.07056652009487152,-0.05169159919023514,0.3484107553958893,0.17632634937763214,1.3758354187011719,-9.752845764160156
1745662382.218739,0.06307841837406158,-0.0529516227543354,0.34709104895591736,0.24542813003063202,0.833741307258606,-9.83674144744873
1745662382.2478263,0.10182909667491913,-0.058043163269758224,0.35057535767555237,0.27065128087997437,1.0214895009994507,-9.562884330749512
1745662382.2506716,0.09669796377420425,-0.050585705786943436,0.34633690118789673,0.21307602524757385,1.0213584899902344,-9.730247497558594
1745662382.2524116,0.08941754698753357,-0.06166766956448555,0.3440222442150116,0.07121630012989044,0.7567962408065796,-10.039306640625
1745662382.2571013,0.11202999204397202,-0.04727277532219887,0.3363388478755951,0.14076033234596252,0.9332718849182129,-9.614842414855957
1745662382.2579994,0.0795581117272377,-0.05658779293298721,0.3315029740333557,0.1732446402311325,0.5647631883621216,-9.582141876220703
1745662382.2931738,0.06733091175556183,-0.058888472616672516,0.32580798864364624,-0.014495506882667542,0.5970855355262756,-9.9149169921875
1745662382.2957847,0.06251401454210281,-0.0529986135661602,0.32502761483192444,0.23790881037712097,0.1946839988231659,-9.896484375
1745662382.297377,0.02783351019024849,-0.04589395597577095,0.32422661781311035,-0.04430088400840759,0.6434664726257324,-9.624563217163086
1745662382.2974546,0.021645909175276756,-0.054280005395412445,0.3225054144859314,0.4128146767616272,0.37710171937942505,-9.593626976013184
1745662382.3348372,0.033314742147922516,-0.0707961842417717,0.3229852318763733,0.30405813455581665,0.811782717704773,-10.006528854370117
1745662382.3383443,0.048711519688367844,-0.025854647159576416,0.3212985396385193,-0.11028806120157242,1.2090175151824951,-10.112550735473633
1745662382.3407075,0.05886168032884598,-0.06332030147314072,0.31443357467651367,0.6797350645065308,0.9519163370132446,-9.093631744384766
1745662382.3451867,0.07550515979528427,-0.06453078240156174,0.314096063375473,-0.019103586673736572,0.9176977872848511,-10.050227165222168
1745662382.3481839,0.08174200356006622,-0.04663599282503128,0.3093871772289276,0.20629450678825378,1.1995775699615479,-10.193490028381348
1745662382.38062,0.10394386947154999,-0.04223551228642464,0.3062066435813904,-0.008761836215853691,1.0145635604858398,-9.455238342285156
1745662382.3828933,0.1014137715101242,-0.048070911318063736,0.30024266242980957,0.43381205201148987,0.9504888653755188,-9.135838508605957
1745662382.3897643,0.10994058847427368,-0.06305207312107086,0.293876588344574,0.6450427174568176,0.8358213305473328,-10.013455390930176
1745662382.3914149,0.12093720585107803,-0.04118432477116585,0.2890215516090393,0.17970767617225647,0.8471351861953735,-8.726929664611816
1745662382.4224129,0.07836910337209702,-0.060109369456768036,0.28719472885131836,0.4296274185180664,0.2412095069885254,-10.136340141296387
1745662382.4239502,0.13240575790405273,-0.03818559646606445,0.2827606797218323,0.022530019283294678,0.9909607768058777,-10.68601131439209
1745662382.4261715,0.09837266802787781,-0.01872209645807743,0.2782406508922577,-0.036421727389097214,0.814082145690918,-9.519754409790039
1745662382.427586,0.11814229190349579,-0.04528918117284775,0.27030816674232483,0.38887524604797363,0.7647725939750671,-8.657181739807129
1745662382.4641602,0.1147371158003807,-0.04915418475866318,0.26432234048843384,0.3470923900604248,0.7170655131340027,-10.118786811828613
1745662382.4659755,0.10173417627811432,-0.031824927777051926,0.26122480630874634,0.22356554865837097,0.4942585825920105,-11.080288887023926
1745662382.4694571,0.12956282496452332,-0.022256990894675255,0.26071348786354065,0.25578540563583374,0.6263730525970459,-9.405885696411133
1745662382.4721274,0.09548579156398773,-0.03382502868771553,0.2622389793395996,0.28935933113098145,0.2850271761417389,-8.639592170715332
1745662382.4752483,0.10516729205846786,-0.044738538563251495,0.2585397958755493,0.35288411378860474,0.8211066126823425,-10.039327621459961
1745662382.511762,0.09844205528497696,-0.031393520534038544,0.2517741322517395,0.35333487391471863,0.7448443174362183,-10.958788871765137
1745662382.5118341,0.13777975738048553,-0.012137740850448608,0.24590139091014862,-0.0026395022869110107,1.005222201347351,-9.603811264038086
1745662382.5172493,0.10751817375421524,-0.031219005584716797,0.23840394616127014,0.3487338423728943,0.9566343426704407,-8.641528129577637
1745662382.520059,0.15939512848854065,0.011881339363753796,0.1436232626438141,0.1656053215265274,0.5207224488258362,-9.831026077270508
1745662382.5511055,0.1635293811559677,0.006498862989246845,0.1422487199306488,0.2764352262020111,-0.0066351210698485374,-9.978803634643555
1745662382.553799,0.16905167698860168,0.013179202564060688,0.13868001103401184,0.07372649013996124,0.579917311668396,-9.541902542114258
1745662382.5553565,0.15580680966377258,0.014837188646197319,0.13787832856178284,0.2728838324546814,-0.14041538536548615,-9.52064323425293
1745662382.5568342,0.1593320369720459,0.0105021046474576,0.1362612545490265,0.26566189527511597,0.44039830565452576,-9.742204666137695
1745662382.5940182,0.15218733251094818,0.013976940885186195,0.13087782263755798,0.2914735674858093,0.1654156893491745,-10.152241706848145
1745662382.604993,0.15677030384540558,0.011011408641934395,0.12825605273246765,0.3473304808139801,0.23546040058135986,-9.776150703430176
1745662382.6050742,0.14623971283435822,0.019653942435979843,0.1269340217113495,0.2862575650215149,0.2958815395832062,-9.51430892944336
1745662382.6084914,0.14969776570796967,0.004491219762712717,0.12621064484119415,0.3279871940612793,0.034025244414806366,-9.746301651000977
1745662382.612292,0.13784849643707275,0.01601279340684414,0.1229497566819191,0.1649162471294403,0.34919318556785583,-9.925252914428711
1745662382.636612,0.14624764025211334,0.019170846790075302,0.12155558913946152,0.3328484892845154,0.15138261020183563,-9.73525619506836
1745662382.6373904,0.14448735117912292,0.012142019346356392,0.11550071090459824,0.15445047616958618,0.5370516180992126,-9.531850814819336
1745662382.6394684,0.14824983477592468,0.01585596427321434,0.11321725696325302,0.35297513008117676,0.21415968239307404,-9.802535057067871
1745662382.6427844,0.1596514880657196,0.013495421037077904,0.1091780886054039,0.3141394257545471,0.4457094073295593,-9.962652206420898
1745662382.6807046,0.15320193767547607,0.019748736172914505,0.10696600377559662,0.20766572654247284,0.24015192687511444,-9.808717727661133
1745662382.684234,0.16256839036941528,0.013571562245488167,0.10485769808292389,0.35815656185150146,-0.021406594663858414,-9.47086238861084
1745662382.6873336,0.1585383117198944,0.017308931797742844,0.10442974418401718,0.23135800659656525,0.3165911138057709,-9.613344192504883
1745662382.6897402,0.15145477652549744,0.016124077141284943,0.10401280969381332,0.42359811067581177,-0.06583719700574875,-9.98640251159668
1745662382.6929832,0.16426384449005127,0.022358326241374016,0.09788815677165985,0.2547924518585205,0.45172029733657837,-9.760406494140625
1745662382.7274604,0.14837881922721863,0.023400330916047096,0.09370923787355423,0.41966724395751953,0.13492421805858612,-9.579506874084473
1745662382.730972,0.15410855412483215,0.011855529621243477,0.09020812809467316,0.28363272547721863,0.15877045691013336,-9.765108108520508
1745662382.7315881,0.1498376429080963,0.022347476333379745,0.08605889976024628,0.24142053723335266,0.064353808760643,-10.019792556762695
1745662382.7358418,0.15089213848114014,0.019792798906564713,0.08392323553562164,0.3034271001815796,-0.01604922115802765,-9.709661483764648
1745662382.771602,0.14561575651168823,0.018274355679750443,0.079556405544281,0.30831876397132874,0.3863081634044647,-9.999043464660645
1745662382.7716448,0.13783833384513855,0.02679464779794216,0.07656698673963547,0.3355656564235687,-0.06483930349349976,-9.948686599731445
1745662382.7736993,0.14779359102249146,0.01927272602915764,0.07297035306692123,0.3007061779499054,0.21660737693309784,-9.452507972717285
1745662382.7770693,0.13943499326705933,0.019834276288747787,0.07108153402805328,0.31350404024124146,0.046992696821689606,-9.651422500610352
1745662382.8096292,0.13421085476875305,0.015416352078318596,0.0686771497130394,0.34776800870895386,-0.06634271144866943,-10.031187057495117
1745662382.8117294,0.14222237467765808,0.026362061500549316,0.0644131526350975,0.2510569393634796,0.19347046315670013,-9.783551216125488
1745662382.8138237,0.1294863373041153,0.01799221895635128,0.06454834342002869,0.44573742151260376,-0.09435014426708221,-9.51012897491455
1745662382.8172834,0.1429034322500229,0.021148471161723137,0.062305450439453125,0.2855008542537689,0.2946075201034546,-9.64179801940918
1745662382.8546052,0.12897220253944397,0.019192831590771675,0.058142371475696564,0.41841864585876465,-0.02864908054471016,-10.124670028686523
1745662382.8582218,0.13966397941112518,0.021294821053743362,0.05462055653333664,0.2587807774543762,0.12590137124061584,-9.854930877685547
1745662382.859448,0.13614492118358612,0.020283116027712822,0.05543742701411247,0.291875422000885,-0.09856967628002167,-9.477733612060547
1745662382.8671334,0.141044020652771,0.017769107595086098,0.05543241649866104,0.09762348234653473,-0.020810842514038086,-9.600896835327148
1745662382.896223,0.01412900723516941,-0.002238592365756631,0.09833234548568726,0.44101887941360474,-0.2750360667705536,-9.758872032165527
1745662382.9006739,0.02394581027328968,0.005082572344690561,0.09879235923290253,0.14907331764698029,-0.1814434975385666,-10.0322265625
1745662382.904005,0.019618231803178787,0.006573420949280262,0.10390926897525787,0.29732659459114075,-0.24512112140655518,-9.706084251403809
1745662382.9103801,0.014982039108872414,-0.0029384205117821693,0.10261894762516022,0.2593173682689667,-0.05075014755129814,-9.474555015563965
1745662382.9383116,0.026423746719956398,0.005088826175779104,0.10045691579580307,0.345272958278656,-0.14736513793468475,-9.809837341308594
1745662382.9410164,0.004268455319106579,0.0016133837634697556,0.09529861062765121,0.49168890714645386,-0.005396989174187183,-10.028909683227539
1745662382.943059,0.015846535563468933,-0.0009666945552453399,0.09000472724437714,0.7868856191635132,0.08206246793270111,-9.981521606445312
1745662382.9467018,0.01426985114812851,-0.020612919703125954,0.08035723865032196,0.425861656665802,0.2961023151874542,-9.978257179260254
1745662382.9503462,0.06142638251185417,0.02652662992477417,0.0712742879986763,0.6329792737960815,0.29745492339134216,-9.415822982788086
1745662382.9818597,0.055963288992643356,-0.010786095634102821,0.06623396277427673,0.6991974115371704,0.33013206720352173,-9.513163566589355
1745662382.9842186,0.06558012962341309,-0.02875925600528717,0.0605568066239357,0.7047429084777832,-0.6277620196342468,-10.273801803588867
1745662382.9857159,0.07747067511081696,0.02082901820540428,0.06136894226074219,0.05962666869163513,0.024561520665884018,-10.290868759155273
1745662382.9881163,0.05407359078526497,0.02101496234536171,0.05718064308166504,-0.03622090443968773,-0.572403073310852,-9.202796936035156
1745662383.0242214,0.08943259716033936,0.004112320952117443,0.044907230883836746,0.965217113494873,-0.057762883603572845,-8.461772918701172
1745662383.026958,0.008663792163133621,-0.003223429899662733,0.03331730514764786,1.0439149141311646,-0.39125779271125793,-10.680952072143555
1745662383.0284398,0.06802483648061752,0.01581156626343727,0.02065502665936947,0.6224695444107056,-0.36320075392723083,-11.249643325805664
1745662383.0299795,0.015899037942290306,0.036133281886577606,0.01689448021352291,0.5403342843055725,-0.6007177233695984,-8.916732788085938
1745662383.0325122,-0.01865893229842186,0.008758580312132835,0.01801169291138649,0.6232131123542786,-1.008862853050232,-8.288724899291992
1745662383.068656,-0.030213940888643265,0.0013482494978234172,0.018639447167515755,0.8918255567550659,-0.44699183106422424,-10.354243278503418
1745662383.0721824,-0.028058260679244995,0.028278792276978493,0.00900153536349535,0.32284682989120483,0.2577083706855774,-11.4960355758667
1745662383.0778213,0.016476165503263474,0.04793964698910713,-0.003505619242787361,0.4468446373939514,0.6581929922103882,-9.08424186706543
1745662383.0778987,0.010855822823941708,0.01198643259704113,-0.013120423071086407,0.8378548622131348,0.37340134382247925,-8.060741424560547
1745662383.1123123,0.057859085500240326,-0.0031661936081945896,-0.021898727864027023,0.5461532473564148,0.44840580224990845,-10.572821617126465
1745662383.1144645,0.07848340272903442,-0.0021580872125923634,-0.026127532124519348,0.8521668314933777,-0.24881300330162048,-10.444489479064941
1745662383.1169605,0.10541117191314697,0.03303185850381851,-0.037267010658979416,0.5255110859870911,-0.05389305204153061,-11.945352554321289
1745662383.1203804,0.09067336469888687,0.045849233865737915,-0.04736626148223877,0.5731399059295654,-0.1878301352262497,-9.313157081604004
1745662383.1538107,0.0823514312505722,0.02143697626888752,-0.05312364175915718,0.49126872420310974,-0.34449777007102966,-7.875321865081787
1745662383.157123,0.045287374407052994,0.0017092525959014893,-0.05621772259473801,0.7111526131629944,-0.6834467649459839,-10.082690238952637
1745662383.1601195,0.04068576544523239,0.035645969212055206,-0.05977017804980278,0.3740977346897125,-0.47235918045043945,-11.629127502441406
1745662383.1610622,0.03948727250099182,0.05609356611967087,-0.06023597717285156,0.43662580847740173,-0.6180921792984009,-9.529150009155273
1745662383.1633456,0.0271275844424963,0.022610748186707497,-0.059003520756959915,0.6095489859580994,-0.31789064407348633,-7.959599494934082
1745662383.1965466,0.03455767780542374,0.013491237536072731,-0.06050597503781319,0.7145578265190125,-0.038230009377002716,-10.089618682861328
1745662383.2007654,0.04536799341440201,0.03541544824838638,-0.06761164963245392,0.6491116285324097,-0.11985863745212555,-11.567754745483398
1745662383.2030416,0.07229076325893402,0.05492521449923515,-0.07412465661764145,0.4753040373325348,0.25188636779785156,-9.420103073120117
1745662383.2052076,0.051810286939144135,0.029865413904190063,-0.07506494969129562,0.64285808801651,-0.217474102973938,-8.160882949829102
1745662383.239562,0.08121685683727264,0.013468736782670021,-0.07914457470178604,0.43086686730384827,0.12857159972190857,-9.918362617492676
1745662383.2446623,0.07155664265155792,-0.003288542851805687,-0.14925308525562286,0.707956850528717,-0.3291100859642029,-9.267468452453613
1745662383.247062,0.07492096722126007,-0.009629437699913979,-0.15346750617027283,0.5608617663383484,-0.24610106647014618,-9.768838882446289
1745662383.2509682,0.0802486389875412,-0.002336866455152631,-0.1545419543981552,0.5690129995346069,-0.40053790807724,-10.213425636291504
1745662383.2816432,0.07202403247356415,-0.004494798369705677,-0.16037198901176453,0.6809989809989929,-0.3475751280784607,-9.702859878540039
1745662383.283224,0.08108241856098175,-0.007225340697914362,-0.162789449095726,0.4993610978126526,-0.3795994818210602,-9.3737154006958
1745662383.2859268,0.05642642825841904,-0.019853100180625916,-0.1651727259159088,0.6653993129730225,-0.5493638515472412,-9.731325149536133
1745662383.2870152,0.05863448232412338,-0.006584058050066233,-0.16676516830921173,0.4734587073326111,-0.4583664536476135,-10.120440483093262
1745662383.2891934,0.049040537327528,-0.007306369487196207,-0.1649671047925949,0.6173433661460876,-0.7057934403419495,-9.75570011138916
1745662383.324991,0.05828315019607544,-0.01855589635670185,-0.16620966792106628,0.5581380128860474,-0.3974398970603943,-9.417943000793457
1745662383.3260179,0.04891021549701691,-0.015808455646038055,-0.1696488857269287,0.5447967052459717,-0.48843374848365784,-9.820272445678711
1745662383.3260581,0.05631810426712036,-0.01698257029056549,-0.16713500022888184,0.5170264840126038,-0.3187207579612732,-9.98078727722168
1745662383.327022,0.05588928610086441,-0.005975020583719015,-0.17361527681350708,0.5095478296279907,-0.2570829689502716,-9.649927139282227
1745662383.3686333,0.06282108277082443,-0.015278751961886883,-0.17497003078460693,0.5871942043304443,-0.3738895058631897,-9.489967346191406
1745662383.3704824,0.07156102359294891,-0.022253211587667465,-0.1779937446117401,0.5186179876327515,-0.27510371804237366,-9.797945022583008
1745662383.3733494,0.05844637006521225,-0.010919281281530857,-0.18042674660682678,0.6669819355010986,-0.5662628412246704,-10.03752326965332
1745662383.3759415,0.06460346281528473,-0.01525252778083086,-0.1823592633008957,0.5135084390640259,-0.2701937258243561,-9.61556625366211
1745662383.4115975,0.05556531995534897,-0.013974075205624104,-0.181535542011261,0.6716753244400024,-0.5772208571434021,-9.410669326782227
1745662383.415387,0.0524248369038105,-0.02253764495253563,-0.1824881136417389,0.57770174741745,-0.373496949672699,-9.891230583190918
1745662383.4190652,0.07088708132505417,-0.016631610691547394,-0.1845577359199524,0.5215364694595337,-0.4803849756717682,-10.173539161682129
1745662383.419225,0.05938274785876274,-0.01616809517145157,-0.18620926141738892,0.5627118349075317,-0.26742178201675415,-9.630386352539062
1745662383.4199362,0.07620622217655182,-0.017500940710306168,-0.1884976178407669,0.38647472858428955,-0.4065788686275482,-9.377218246459961
1745662383.4548025,0.06679916381835938,-0.020367270335555077,-0.18908660113811493,0.6127623319625854,-0.3825913965702057,-9.620978355407715
1745662383.4568386,0.047941118478775024,-0.023333285003900528,-0.19674575328826904,0.6678503155708313,-0.485457181930542,-9.966739654541016
1745662383.458483,0.05692402645945549,-0.016289854422211647,-0.19719399511814117,0.5644346475601196,-0.5780194401741028,-9.98641586303711
1745662383.4619844,0.04711943119764328,-0.02059960924088955,-0.19657501578330994,0.5841301679611206,-0.5958499908447266,-9.654375076293945
1745662383.4978158,0.05713769048452377,-0.02471565082669258,-0.19955730438232422,0.3955537676811218,-0.4268333315849304,-9.643153190612793
1745662383.4987957,0.040317993611097336,-0.023056790232658386,-0.20114049315452576,0.5984077453613281,-0.4222640097141266,-9.843121528625488
1745662383.5005136,0.061144303530454636,-0.023067476227879524,-0.20296797156333923,0.4128139615058899,-0.2698935866355896,-9.80693244934082
1745662383.504029,0.06386750191450119,-0.015838682651519775,-0.20442068576812744,0.5539243221282959,-0.3727937638759613,-9.617571830749512
1745662383.541109,0.059934258460998535,-0.02229991741478443,-0.20542216300964355,0.5569148659706116,-0.48388075828552246,-9.704389572143555
1745662383.5426383,0.08410146087408066,-0.023409653455018997,-0.20655879378318787,0.4724428653717041,-0.44980698823928833,-9.969761848449707
1745662383.5452454,0.0613354928791523,-0.022657418623566628,-0.2077350914478302,0.5952621698379517,-0.5162780284881592,-9.775009155273438
1745662383.5469482,0.07725866883993149,-0.010572862811386585,-0.20880231261253357,0.4427243769168854,-0.5126103162765503,-9.61149787902832
1745662383.549235,0.0508749857544899,-0.02209620736539364,-0.20931771397590637,0.6835184097290039,-0.7024808526039124,-9.613759994506836
1745662383.5842903,0.06213553994894028,-0.02198474481701851,-0.2102312296628952,0.5302594900131226,-0.4327954351902008,-9.984087944030762
1745662383.586152,0.053305912762880325,-0.018511535599827766,-0.21168895065784454,0.5506932139396667,-0.7183265089988708,-10.036507606506348
1745662383.5950437,0.03657974302768707,-0.019640076905488968,-0.24165558815002441,0.4865848422050476,-0.5493024587631226,-9.677721977233887
1745662383.5951138,0.03885935992002487,-0.014560408890247345,-0.2424650639295578,0.503892719745636,-0.6795657873153687,-9.781095504760742
1745662383.6284115,0.027524715289473534,-0.021351050585508347,-0.24334654211997986,0.5509757399559021,-0.5366525650024414,-9.772927284240723
1745662383.6328247,0.026292432099580765,-0.012543229386210442,-0.24341753125190735,0.5007754564285278,-0.6590805053710938,-9.83309268951416
1745662383.6359544,0.01207674853503704,-0.017563192173838615,-0.24467110633850098,0.5699755549430847,-0.7743773460388184,-9.784438133239746
1745662383.6408923,0.028423408046364784,-0.018881836906075478,-0.24659934639930725,0.3998051583766937,-0.4753597676753998,-9.753484725952148
1745662383.6681216,0.008104137144982815,-0.015418845228850842,-0.24644777178764343,0.4929583668708801,-0.7014555931091309,-9.846909523010254
1745662383.6716826,0.03181258589029312,-0.01842624694108963,-0.24628908932209015,0.4014745354652405,-0.4261566996574402,-9.657623291015625
1745662383.6739476,0.013561214320361614,-0.011829252354800701,-0.24936039745807648,0.586380660533905,-0.5415668487548828,-9.657506942749023
1745662383.6775663,0.022339966148138046,-0.016723718494176865,-0.24915137887001038,0.4793469309806824,-0.5611926913261414,-9.889765739440918
1745662383.680658,0.034639645367860794,-0.015435737557709217,-0.24950143694877625,0.4503323435783386,-0.5219664573669434,-9.908045768737793
1745662383.7155292,0.020702995359897614,-0.0167883038520813,-0.252284437417984,0.6131936311721802,-0.6540351510047913,-9.69940185546875
1745662383.7196643,0.029789110645651817,-0.014714883640408516,-0.2529337704181671,0.3989008963108063,-0.5845485329627991,-9.687677383422852
1745662383.7231033,0.013238869607448578,-0.018344739452004433,-0.25072401762008667,0.6286010146141052,-0.7169620394706726,-9.755805969238281
1745662383.7263427,0.012866580858826637,-0.018585745245218277,-0.2503674030303955,0.45596423745155334,-0.5498349666595459,-9.920181274414062
1745662383.7594855,0.012862257659435272,-0.013414865359663963,-0.2551780343055725,0.48327475786209106,-0.7718828916549683,-9.846864700317383
1745662383.7595527,0.013284104876220226,-0.019705262035131454,-0.25469064712524414,0.4796590805053711,-0.3558955192565918,-9.59995174407959
1745662383.7596097,0.013729028403759003,-0.015177249908447266,-0.25775349140167236,0.42597928643226624,-0.6149178743362427,-9.791748046875
1745662383.7616565,0.019684504717588425,-0.018638215959072113,-0.2580074965953827,0.5913815498352051,-0.48200756311416626,-9.738069534301758
1745662383.7972462,0.012966124340891838,-0.012896689586341381,-0.25871962308883667,0.4564659595489502,-0.567396879196167,-9.80921745300293
1745662383.799768,0.022550107911229134,-0.01458689570426941,-0.25689592957496643,0.4721089005470276,-0.7190014719963074,-9.783573150634766
1745662383.8022335,0.005204616580158472,-0.015466196462512016,-0.26034316420555115,0.5932503342628479,-0.5982052087783813,-9.683550834655762
1745662383.80596,0.009147463366389275,-0.014289786107838154,-0.2629513442516327,0.4072485864162445,-0.5609062910079956,-9.755729675292969
1745662383.841905,0.013057529926300049,-0.014501388184726238,-0.2636586129665375,0.6269838809967041,-0.56904536485672,-9.683206558227539
1745662383.8449287,0.0028533372096717358,-0.014290491119027138,-0.26499617099761963,0.5341322422027588,-0.4437195360660553,-9.800064086914062
1745662383.846321,0.03131583333015442,-0.008926860056817532,-0.26761147379875183,0.4892023205757141,-0.6188026666641235,-9.875146865844727
1745662383.8464017,0.018445799127221107,-0.018943509086966515,-0.2672004997730255,0.5561707615852356,-0.4943699836730957,-9.703144073486328
1745662383.8859322,0.029683589935302734,-0.009770894423127174,-0.26748520135879517,0.4840722978115082,-0.6771924495697021,-9.755387306213379
1745662383.888909,0.014960182830691338,-0.014314589090645313,-0.2680644392967224,0.5685653686523438,-0.6061914563179016,-9.693402290344238
1745662383.8918202,0.024593839421868324,-0.012613102793693542,-0.26971909403800964,0.46288633346557617,-0.5864952206611633,-9.688833236694336
1745662383.900036,0.010579090565443039,-0.009761946275830269,-0.2684999108314514,0.6182407140731812,-0.7063761353492737,-9.76716423034668
1745662383.9003236,0.018850594758987427,-0.014379441738128662,-0.2728181779384613,0.4773130416870117,-0.5525088310241699,-9.862993240356445
1745662383.9309251,0.009401933290064335,-0.010201935656368732,-0.27446597814559937,0.5543105006217957,-0.626476526260376,-9.797868728637695
1745662383.9336343,0.0027107351925224066,-0.014525231905281544,-0.27505192160606384,0.487008273601532,-0.6223959922790527,-9.720155715942383
1745662383.9355476,0.02148028463125229,-0.00902632251381874,-0.27617377042770386,0.44738084077835083,-0.6193284392356873,-9.5869140625
1745662383.9382868,0.022535961121320724,-0.007807288318872452,-0.29169151186943054,0.43368616700172424,-0.5431954264640808,-9.72426700592041
1745662383.9702632,0.01923316903412342,-0.017300602048635483,-0.294607549905777,0.5764783620834351,-0.6365925669670105,-9.599550247192383
1745662383.973026,0.03061186894774437,-0.014870712533593178,-0.2945152819156647,0.41543254256248474,-0.43436089158058167,-9.683116912841797
1745662383.9742815,0.008418559096753597,-0.011865614913403988,-0.2975369393825531,0.6500937938690186,-0.7769204378128052,-9.879791259765625
1745662383.9755843,0.03441127762198448,-0.009008572436869144,-0.2965541481971741,0.3749381899833679,-0.5371471643447876,-9.772059440612793
1745662384.013249,0.01821439154446125,-0.010890236124396324,-0.29466140270233154,0.5054336190223694,-0.7157672643661499,-9.627121925354004
1745662384.015786,0.03320540860295296,-0.01671293005347252,-0.29306864738464355,0.5707322359085083,-0.5243598222732544,-9.671387672424316
1745662384.020105,0.03276417776942253,-0.01078162994235754,-0.2957649827003479,0.4676752984523773,-0.5373886823654175,-9.919425010681152
1745662384.022954,0.029033858329057693,-0.015207111835479736,-0.29458123445510864,0.6303238272666931,-0.5826213359832764,-9.753837585449219
1745662384.0253012,0.035078343003988266,-0.012322253547608852,-0.2973988652229309,0.40869656205177307,-0.5771622657775879,-9.617401123046875
1745662384.056581,0.027952220290899277,-0.013985695317387581,-0.2960605323314667,0.5843557119369507,-0.8406143188476562,-9.738992691040039
1745662384.058104,0.02891846001148224,-0.01832595467567444,-0.29768332839012146,0.4652225077152252,-0.4902636408805847,-9.843820571899414
1745662384.059231,0.016918476670980453,-0.009595898911356926,-0.2955248951911926,0.46743956208229065,-0.8336654901504517,-9.85655403137207
1745662384.060338,0.03291128948330879,-0.015316258184611797,-0.297829270362854,0.4961733818054199,-0.4954877495765686,-9.60735034942627
1745662384.1003413,0.02385031245648861,-0.015297876670956612,-0.29872649908065796,0.4887666702270508,-0.5404351353645325,-9.616938591003418
1745662384.1035671,0.025422383099794388,-0.016041003167629242,-0.2994081974029541,0.6367582678794861,-0.6332935094833374,-9.865933418273926
1745662384.1063406,0.03945324569940567,-0.013408757746219635,-0.30062976479530334,0.37114953994750977,-0.42414340376853943,-9.867523193359375
1745662384.1111498,0.030590632930397987,-0.013254493474960327,-0.2989867627620697,0.5984069108963013,-0.7968932390213013,-9.676552772521973
1745662384.1151493,0.04127204418182373,-0.01706724241375923,-0.2983129620552063,0.38442540168762207,-0.5467823147773743,-9.674978256225586
1745662384.143018,0.03430510312318802,-0.014485406689345837,-0.2967269718647003,0.5273358225822449,-0.7945588231086731,-9.837607383728027
1745662384.1457305,0.032489657402038574,-0.019778992980718613,-0.29712992906570435,0.48916736245155334,-0.4886654317378998,-9.750523567199707
1745662384.148609,0.0328391008079052,-0.012392334640026093,-0.2998778522014618,0.4501407742500305,-0.6727886199951172,-9.71595287322998
1745662384.148706,0.04385068267583847,-0.014189660549163818,-0.3002144694328308,0.5103121399879456,-0.7199395895004272,-9.845403671264648
1745662384.186555,0.04784666746854782,-0.016774479299783707,-0.296623557806015,0.5728484392166138,-0.5305125117301941,-9.805391311645508
1745662384.1888742,0.05209147185087204,-0.010934672318398952,-0.3014560639858246,0.36905866861343384,-0.6172095537185669,-9.780488967895508
1745662384.1923957,0.04906244948506355,-0.016635965555906296,-0.298852801322937,0.5531283617019653,-0.7169356346130371,-9.710700988769531
1745662384.19508,0.045257825404405594,-0.016666043549776077,-0.30083799362182617,0.4251534044742584,-0.5916387438774109,-9.750844955444336
1745662384.2286701,0.04121515527367592,-0.015843402594327927,-0.29961130023002625,0.5534323453903198,-0.8789036870002747,-9.852594375610352
1745662384.2333078,0.05027620866894722,-0.017796803265810013,-0.2985614240169525,0.4286975860595703,-0.5606080889701843,-9.646032333374023
1745662384.2396598,0.034493472427129745,-0.010955099016427994,-0.2997918426990509,0.5559485554695129,-0.7808957099914551,-9.680144309997559
1745662384.241969,0.04871036857366562,-0.01871807500720024,-0.29952481389045715,0.5345515012741089,-0.5788394212722778,-9.74202823638916
1745662384.244601,0.0459027960896492,-0.014366683550179005,-0.30000025033950806,0.41218963265419006,-0.5766695737838745,-9.911781311035156
1745662384.271924,0.04839261621236801,-0.015203053131699562,-0.3003878891468048,0.5525457262992859,-0.7395532131195068,-9.801626205444336
1745662384.2743385,0.05345649644732475,-0.017182448878884315,-0.2990608811378479,0.3146166503429413,-0.5465704202651978,-9.672399520874023
1745662384.2766438,0.04950443655252457,-0.014844229444861412,-0.2981429398059845,0.557885468006134,-0.8015629649162292,-9.640265464782715
1745662384.2802877,0.041900064796209335,-0.019991829991340637,-0.2991012930870056,0.42497962713241577,-0.6013805270195007,-9.782203674316406
1745662384.3145268,0.028761569410562515,-0.021512875333428383,-0.29877519607543945,0.5075511932373047,-0.7415567636489868,-9.459507942199707
1745662384.3158443,0.03792504221200943,-0.016759367659687996,-0.30160993337631226,0.37855157256126404,-0.7797353267669678,-9.765527725219727
1745662384.3265843,0.03621741384267807,-0.017972704023122787,-0.29936179518699646,0.5992193222045898,-0.7037914395332336,-9.849355697631836
1745662384.3266335,0.03127847611904144,-0.013537409715354443,-0.2999947667121887,0.36658334732055664,-0.587878406047821,-9.81601333618164
1745662384.3591905,0.040504321455955505,-0.014629225246608257,-0.3009890913963318,0.5312350988388062,-0.856579601764679,-9.657682418823242
1745662384.3607976,0.03783557564020157,-0.023010211065411568,-0.3016013503074646,0.40460091829299927,-0.4767712950706482,-9.6344575881958
1745662384.362614,0.04168054461479187,-0.015050274319946766,-0.3013916611671448,0.45802393555641174,-0.9073675870895386,-9.921815872192383
1745662384.3663554,0.043605368584394455,-0.013532559387385845,-0.3002045750617981,0.48873624205589294,-0.5433016419410706,-9.706048965454102
1745662384.3667507,0.04131552204489708,-0.015121258795261383,-0.30014172196388245,0.3894094228744507,-0.8190350532531738,-9.645051956176758
1745662384.4021997,0.040376901626586914,-0.017195725813508034,-0.3001890182495117,0.5971400141716003,-0.7602723240852356,-9.696160316467285
1745662384.4035218,0.0419452078640461,-0.01645679399371147,-0.29951390624046326,0.4041128158569336,-0.7323368787765503,-9.922947883605957
1745662384.4056587,0.0373413972556591,-0.018388185650110245,-0.29991045594215393,0.5521267652511597,-0.8656715154647827,-9.855257034301758
1745662384.408988,0.025490302592515945,-0.019511163234710693,-0.3001895844936371,0.40132027864456177,-0.7108992338180542,-9.688165664672852
1745662384.4455342,0.0368945337831974,-0.017324678599834442,-0.2996012270450592,0.4725876748561859,-0.9041569828987122,-9.664480209350586
1745662384.447465,0.028599658980965614,-0.02036377415060997,-0.2979889512062073,0.5194724202156067,-0.6170364618301392,-9.675873756408691
1745662384.4489028,0.02827078104019165,-0.013985584490001202,-0.3010929822921753,0.4569605886936188,-0.8558773994445801,-9.855716705322266
1745662384.4517813,0.03331701084971428,-0.01813989318907261,-0.29933232069015503,0.5167161822319031,-0.7226126194000244,-9.726015090942383
1745662384.4914136,0.03101395070552826,-0.020534619688987732,-0.29964977502822876,0.36759987473487854,-0.6673778295516968,-9.801615715026855
1745662384.4914708,0.03461449220776558,-0.01800370030105114,-0.30099087953567505,0.5375022888183594,-0.8319603204727173,-9.785360336303711
1745662384.492447,0.03160620480775833,-0.022634407505393028,-0.2987489700317383,0.3727031648159027,-0.6196267008781433,-9.717040061950684
1745662384.4967773,0.03194746375083923,-0.016953637823462486,-0.2997111678123474,0.5774122476577759,-0.8757594227790833,-9.703466415405273
1745662384.500662,0.024672124534845352,-0.025477200746536255,-0.29810044169425964,0.5383080244064331,-0.7457197308540344,-9.725356101989746
1745662384.5327518,0.025897737592458725,-0.02490149810910225,-0.2977104187011719,0.3992430567741394,-0.5452567338943481,-9.760510444641113
1745662384.5361245,0.038619495928287506,-0.01279604434967041,-0.2985853850841522,0.47436195611953735,-0.8700660467147827,-9.724119186401367
1745662384.5381665,0.030224615707993507,-0.017859259620308876,-0.30045285820961,0.3902137875556946,-0.5163959264755249,-9.566469192504883
1745662384.541677,0.039331063628196716,-0.017137032002210617,-0.2981770634651184,0.49765920639038086,-0.8859940767288208,-9.767728805541992
1745662384.573084,0.03083726204931736,-0.01867339015007019,-0.298763245344162,0.5576242804527283,-0.7476407885551453,-9.904731750488281
1745662384.5752194,0.03614210709929466,-0.019136952236294746,-0.2978874742984772,0.3787601590156555,-0.8522926568984985,-9.875177383422852
1745662384.5752547,0.021878566592931747,-0.021970372647047043,-0.2956537902355194,0.5428031086921692,-0.8982652425765991,-9.645330429077148
1745662384.5773706,0.02194693125784397,-0.02058551087975502,-0.29421573877334595,0.34686166048049927,-0.7056732773780823,-9.636792182922363
1745662384.6175518,0.03103639744222164,-0.017050350084900856,-0.29963457584381104,0.54880291223526,-0.8031169772148132,-9.723428726196289
1745662384.6196797,0.017624100670218468,-0.020746491849422455,-0.2982599139213562,0.44649356603622437,-0.505921483039856,-9.773849487304688
1745662384.6225243,0.0333184190094471,-0.014613144099712372,-0.296964168548584,0.45328712463378906,-0.8793882131576538,-9.84683895111084
1745662384.6260505,0.0361841544508934,-0.021894993260502815,-0.2976551353931427,0.3944724202156067,-0.5692542195320129,-9.660158157348633
1745662384.6586025,0.03278757259249687,-0.01918104849755764,-0.29936110973358154,0.34686967730522156,-0.8307258486747742,-9.760087966918945
1745662384.66083,0.0395471416413784,-0.018944330513477325,-0.2944132387638092,0.5454649925231934,-0.7873831391334534,-9.769305229187012
1745662384.6638536,0.014639412984251976,-0.024952230975031853,-0.29183658957481384,0.39079517126083374,-0.6314309239387512,-9.79452133178711
1745662384.6660883,0.026275936514139175,-0.016410183161497116,-0.2923884987831116,0.46187466382980347,-0.8839179277420044,-9.880474090576172
1745662384.6683466,0.010294360108673573,-0.017619716003537178,-0.28929775953292847,0.4442013204097748,-0.8264824151992798,-9.662091255187988
1745662384.7125804,0.024320026859641075,-0.015031385235488415,-0.2889745831489563,0.3625187873840332,-0.8610284924507141,-9.662556648254395
1745662384.7127116,0.0027111368253827095,-0.01930554211139679,-0.2890234589576721,0.5859692692756653,-0.7765883803367615,-9.729543685913086
1745662384.714086,0.012031885795295238,-0.018929993733763695,-0.29073578119277954,0.3546527922153473,-0.7850524187088013,-9.924077033996582
1745662384.716809,0.015519076958298683,-0.013755785301327705,-0.29166582226753235,0.47797808051109314,-0.8291723132133484,-9.754481315612793
1745662384.747375,0.0034560016356408596,-0.02092316374182701,-0.2919654846191406,0.41362929344177246,-0.6413841247558594,-9.545774459838867
1745662384.7506192,0.015105219557881355,-0.01422720868140459,-0.29188817739486694,0.4666036069393158,-0.9454284906387329,-9.722511291503906
1745662384.7507398,0.004414553288370371,-0.01746184006333351,-0.29020726680755615,0.36947911977767944,-0.6574389338493347,-9.803030014038086
1745662384.751452,0.018832551315426826,-0.011982596479356289,-0.28821641206741333,0.4307805895805359,-0.8494135737419128,-9.801179885864258
1745662384.7879076,0.00824487954378128,-0.01746712066233158,-0.2885964512825012,0.5216767191886902,-0.7427865266799927,-9.70499324798584
1745662384.7926023,0.017420370131731033,-0.021563652902841568,-0.28652602434158325,0.3984846770763397,-0.7715743780136108,-9.810542106628418
1745662384.795684,0.0009914189577102661,-0.017430517822504044,-0.28856161236763,0.5391117334365845,-0.9161001443862915,-9.821447372436523
1745662384.8055549,0.00991575513035059,-0.018119771033525467,-0.2875448167324066,0.3521973490715027,-0.7699163556098938,-9.711830139160156
1745662384.8087845,0.008365950547158718,-0.01446562446653843,-0.28873345255851746,0.5336410403251648,-0.8642940521240234,-9.568126678466797
1745662384.8326728,-0.006673233117908239,-0.021437115967273712,-0.2871387004852295,0.47215232253074646,-0.6608906984329224,-9.758087158203125
1745662384.8356628,0.008698984980583191,-0.015063153579831123,-0.2875506281852722,0.43334513902664185,-0.872398853302002,-10.032390594482422
1745662384.8365,0.0033007904421538115,-0.021439675241708755,-0.29053395986557007,0.4310196340084076,-0.6072123646736145,-9.717233657836914
1745662384.8386192,0.006345965899527073,-0.016871947795152664,-0.289178729057312,0.3432525396347046,-0.8393245935440063,-9.5835542678833
1745662384.8774016,0.008412318304181099,-0.0195006150752306,-0.28955379128456116,0.5237447023391724,-0.7152901887893677,-9.675122261047363
1745662384.878008,0.006654024124145508,-0.02193279378116131,-0.28762978315353394,0.41676798462867737,-0.7537769079208374,-9.892072677612305
1745662384.879494,0.019559314474463463,-0.014172363094985485,-0.2893320322036743,0.3557438254356384,-0.7732838988304138,-9.813786506652832
1745662384.881949,0.009426290169358253,-0.01697326824069023,-0.28757068514823914,0.49449586868286133,-0.7282641530036926,-9.530213356018066
1745662384.9224508,0.005355200730264187,-0.016782503575086594,-0.29104602336883545,0.3959428071975708,-0.7374130487442017,-9.702415466308594
1745662384.9251869,0.013865876011550426,-0.013187532313168049,-0.2891439199447632,0.5403627157211304,-0.8435335159301758,-9.862127304077148
1745662384.9284236,0.005858558230102062,-0.01975935697555542,-0.28921884298324585,0.41566723585128784,-0.702112078666687,-9.856687545776367
1745662384.9327116,0.016144799068570137,-0.011768468655645847,-0.2887815535068512,0.48781171441078186,-0.8920337557792664,-9.760611534118652
1745662384.9609928,0.0009938189759850502,-0.02214566245675087,-0.28671255707740784,0.42616239190101624,-0.7455612421035767,-9.728242874145508
1745662384.9649024,0.012481709010899067,-0.018649619072675705,-0.2860289514064789,0.4030773639678955,-0.8498893976211548,-9.796632766723633
1745662384.9674459,-0.004856927320361137,-0.01711764559149742,-0.2868789732456207,0.49497896432876587,-0.8023744821548462,-9.713380813598633
1745662384.9695153,0.011585795320570469,-0.014964224770665169,-0.28818386793136597,0.31201669573783875,-0.7184892892837524,-9.713293075561523
1745662384.97211,0.0006364680593833327,-0.01816844940185547,-0.28668418526649475,0.546919584274292,-0.7185055017471313,-9.676225662231445
1745662385.0047212,-6.0742626374121755e-05,-0.020686881616711617,-0.2885466516017914,0.36612749099731445,-0.7042912244796753,-9.901968955993652
1745662385.0090103,0.01290178019553423,-0.016746247187256813,-0.28823384642601013,0.5138307213783264,-0.9030957221984863,-9.915514945983887
1745662385.0126586,-0.005890528671443462,-0.027277056127786636,-0.2822321057319641,0.4600134789943695,-0.6089620590209961,-9.711956024169922
1745662385.016652,0.005199206527322531,-0.02297353371977806,-0.280528724193573,0.3637601435184479,-0.8056386709213257,-9.775411605834961
1745662385.0490105,0.0043676504865288734,-0.019233744591474533,-0.28036847710609436,0.49072378873825073,-0.6747745275497437,-9.677539825439453
1745662385.0510066,0.005689558573067188,-0.02412489615380764,-0.2806510925292969,0.4070613980293274,-0.7299821376800537,-9.707539558410645
1745662385.0527248,0.009035947732627392,-0.019146349281072617,-0.2792351543903351,0.5125755667686462,-0.8301789164543152,-9.787054061889648
1745662385.0537572,0.004952060058712959,-0.025788133963942528,-0.28099486231803894,0.40711551904678345,-0.6766721606254578,-9.828434944152832
1745662385.0906925,0.01046787854284048,-0.01998111791908741,-0.2770725190639496,0.38389652967453003,-0.8095443844795227,-9.798640251159668
1745662385.0924418,-0.0037458068691194057,-0.025824707001447678,-0.2796855866909027,0.46066179871559143,-0.6891547441482544,-9.640252113342285
1745662385.0942283,0.01165617536753416,-0.021580073982477188,-0.27977949380874634,0.3624691069126129,-0.7491968274116516,-9.683443069458008
1745662385.098625,0.0006077972939237952,-0.02342618815600872,-0.28196316957473755,0.5281913876533508,-0.7056382298469543,-9.756287574768066
1745662385.1014636,0.001532419235445559,-0.019143451005220413,-0.2797951400279999,0.3990207016468048,-0.7204259037971497,-9.843674659729004
1745662385.134769,0.011979136615991592,-0.017307531088590622,-0.2810066342353821,0.4640006124973297,-0.773273766040802,-9.715499877929688
1745662385.1385374,-0.00036376697244122624,-0.026017148047685623,-0.2805214524269104,0.3967374563217163,-0.6593900322914124,-9.709526062011719
1745662385.1412592,0.015613558702170849,-0.019158748909831047,-0.2782354950904846,0.4574607312679291,-0.7796541452407837,-9.843629837036133
1745662385.1433818,0.0011039974633604288,-0.024841252714395523,-0.2805555462837219,0.4194841980934143,-0.6719822883605957,-9.797776222229004
1745662385.1774447,0.017668763175606728,-0.019814565777778625,-0.27907198667526245,0.4199902415275574,-0.7664712071418762,-9.672769546508789
1745662385.1812563,-0.0020723831839859486,-0.02609654702246189,-0.2783588469028473,0.49926838278770447,-0.8130377531051636,-9.671226501464844
1745662385.1836088,0.01401300448924303,-0.020450493320822716,-0.2789097726345062,0.30208879709243774,-0.7131096124649048,-9.836603164672852
1745662385.1856596,-0.0008253557607531548,-0.018177267163991928,-0.2803848087787628,0.4976317286491394,-0.7475906014442444,-9.706535339355469
1745662385.2194934,-0.0010208241874352098,-0.023013822734355927,-0.27881062030792236,0.3437228202819824,-0.7050415277481079,-9.705297470092773
1745662385.2222667,0.011387025937438011,-0.02047904022037983,-0.28073668479919434,0.5005936026573181,-0.7964390516281128,-9.834698677062988
1745662385.223305,-0.006070854142308235,-0.02778797782957554,-0.2826329171657562,0.47002071142196655,-0.6187061071395874,-9.773091316223145
1745662385.2262802,0.012636316940188408,-0.016215840354561806,-0.27856212854385376,0.40540868043899536,-0.8556049466133118,-9.74939250946045
1745662385.2275364,0.006965777836740017,-0.022277889773249626,-0.27716389298439026,0.33074432611465454,-0.6726353168487549,-9.748453140258789
1745662385.2635002,0.002907600486651063,-0.020501956343650818,-0.27976223826408386,0.41003379225730896,-0.8099527359008789,-9.648161888122559
1745662385.266274,-0.005083032883703709,-0.024075327441096306,-0.2786335349082947,0.37203842401504517,-0.6747961640357971,-9.730443954467773
1745662385.268049,0.013414338231086731,-0.018235165625810623,-0.28115323185920715,0.4604793190956116,-0.7470980882644653,-9.797951698303223
1745662385.2687027,-0.009708489291369915,-0.019784901291131973,-0.2792798578739166,0.5033408999443054,-0.7229586839675903,-9.711637496948242
1745662385.3094954,0.0037633210886269808,-0.01633720099925995,-0.2786079943180084,0.3961574137210846,-0.8343538045883179,-9.791857719421387
1745662385.313071,-3.261156234657392e-05,-0.02216826006770134,-0.27685707807540894,0.4383382201194763,-0.7186750173568726,-9.785320281982422
1745662385.3160865,0.0016344630857929587,-0.022154025733470917,-0.275685578584671,0.3194907605648041,-0.7394617795944214,-9.818586349487305
1745662385.3190382,0.00987991876900196,-0.014386621303856373,-0.2769322991371155,0.4813545346260071,-0.6995288133621216,-9.697837829589844
1745662385.321649,-7.674787048017606e-05,-0.024844828993082047,-0.2772511839866638,0.3574506342411041,-0.6392418742179871,-9.676121711730957
1745662385.3477201,0.013466994278132915,-0.015105286613106728,-0.2776668667793274,0.4030838906764984,-0.6823136806488037,-9.76675033569336
1745662385.3502212,0.0012634287122637033,-0.02196892350912094,-0.27821972966194153,0.4493868947029114,-0.7431817650794983,-9.764179229736328
1745662385.3519943,0.01472106110304594,-0.018209416419267654,-0.2776947021484375,0.3287472128868103,-0.747689425945282,-9.785430908203125
1745662385.3551142,0.008585524745285511,-0.014539490453898907,-0.2745493948459625,0.34970608353614807,-0.6594789624214172,-9.775040626525879
1745662385.3916454,-0.0032599554397165775,-0.013045674189925194,-0.27548664808273315,0.5512118339538574,-0.7401082515716553,-9.928918838500977
1745662385.3938503,-0.006405288819223642,-0.01742752455174923,-0.27519384026527405,0.364238440990448,-0.721989631652832,-9.816451072692871
1745662385.4043345,0.011162248440086842,-0.010306195355951786,-0.276373952627182,0.33203524351119995,-0.7593502402305603,-9.642718315124512
1745662385.407444,-0.016392666846513748,-0.019187208265066147,-0.2762071490287781,0.512725830078125,-0.6733816266059875,-9.624717712402344
1745662385.4339335,0.010386213660240173,-0.011605710722506046,-0.2755521833896637,0.3888340890407562,-0.7138479351997375,-9.866462707519531
1745662385.4348042,-0.00896095298230648,-0.013552501797676086,-0.27518391609191895,0.46187227964401245,-0.6685550808906555,-9.794301986694336
1745662385.4442883,0.010389594361186028,-0.013839947991073132,-0.2744916081428528,0.37230005860328674,-0.6400920748710632,-9.724345207214355
1745662385.4443378,0.004118198063224554,-0.012058274820446968,-0.273997038602829,0.48220810294151306,-0.7061333656311035,-9.750018119812012
1745662385.4762268,0.006295022554695606,-0.022129710763692856,-0.2733028531074524,0.42393675446510315,-0.6562963128089905,-9.848526954650879
1745662385.480013,0.007599546108394861,-0.012133477255702019,-0.27415305376052856,0.3765762150287628,-0.7623364925384521,-9.851449966430664
1745662385.48399,-0.003616342321038246,-0.01649506948888302,-0.27276578545570374,0.4242822527885437,-0.7557295560836792,-9.595405578613281
1745662385.484976,0.013205638155341148,-0.011687564663589,-0.27709296345710754,0.3919082581996918,-0.7039859890937805,-9.594964981079102
1745662385.4884014,-0.014302335679531097,-0.016993990167975426,-0.2753727436065674,0.5470983386039734,-0.7271588444709778,-9.815892219543457
1745662385.5232112,0.0030191168189048767,-0.012773090973496437,-0.2758292257785797,0.3668448328971863,-0.7015889883041382,-9.989461898803711
1745662385.525657,-0.00048440578393638134,-0.011669524013996124,-0.27688637375831604,0.40324363112449646,-0.6760220527648926,-9.742536544799805
1745662385.5367973,-0.0022633331827819347,-0.01883813738822937,-0.2765790820121765,0.3788782060146332,-0.6751365065574646,-9.57768440246582
1745662385.536893,0.007854108698666096,-0.011542907916009426,-0.2773662209510803,0.4348495900630951,-0.6507694721221924,-9.764351844787598
1745662385.5630715,-0.005131681449711323,-0.018729975447058678,-0.2758635878562927,0.4769435524940491,-0.7241265773773193,-9.875317573547363
1745662385.5638251,0.01260305941104889,-0.008720860816538334,-0.2751385569572449,0.3776063323020935,-0.6632964015007019,-9.763619422912598
1745662385.5665877,-0.004910149145871401,-0.016195589676499367,-0.2770865559577942,0.5257116556167603,-0.8281119465827942,-9.618374824523926
1745662385.5692654,0.0063109248876571655,-0.019625891000032425,-0.2726273238658905,0.34593409299850464,-0.6615561842918396,-9.860053062438965
1745662385.6083775,-0.010656310245394707,-0.01618683896958828,-0.2778150141239166,0.4709489345550537,-0.7267322540283203,-9.792458534240723
1745662385.6084528,0.008745037019252777,-0.014618242159485817,-0.27495282888412476,0.2883192300796509,-0.656470775604248,-9.567452430725098
1745662385.6116953,-0.007347573526203632,-0.015300665982067585,-0.27420949935913086,0.47852063179016113,-0.7386144399642944,-9.769247055053711
1745662385.614603,0.007194450590759516,-0.017943404614925385,-0.2758883833885193,0.40710869431495667,-0.5522751808166504,-9.903075218200684
1745662385.61696,-0.0002872751501854509,-0.01223808340728283,-0.2743222415447235,0.4286497235298157,-0.7596663236618042,-9.765214920043945
1745662385.6505334,0.0031937428284436464,-0.017863985151052475,-0.27626925706863403,0.4033447802066803,-0.6395059823989868,-9.53419017791748
1745662385.6517549,0.008658637292683125,-0.014783474616706371,-0.27651482820510864,0.37731245160102844,-0.6139252781867981,-9.63145637512207
1745662385.6533751,-0.008413364179432392,-0.01646137610077858,-0.27755188941955566,0.5027486085891724,-0.7186070084571838,-9.980757713317871
1745662385.6534321,0.014602363109588623,-0.0108135174959898,-0.277137815952301,0.3762872815132141,-0.6363680958747864,-9.9662504196167
1745662385.7019181,-0.0013111841399222612,-0.01716081239283085,-0.2760615944862366,0.48100829124450684,-0.719253659248352,-9.558606147766113
1745662385.7020588,0.00955205224454403,-0.021258214488625526,-0.2758869230747223,0.37121644616127014,-0.6925790905952454,-9.58784294128418
1745662385.7021382,0.0071388124488294125,-0.009633134119212627,-0.2765006422996521,0.39652886986732483,-0.6824203729629517,-9.852436065673828
1745662385.7021797,7.564644329249859e-05,-0.016581077128648758,-0.27611616253852844,0.44315823912620544,-0.7238166928291321,-9.82982063293457
1745662385.7348602,0.012402253225445747,-0.011672444641590118,-0.27654558420181274,0.3802888095378876,-0.674370288848877,-9.725248336791992
1745662385.7372065,0.0070872618816792965,-0.019305085763335228,-0.2779756188392639,0.46702995896339417,-0.7723674774169922,-9.627354621887207
1745662385.7389927,0.024187251925468445,-0.018445629626512527,-0.27539506554603577,0.37390589714050293,-0.5508050322532654,-9.666425704956055
1745662385.7397354,0.008771001361310482,-0.01717408001422882,-0.28033289313316345,0.5251452326774597,-0.7823482155799866,-9.843974113464355
1745662385.7416506,0.023036200553178787,-0.020618198439478874,-0.28011101484298706,0.3297129273414612,-0.498262494802475,-9.882159233093262
1745662385.7798362,0.006676281802356243,-0.016387827694416046,-0.2804453670978546,0.43968266248703003,-0.7882874011993408,-9.728578567504883
1745662385.781831,0.0068556577898561954,-0.024213124066591263,-0.2794342041015625,0.40425819158554077,-0.6979374289512634,-9.690881729125977
1745662385.7844608,0.017824796959757805,-0.016680436208844185,-0.2784282863140106,0.31970295310020447,-0.7545520663261414,-9.782339096069336
1745662385.7865748,-0.0035669871140271425,-0.019444195553660393,-0.2805604040622711,0.5315784215927124,-0.6957218050956726,-9.764799118041992
1745662385.82016,0.023231398314237595,-0.011222335509955883,-0.27663591504096985,0.3374924659729004,-0.5907490849494934,-9.67696475982666
1745662385.821263,0.005686412565410137,-0.02127174660563469,-0.2781267762184143,0.5156577825546265,-0.6597727537155151,-9.710922241210938
1745662385.823115,0.025551194325089455,-0.017946816980838776,-0.2790575623512268,0.33600282669067383,-0.543181300163269,-9.89013671875
1745662385.8244247,0.01916971057653427,-0.016000840812921524,-0.28064680099487305,0.40249767899513245,-0.702336847782135,-9.891237258911133
1745662385.8271737,0.021435413509607315,-0.021690048277378082,-0.27908748388290405,0.40886712074279785,-0.6497979164123535,-9.631980895996094
1745662385.8676214,0.015399402007460594,-0.018531741574406624,-0.2791782319545746,0.38736262917518616,-0.8126233220100403,-9.668869018554688
1745662385.8676891,0.009741387329995632,-0.02169245108962059,-0.27989619970321655,0.48984766006469727,-0.7419250011444092,-9.824508666992188
1745662385.871326,0.020815862342715263,-0.014584292657673359,-0.27897292375564575,0.34236830472946167,-0.6108933687210083,-9.73427963256836
1745662385.8744688,-0.005273856222629547,-0.01693568006157875,-0.2808252274990082,0.5122236013412476,-0.7704883217811584,-9.696972846984863
1745662385.9076076,0.017962144687771797,-0.01765749230980873,-0.27822843194007874,0.3571876585483551,-0.6293067932128906,-9.813274383544922
1745662385.9094546,0.006779558025300503,-0.01755361817777157,-0.2813453674316406,0.4091472029685974,-0.6725762486457825,-9.856590270996094
1745662385.914084,0.013935265131294727,-0.018210699781775475,-0.27937155961990356,0.3296063542366028,-0.6573015451431274,-9.766874313354492
1745662385.9183795,0.02114444598555565,-0.010591278783977032,-0.2789230942726135,0.33105233311653137,-0.5951235890388489,-9.600560188293457
1745662385.9210536,0.010712521150708199,-0.020927879959344864,-0.27933642268180847,0.4815922677516937,-0.7164396643638611,-9.66307544708252
1745662385.95391,0.010917479172348976,-0.012419079430401325,-0.27893105149269104,0.39636874198913574,-0.7122904062271118,-9.801862716674805
1745662385.9571598,0.0013371093664318323,-0.01500253938138485,-0.2810048460960388,0.48750996589660645,-0.6578041315078735,-9.670384407043457
1745662385.9614053,0.023050528019666672,-0.01314220018684864,-0.28161749243736267,0.2906973361968994,-0.5565017461776733,-9.69906234741211
1745662385.9636865,0.006219268776476383,-0.01755976304411888,-0.27987775206565857,0.5043329000473022,-0.66262286901474,-9.86846923828125
1745662386.000676,0.032105907797813416,-0.01354170311242342,-0.28119024634361267,0.3294834792613983,-0.5153824687004089,-9.875020980834961
1745662386.0040925,0.014894475229084492,-0.014805726706981659,-0.2816600501537323,0.4144287705421448,-0.8221887350082397,-9.691659927368164
1745662386.0075994,0.0264595840126276,-0.01788807474076748,-0.27991005778312683,0.38147181272506714,-0.5992152690887451,-9.59957504272461
1745662386.0107503,0.011780609376728535,-0.01300266943871975,-0.2775280475616455,0.46022582054138184,-0.8484742045402527,-9.796489715576172
1745662386.0372791,0.019329050555825233,-0.014872374013066292,-0.2792184352874756,0.43397602438926697,-0.6303641200065613,-9.86929702758789
1745662386.0404012,0.018783006817102432,-0.009864216670393944,-0.2795007824897766,0.39573317766189575,-0.5933723449707031,-9.732562065124512
1745662386.0437307,0.006986075080931187,-0.0179279912263155,-0.2803043723106384,0.4502488672733307,-0.7032696008682251,-9.7009916305542
1745662386.0462973,0.029935166239738464,-0.013823837041854858,-0.28060227632522583,0.33079996705055237,-0.5785375833511353,-9.82442855834961
1745662386.0802512,0.009031142108142376,-0.014418062753975391,-0.28176313638687134,0.4716150164604187,-0.6943003535270691,-9.745526313781738
1745662386.0846725,0.026221564039587975,-0.011436207219958305,-0.2811046540737152,0.3520755171775818,-0.6718078851699829,-9.672076225280762
1745662386.087058,0.02080453373491764,-0.017127331346273422,-0.2767563462257385,0.40557289123535156,-0.6664757132530212,-9.739564895629883
1745662386.0890944,0.023136282339692116,-0.020518269389867783,-0.27647465467453003,0.33117610216140747,-0.6278214454650879,-9.632938385009766
1745662386.091244,0.03236167132854462,-0.00995966512709856,-0.27540579438209534,0.35337889194488525,-0.6118338704109192,-9.66560173034668
1745662386.12371,0.018528856337070465,-0.02324623614549637,-0.27668172121047974,0.5217161178588867,-0.778663694858551,-9.76020622253418
1745662386.125404,0.03484277054667473,-0.012697083875536919,-0.27467256784439087,0.3606814444065094,-0.6467407941818237,-9.863656997680664
1745662386.129519,0.0170222707092762,-0.017862634733319283,-0.27694183588027954,0.5218797922134399,-0.8737396001815796,-9.752467155456543
1745662386.132606,0.028878111392259598,-0.018808502703905106,-0.2737606167793274,0.3141746520996094,-0.605484127998352,-9.701902389526367
1745662386.165317,0.007961384020745754,-0.01620209962129593,-0.2753549814224243,0.4966033101081848,-0.8419243097305298,-9.775176048278809
1745662386.167288,0.02341117337346077,-0.021299082785844803,-0.27522021532058716,0.3683616816997528,-0.5928711891174316,-9.774908065795898
1745662386.1683676,0.024405568838119507,-0.01334285456687212,-0.27735263109207153,0.38999348878860474,-0.6830059885978699,-9.695816040039062
1745662386.1712487,0.009846824221313,-0.02151389792561531,-0.27748820185661316,0.4907904267311096,-0.6745809316635132,-9.692477226257324
1745662386.174014,0.03745219483971596,-0.011441896669566631,-0.27629709243774414,0.3052137494087219,-0.6140931248664856,-9.795450210571289
1745662386.210388,0.00962010957300663,-0.02191874384880066,-0.27742937207221985,0.49313753843307495,-0.7648189663887024,-9.848093032836914
1745662386.2112029,0.03868032246828079,-0.01563090831041336,-0.2759147882461548,0.33841797709465027,-0.5811225175857544,-9.799644470214844
1745662386.2139142,0.0166249368339777,-0.01733975298702717,-0.27685418725013733,0.4687251150608063,-0.803085446357727,-9.688573837280273
1745662386.2155428,0.028697574511170387,-0.02199164405465126,-0.27600449323654175,0.44076091051101685,-0.6309150457382202,-9.663957595825195
1745662386.253002,0.016643382608890533,-0.01623794063925743,-0.2775287330150604,0.43425679206848145,-0.9010905027389526,-9.842370986938477
1745662386.2549822,0.019907863810658455,-0.01951979473233223,-0.2746421992778778,0.3868787884712219,-0.7031102180480957,-9.796250343322754
1745662386.2565496,0.019722487777471542,-0.013762712478637695,-0.2772649824619293,0.34690141677856445,-0.6375506520271301,-9.625856399536133
1745662386.2573621,0.005439814180135727,-0.020192008465528488,-0.2754700779914856,0.4138680398464203,-0.7601917386054993,-9.692331314086914
1745662386.2591643,0.03165288642048836,-0.016521641984581947,-0.2789051830768585,0.3330557942390442,-0.5600059628486633,-9.9125337600708
1745662386.3034499,0.011279821395874023,-0.020196624100208282,-0.281439870595932,0.48890289664268494,-0.6709322929382324,-9.752304077148438
1745662386.3084407,0.024702848866581917,-0.01897125504910946,-0.2762872874736786,0.2989932596683502,-0.6016679406166077,-9.659582138061523
1745662386.3150246,0.006744741462171078,-0.018882205709815025,-0.278197705745697,0.48106080293655396,-0.7944451570510864,-9.81159496307373
1745662386.318088,0.027795281261205673,-0.017209747806191444,-0.2787667214870453,0.3446255922317505,-0.563327968120575,-9.753084182739258
1745662386.3391354,0.013958632946014404,-0.013438917696475983,-0.2803418040275574,0.4615660607814789,-0.7285448312759399,-9.626607894897461
1745662386.3426495,0.01487626414746046,-0.019142504781484604,-0.28131356835365295,0.4177091717720032,-0.7528691291809082,-9.72511100769043
1745662386.34764,0.026836559176445007,-0.013596882112324238,-0.27944642305374146,0.3634989261627197,-0.7323187589645386,-9.864412307739258
1745662386.3498933,0.00968865118920803,-0.020323539152741432,-0.277729332447052,0.48576220870018005,-0.8140411376953125,-9.8052978515625
1745662386.3827753,0.034019093960523605,-0.00930554699152708,-0.27747204899787903,0.3012378215789795,-0.6155183911323547,-9.671354293823242
1745662386.3850975,0.011431832797825336,-0.01870223879814148,-0.27816468477249146,0.44045549631118774,-0.7685912847518921,-9.624363899230957
1745662386.386472,0.029146796092391014,-0.01509588398039341,-0.27868199348449707,0.35437676310539246,-0.5435737371444702,-9.722951889038086
1745662386.3893049,0.013338093645870686,-0.015798155218362808,-0.2793247103691101,0.4765148162841797,-0.9001018404960632,-9.862680435180664
1745662386.424084,0.024491215124726295,-0.015799380838871002,-0.27853307127952576,0.3232453763484955,-0.663140058517456,-9.817928314208984
1745662386.4247952,0.008640026673674583,-0.008916690945625305,-0.2803049385547638,0.3977316915988922,-0.8496376276016235,-9.692654609680176
1745662386.4339185,0.007658378686755896,-0.020975198596715927,-0.2787410616874695,0.43115052580833435,-0.7721803784370422,-9.66517448425293
1745662386.4340122,0.004077269695699215,-0.019644953310489655,-0.27644291520118713,0.3864179253578186,-0.7187097668647766,-9.805944442749023
1745662386.434068,0.005509006790816784,-0.010497620329260826,-0.2788115441799164,0.29560208320617676,-0.6598418951034546,-9.695940017700195
1745662386.4684567,-0.008323434740304947,-0.016889845952391624,-0.2794448733329773,0.3861212134361267,-0.6794314384460449,-9.646093368530273
1745662386.469639,0.01219904888421297,-0.01180758886039257,-0.2818346619606018,0.35086554288864136,-0.6151461601257324,-9.778783798217773
1745662386.4732203,-0.006881631910800934,-0.019881781190633774,-0.28261128067970276,0.5414352416992188,-0.7574681043624878,-9.850193977355957
1745662386.4767032,0.00501930620521307,-0.0168830007314682,-0.28136953711509705,0.384360134601593,-0.7851055860519409,-9.84773063659668
1745662386.51105,-0.002168054459616542,-0.009703459218144417,-0.2792455554008484,0.35787028074264526,-0.7883632779121399,-9.634902954101562
1745662386.5121484,-0.005542010068893433,-0.017043650150299072,-0.2779923975467682,0.43552786111831665,-0.7432349920272827,-9.585083961486816
1745662386.5154915,0.0071386001072824,-0.010939332656562328,-0.2759896218776703,0.41379308700561523,-0.6678717732429504,-9.821651458740234
1745662386.516276,-0.00352403218857944,-0.017822792753577232,-0.2755827307701111,0.4709291458129883,-0.6697072386741638,-9.969405174255371
1745662386.5272503,0.009743168950080872,-0.016421757638454437,-0.2800854742527008,0.26606836915016174,-0.539482057094574,-9.809831619262695
1745662386.556452,-0.006326198577880859,-0.015459880232810974,-0.28103384375572205,0.4362674355506897,-0.7710785269737244,-9.605488777160645
1745662386.559333,0.005921257194131613,-0.019022934138774872,-0.2822013199329376,0.3521198034286499,-0.6528447866439819,-9.662726402282715
1745662386.5594783,-0.005746700335294008,-0.015239164233207703,-0.2803446650505066,0.4943903088569641,-0.7988134026527405,-9.872777938842773
1745662386.5607674,-0.008928351104259491,-0.013651165179908276,-0.28005388379096985,0.4523850381374359,-0.7542606592178345,-9.865422248840332
1745662386.5954592,0.003607361111789942,-0.012231769040226936,-0.2781389653682709,0.3478911519050598,-0.6971538662910461,-9.622851371765137
1745662386.597095,-0.014686882495880127,-0.022171784192323685,-0.2772803008556366,0.4887748658657074,-0.6784616708755493,-9.671992301940918
1745662386.5985832,0.008423944935202599,-0.01414579153060913,-0.2786308228969574,0.35869067907333374,-0.5680750012397766,-9.916234970092773
1745662386.6000166,-0.00549312261864543,-0.018813958391547203,-0.27951791882514954,0.42932596802711487,-0.7256729006767273,-9.85045051574707
1745662386.601681,0.011411010287702084,-0.015233528800308704,-0.2779068350791931,0.29732102155685425,-0.5367112159729004,-9.610569953918457
1745662386.6398206,-0.004031389020383358,-0.016372475773096085,-0.27968066930770874,0.4203554093837738,-0.8413817286491394,-9.608739852905273
1745662386.644472,0.007057213690131903,-0.01793934777379036,-0.27821800112724304,0.3428627550601959,-0.61536705493927,-9.85102367401123
1745662386.647117,0.00715993344783783,-0.015964742749929428,-0.27837756276130676,0.32495206594467163,-0.5749709010124207,-9.6561861038208
1745662386.64948,0.006418855395168066,-0.011573822237551212,-0.28053951263427734,0.39450913667678833,-0.6600595712661743,-9.924826622009277
1745662386.6836843,0.005583307705819607,-0.02113805152475834,-0.2804734706878662,0.44559139013290405,-0.6344717741012573,-9.90903091430664
1745662386.6947174,0.004320206586271524,-0.013523897156119347,-0.28031277656555176,0.34201952815055847,-0.7694162130355835,-9.723516464233398
1745662386.6948202,-0.006242169998586178,-0.01744500920176506,-0.2781629264354706,0.47357505559921265,-0.8529229164123535,-9.603007316589355
1745662386.695047,0.0035448516719043255,-0.015045332722365856,-0.27886807918548584,0.3636685311794281,-0.6446336507797241,-9.703054428100586
1745662386.7253478,-0.018513262271881104,-0.012223668396472931,-0.27745336294174194,0.49649477005004883,-0.8005843162536621,-9.843491554260254
1745662386.7280612,0.0009871043730527163,-0.014303634874522686,-0.27606892585754395,0.3469441533088684,-0.627310037612915,-9.801427841186523
1745662386.734526,0.00036167920916341245,-0.013992215506732464,-0.27925071120262146,0.3562755584716797,-0.5434934496879578,-9.698378562927246
1745662386.737106,-0.0008491575717926025,-0.01895648054778576,-0.27945178747177124,0.3344389498233795,-0.5352163910865784,-9.745508193969727
1745662386.7401845,0.017116043716669083,-0.008556964807212353,-0.2827428877353668,0.3483315706253052,-0.4924740791320801,-9.796571731567383
1745662386.769047,0.0018139764433726668,-0.017348673194646835,-0.2797946631908417,0.49297061562538147,-0.7241448163986206,-9.70519733428955
1745662386.7724152,0.01948319561779499,-0.012431847862899303,-0.27706828713417053,0.354383647441864,-0.6655286550521851,-9.716530799865723
1745662386.7770104,0.002976072020828724,-0.013748496770858765,-0.27694225311279297,0.5029886364936829,-0.875277042388916,-9.76171875
1745662386.7780879,0.002797727705910802,-0.01483325194567442,-0.27430886030197144,0.3802461624145508,-0.6963881254196167,-9.822005271911621
1745662386.8116026,0.01565415970981121,-0.016359630972146988,-0.27457159757614136,0.34952306747436523,-0.4673706889152527,-9.453886032104492
1745662386.8156502,0.00674073863774538,-0.018956134095788002,-0.27660852670669556,0.45779627561569214,-0.8029404878616333,-9.667726516723633
1745662386.8157287,0.009543554857373238,-0.020193597301840782,-0.27640923857688904,0.40856894850730896,-0.6486799716949463,-10.054636001586914
1745662386.8197134,0.00753803551197052,-0.00967417098581791,-0.27667656540870667,0.37262338399887085,-0.6891705989837646,-9.903302192687988
1745662386.856048,-0.005801503546535969,-0.01705212891101837,-0.27487713098526,0.4402030408382416,-0.8463546633720398,-9.496720314025879
1745662386.8592312,0.014322156086564064,-0.018469389528036118,-0.27437710762023926,0.3342624306678772,-0.6207717657089233,-9.663183212280273
1745662386.8625264,-0.008717155084013939,-0.019296597689390182,-0.2742459177970886,0.5656030774116516,-0.6994194984436035,-9.94538688659668
1745662386.8643594,0.01568833738565445,-0.012810136191546917,-0.2736648917198181,0.35071343183517456,-0.5848590731620789,-9.873363494873047
1745662386.9001806,0.0042712269350886345,-0.012556159868836403,-0.2749865651130676,0.33394843339920044,-0.6750949621200562,-9.554405212402344
1745662386.9009347,0.009116611443459988,-0.02234620228409767,-0.2748327851295471,0.37900933623313904,-0.5788467526435852,-9.630937576293945
1745662386.9059696,0.014308145269751549,-0.011602865532040596,-0.2736540734767914,0.3410627245903015,-0.6252124905586243,-10.022583961486816
1745662386.9079328,0.006897561252117157,-0.0178736113011837,-0.2751312851905823,0.4810256063938141,-0.6939067244529724,-9.870956420898438
1745662386.9113326,0.012684139423072338,-0.016042781993746758,-0.2748575806617737,0.3434773087501526,-0.6692789793014526,-9.582788467407227
1745662386.9430485,-0.0020738118328154087,-0.019652286544442177,-0.27259358763694763,0.5344663858413696,-0.8448714017868042,-9.647489547729492
1745662386.9444063,0.012571615166962147,-0.018672365695238113,-0.2752504348754883,0.3764459788799286,-0.5908995866775513,-9.877229690551758
1745662386.945681,0.0012824857840314507,-0.01231915783137083,-0.2737831175327301,0.4621770977973938,-0.7275450825691223,-9.798932075500488
1745662386.948045,0.0036626129876822233,-0.0173030998557806,-0.27436938881874084,0.3747638761997223,-0.6379770040512085,-9.639244079589844
1745662386.9864998,0.01415919791907072,-0.016191888600587845,-0.27309784293174744,0.2788490653038025,-0.567018985748291,-9.702844619750977
1745662386.9866002,0.0018965076887980103,-0.021343190222978592,-0.27565711736679077,0.4209912419319153,-0.6793400049209595,-9.874420166015625
1745662386.9879816,0.020688842982053757,-0.009119721129536629,-0.2741098403930664,0.2911538779735565,-0.5545145273208618,-9.789480209350586
1745662386.9903579,0.0008273026905953884,-0.01744133234024048,-0.2758503556251526,0.44387298822402954,-0.8141007423400879,-9.58037281036377
1745662386.9915006,-0.009954310022294521,-0.01700581982731819,-0.27533087134361267,0.5649616122245789,-0.6820317506790161,-9.814824104309082
1745662387.028268,0.01624043472111225,-0.013583322055637836,-0.27518969774246216,0.2759227156639099,-0.49671077728271484,-9.731035232543945
1745662387.0288527,0.000652926042675972,-0.01337213534861803,-0.27476435899734497,0.4264677166938782,-0.6745787858963013,-9.650442123413086
1745662387.031146,0.015331434085965157,-0.019142311066389084,-0.27709561586380005,0.3889279365539551,-0.5719219446182251,-9.774222373962402
1745662387.0336664,0.010960325598716736,-0.01517055369913578,-0.2747019827365875,0.433772474527359,-0.7497701644897461,-9.978739738464355
1745662387.0706456,0.007570515386760235,-0.020107921212911606,-0.27614402770996094,0.4776516854763031,-0.6657862663269043,-9.788429260253906
1745662387.0726182,0.008926105685532093,-0.015509538352489471,-0.2743900716304779,0.28780415654182434,-0.7827895283699036,-9.675874710083008
1745662387.0748305,-0.00031299813417717814,-0.01862848736345768,-0.27263015508651733,0.49109211564064026,-0.7840628623962402,-9.634042739868164
1745662387.077034,0.005290141794830561,-0.01644027605652809,-0.27639660239219666,0.33403339982032776,-0.499720960855484,-9.751115798950195
1745662387.0800312,-0.010628683492541313,-0.01396973431110382,-0.2770134508609772,0.4648999273777008,-0.7050551176071167,-9.905734062194824
1745662387.1150558,0.010104451328516006,-0.016011323779821396,-0.27811938524246216,0.3446517288684845,-0.49423304200172424,-9.738592147827148
1745662387.1182785,0.004896221682429314,-0.01914532296359539,-0.27828896045684814,0.4118634760379791,-0.633623480796814,-9.654183387756348
1745662387.1216867,0.005253705661743879,-0.019619585946202278,-0.2761509418487549,0.42609819769859314,-0.6978757381439209,-9.79399299621582
1745662387.1228068,0.02097400650382042,-0.011028340086340904,-0.27604711055755615,0.26737022399902344,-0.5796242952346802,-9.849841117858887
1745662387.1563568,0.020782364532351494,-0.01833832636475563,-0.2760106027126312,0.29841503500938416,-0.4884772300720215,-9.715279579162598
1745662387.1592927,0.006801458541303873,-0.02183399721980095,-0.27766531705856323,0.4726076126098633,-0.709925651550293,-9.99329662322998
1745662387.1611023,0.034838054329156876,-0.012670546770095825,-0.27758342027664185,0.239845871925354,-0.4450632929801941,-9.80210018157959
1745662387.1630983,0.016298625618219376,-0.017557796090841293,-0.27785369753837585,0.41404280066490173,-0.7649770975112915,-9.512750625610352
1745662387.1988351,0.030314236879348755,-0.019396360963582993,-0.2756403088569641,0.3424566388130188,-0.4974701404571533,-9.627238273620605
1745662387.1999655,0.0247642882168293,-0.01302338857203722,-0.2792508006095886,0.38292402029037476,-0.7549068331718445,-9.970290184020996
1745662387.2022736,0.029173335060477257,-0.0162566639482975,-0.27609696984291077,0.4348312020301819,-0.614453911781311,-9.828581809997559
1745662387.2033703,0.025388751178979874,-0.012752583250403404,-0.2773742377758026,0.3589387834072113,-0.6759926080703735,-9.622261047363281
1745662387.243514,0.015923326835036278,-0.021745769307017326,-0.27632829546928406,0.49204739928245544,-0.7865307927131653,-9.735771179199219
1745662387.2443182,0.03312293440103531,-0.014666492119431496,-0.2793894410133362,0.25580093264579773,-0.530126690864563,-9.862955093383789
1745662387.2465308,0.011383078061044216,-0.014442987740039825,-0.27896809577941895,0.5114133358001709,-0.7365713119506836,-9.72245979309082
1745662387.2490227,0.031426556408405304,-0.01420603133738041,-0.27931204438209534,0.3530218005180359,-0.5743122100830078,-9.576239585876465
1745662387.2507205,0.021058950573205948,-0.015184360556304455,-0.2764102816581726,0.4069508910179138,-0.6965125799179077,-9.861035346984863
1745662387.2878277,0.03226417303085327,-0.017553485929965973,-0.27613967657089233,0.40419816970825195,-0.6081090569496155,-9.938405990600586
1745662387.2910047,0.037628207355737686,-0.009747064672410488,-0.27763375639915466,0.2533823847770691,-0.6432358026504517,-9.765207290649414
1745662387.2944598,0.02932301163673401,-0.01914544776082039,-0.2763752341270447,0.48642611503601074,-0.7034452557563782,-9.57467269897461
1745662387.2960398,0.032348692417144775,-0.018121499568223953,-0.2760305106639862,0.31504470109939575,-0.6531773805618286,-9.803824424743652
1745662387.3304238,0.02726127579808235,-0.016349371522665024,-0.27509069442749023,0.5088402032852173,-0.8333536982536316,-9.948003768920898
1745662387.3328288,0.03236620873212814,-0.014701743610203266,-0.2766696810722351,0.36338010430336,-0.5274100303649902,-9.657632827758789
1745662387.3347776,0.013496965169906616,-0.015779083594679832,-0.2784826159477234,0.46408167481422424,-0.875384509563446,-9.673163414001465
1745662387.337417,0.021719468757510185,-0.020357631146907806,-0.27497434616088867,0.4287246763706207,-0.6576251983642578,-9.89153003692627
1745662387.37279,0.025441378355026245,-0.014128675684332848,-0.27772507071495056,0.3884662389755249,-0.7681756615638733,-9.78070068359375
1745662387.3741162,0.034039463847875595,-0.020800476893782616,-0.279117226600647,0.4865686893463135,-0.6687043905258179,-9.854755401611328
1745662387.3741486,0.03935876488685608,-0.013502647168934345,-0.27959686517715454,0.3403933048248291,-0.6243709921836853,-9.678481101989746
1745662387.3760035,0.014120462350547314,-0.01643775962293148,-0.2796706259250641,0.5544992685317993,-0.8833820223808289,-9.683670043945312
1745662387.4149976,0.03581693023443222,-0.015185048803687096,-0.279782772064209,0.24951405823230743,-0.5839231014251709,-9.781846046447754
1745662387.4164817,0.011402729898691177,-0.015569193288683891,-0.2798616290092468,0.43590274453163147,-0.85565584897995,-9.90100383758545
1745662387.4185612,0.0299230869859457,-0.015140336938202381,-0.27784445881843567,0.3495732545852661,-0.5690919160842896,-9.750539779663086
1745662387.4201586,0.02333042025566101,-0.014930307865142822,-0.27865517139434814,0.3556285500526428,-0.7016509175300598,-9.708513259887695
1745662387.4235456,0.02377443201839924,-0.021739080548286438,-0.27836987376213074,0.47909897565841675,-0.6745437383651733,-9.703271865844727
1745662387.457842,0.02991005778312683,-0.013286893256008625,-0.27745404839515686,0.3237305283546448,-0.719333291053772,-9.808547973632812
1745662387.4615042,0.024309903383255005,-0.014613586477935314,-0.27659597992897034,0.47379907965660095,-0.8407289385795593,-9.793316841125488
1745662387.466162,0.028750721365213394,-0.014942753128707409,-0.275759756565094,0.28995564579963684,-0.5495573282241821,-9.68194580078125
1745662387.467696,0.01362023688852787,-0.014456020668148994,-0.2753451466560364,0.42381373047828674,-0.8593467473983765,-9.836675643920898
1745662387.4987228,0.03134714439511299,-0.016183657571673393,-0.27939000725746155,0.35239437222480774,-0.5640784502029419,-9.802122116088867
1745662387.5015082,0.018908020108938217,-0.016785483807325363,-0.27837085723876953,0.4445043206214905,-0.6707509756088257,-9.681753158569336
1745662387.502996,0.019475659355521202,-0.016042230650782585,-0.27242639660835266,0.45560771226882935,-0.8291506767272949,-9.645855903625488
1745662387.5061202,0.031719136983156204,-0.018289605155587196,-0.2717350125312805,0.42537254095077515,-0.50479656457901,-9.724616050720215
1745662387.5086677,0.022778671234846115,-0.012546896934509277,-0.27388232946395874,0.40876898169517517,-0.7288511395454407,-9.871612548828125
1745662387.544025,0.024000423029065132,-0.015412958338856697,-0.27216631174087524,0.4374207556247711,-0.7233765721321106,-9.792089462280273
1745662387.552911,0.03381746634840965,-0.016675222665071487,-0.2736169695854187,0.28065046668052673,-0.6152636408805847,-9.667440414428711
1745662387.553053,0.014889980666339397,-0.01874026469886303,-0.27169671654701233,0.49942547082901,-0.8591016530990601,-9.71751594543457
1745662387.5531316,0.03305136039853096,-0.013906009495258331,-0.2731575071811676,0.3518490195274353,-0.5413440465927124,-9.871647834777832
1745662387.5868454,0.012320728972554207,-0.01891906000673771,-0.27205079793930054,0.5089184641838074,-0.9241222143173218,-9.773018836975098
1745662387.5896368,0.027254313230514526,-0.017475605010986328,-0.2714840769767761,0.36957111954689026,-0.6003459095954895,-9.626270294189453
1745662387.5922868,0.019639406353235245,-0.015268899500370026,-0.26968544721603394,0.4273737370967865,-0.9181275367736816,-9.787771224975586
1745662387.604044,0.01815815642476082,-0.022155683487653732,-0.2682099938392639,0.3837181031703949,-0.6724401712417603,-9.832826614379883
1745662387.6290224,0.01666141487658024,-0.014710436575114727,-0.26828160881996155,0.3176560699939728,-0.7562285661697388,-9.767663955688477
1745662387.6308007,0.011797419749200344,-0.02068966254591942,-0.26869022846221924,0.4191919267177582,-0.7452322840690613,-9.685686111450195
1745662387.6343935,0.02813017927110195,-0.018336832523345947,-0.2696431279182434,0.2786356806755066,-0.5469529628753662,-9.684489250183105
1745662387.6344824,0.005683697760105133,-0.018830910325050354,-0.2701793909072876,0.5802871584892273,-0.8279157876968384,-9.803789138793945
1745662387.6363275,0.02926860749721527,-0.016847645863890648,-0.27053648233413696,0.3067750036716461,-0.5316766500473022,-9.781705856323242
1745662387.674104,0.014517098665237427,-0.016786770895123482,-0.2706575393676758,0.45744457840919495,-0.8073428869247437,-9.731252670288086
1745662387.6769006,0.021796856075525284,-0.021037563681602478,-0.2685796320438385,0.4080248475074768,-0.6502374410629272,-9.730053901672363
1745662387.6810966,0.023638304322957993,-0.015169885940849781,-0.268747478723526,0.36494749784469604,-0.7273902893066406,-9.901010513305664
1745662387.6838877,0.02123178169131279,-0.022398507222533226,-0.2689846456050873,0.4977664351463318,-0.656632661819458,-9.761280059814453
1745662387.7144973,0.02579563297331333,-0.016726285219192505,-0.2681683897972107,0.2528480589389801,-0.6438608765602112,-9.659029960632324
1745662387.7179534,0.028428485617041588,-0.01547260582447052,-0.26923733949661255,0.29339152574539185,-0.537152111530304,-9.664743423461914
1745662387.7202742,0.013956345617771149,-0.016819480806589127,-0.267551988363266,0.46547389030456543,-0.8639499545097351,-9.754199981689453
1745662387.7253265,0.025265876203775406,-0.021603206172585487,-0.26934894919395447,0.3035748600959778,-0.5131703615188599,-9.876256942749023
1745662387.758094,0.0161866694688797,-0.013043547049164772,-0.26921752095222473,0.38025274872779846,-0.8129113912582397,-9.804743766784668
1745662387.7606018,0.02570924162864685,-0.018298937007784843,-0.26789024472236633,0.40757742524147034,-0.6040989756584167,-9.482635498046875
1745662387.763564,0.028627067804336548,-0.015295539982616901,-0.2696126699447632,0.3640044331550598,-0.6141589879989624,-9.622483253479004
1745662387.7668076,0.01784723624587059,-0.016715819016098976,-0.2690199017524719,0.5588430166244507,-0.7785435914993286,-9.943588256835938
1745662387.7707372,0.03948044031858444,-0.009465601295232773,-0.26946908235549927,0.25758424401283264,-0.5576056241989136,-9.900075912475586
1745662387.8112135,0.019829392433166504,-0.013975774869322777,-0.27054792642593384,0.46851199865341187,-0.8667194247245789,-9.639589309692383
1745662387.8113332,0.03715287521481514,-0.015886588022112846,-0.27016669511795044,0.35368865728378296,-0.5587086081504822,-9.573354721069336
1745662387.8135152,0.022966060787439346,-0.01383211649954319,-0.26880231499671936,0.3934212028980255,-0.8564397692680359,-9.9032564163208
1745662387.8167977,0.02501416765153408,-0.015906576067209244,-0.26965972781181335,0.4594908356666565,-0.6655998826026917,-9.786359786987305
1745662387.846209,0.02168218418955803,-0.010271161794662476,-0.2710406184196472,0.3548590838909149,-0.8509906530380249,-9.658590316772461
1745662387.8494124,0.018438875675201416,-0.017916008830070496,-0.2685915231704712,0.4516633450984955,-0.8012773394584656,-9.722146987915039
1745662387.8528533,0.02439817786216736,-0.011266959831118584,-0.26871392130851746,0.33144813776016235,-0.7354720234870911,-9.866497993469238
1745662387.886528,0.015122306533157825,-0.019230779260396957,-0.2677651047706604,0.5387986898422241,-0.8135765790939331,-9.705522537231445
1745662387.8888412,0.016249006614089012,-0.014956912025809288,-0.26811352372169495,0.3381190001964569,-0.7695142030715942,-9.68738079071045
1745662387.8951166,0.006975242402404547,-0.01654030755162239,-0.26737260818481445,0.47352176904678345,-0.8711884617805481,-9.777508735656738
1745662387.8953009,0.013012339361011982,-0.014467870816588402,-0.2699759900569916,0.286797434091568,-0.5509047508239746,-9.70915699005127
1745662387.895381,0.0007532316958531737,-0.011509127914905548,-0.2698608636856079,0.4415462613105774,-0.8535294532775879,-9.712738990783691
1745662387.9304962,0.0101693170145154,-0.017249029129743576,-0.26854628324508667,0.3962826728820801,-0.652819037437439,-9.78746223449707
1745662387.9324374,0.01434367336332798,-0.015223363414406776,-0.2700371742248535,0.33187335729599,-0.6717520952224731,-9.850505828857422
1745662387.9345934,0.009317085146903992,-0.017992231994867325,-0.2700464427471161,0.4541540741920471,-0.782154381275177,-9.69416618347168
1745662387.9374042,0.0230550616979599,-0.011065459810197353,-0.2700788974761963,0.3484209477901459,-0.5928574800491333,-9.626995086669922
1745662387.9760456,0.0067136152647435665,-0.016815800219774246,-0.26699113845825195,0.5878096222877502,-0.9514240026473999,-9.754170417785645
1745662387.9782553,0.02114889584481716,-0.014526838436722755,-0.26757287979125977,0.3360099196434021,-0.6319770812988281,-9.875335693359375
1745662387.9816763,0.007836593315005302,-0.011955132707953453,-0.26913580298423767,0.4366319179534912,-0.9284601211547852,-9.815237045288086
1745662387.9834816,0.012081109918653965,-0.019893700256943703,-0.26688915491104126,0.28488239645957947,-0.5804151296615601,-9.571355819702148
1745662387.9876885,0.0016155315097421408,-0.018100697547197342,-0.26965436339378357,0.40667954087257385,-0.8087121248245239,-9.747426986694336
1745662388.016048,0.006317940540611744,-0.01968247815966606,-0.2705550193786621,0.4461213946342468,-0.7024804949760437,-9.8953275680542
1745662388.0194066,0.014541657641530037,-0.011228213086724281,-0.27138835191726685,0.32112154364585876,-0.6977003216743469,-9.729071617126465
1745662388.02144,-0.008043265901505947,-0.016287345439195633,-0.2708255350589752,0.5825744271278381,-0.8723146319389343,-9.584338188171387
1745662388.0241683,0.018960019573569298,-0.015114972367882729,-0.2669105529785156,0.27077651023864746,-0.6436663866043091,-9.765832901000977
1745662388.0601444,0.00010346803173888475,-0.016228612512350082,-0.26827335357666016,0.4809940457344055,-0.8896908760070801,-9.918354988098145
1745662388.063884,0.016412636265158653,-0.014238664880394936,-0.26599419116973877,0.34025484323501587,-0.6032339334487915,-9.706681251525879
1745662388.0659873,0.01284090243279934,-0.016627127304673195,-0.26682648062705994,0.42109912633895874,-0.641998291015625,-9.55665397644043
1745662388.0670428,0.019326385110616684,-0.014198276214301586,-0.27018293738365173,0.3083041310310364,-0.5727906227111816,-9.719062805175781
1745662388.0690103,0.014544695615768433,-0.01716081239283085,-0.26743775606155396,0.5115297436714172,-0.7417861819267273,-9.913640022277832
1745662388.103791,0.0286549124866724,-0.011657553724944592,-0.26684650778770447,0.2487543523311615,-0.6135098338127136,-9.858622550964355
1745662388.1077425,0.016955960541963577,-0.015430358238518238,-0.2693353295326233,0.4517126679420471,-0.9018567204475403,-9.624037742614746
1745662388.1107779,0.01776958256959915,-0.018142540007829666,-0.26895612478256226,0.33789998292922974,-0.6695290803909302,-9.648701667785645
1745662388.1133366,0.008155951276421547,-0.015030713751912117,-0.26917150616645813,0.5105623006820679,-0.9597345590591431,-9.903761863708496
1745662388.1474504,0.014573775231838226,-0.016527138650417328,-0.2672480046749115,0.438260942697525,-0.6795638799667358,-9.760116577148438
1745662388.1506422,0.004206326324492693,-0.009876728057861328,-0.26961570978164673,0.34529972076416016,-0.7839251160621643,-9.621283531188965
1745662388.154293,-0.005762272514402866,-0.017574477940797806,-0.2678976058959961,0.49130529165267944,-0.8722497224807739,-9.698719024658203
1745662388.1565619,0.011879092082381248,-0.014327241107821465,-0.268174946308136,0.2477037012577057,-0.5780240297317505,-9.881229400634766
1745662388.1917017,-0.003410954726859927,-0.01558297872543335,-0.26851287484169006,0.48073434829711914,-0.8145871162414551,-9.866167068481445
1745662388.1917524,0.016811944544315338,-0.015060404315590858,-0.267638236284256,0.2955302596092224,-0.5147753357887268,-9.652752876281738
1745662388.1985333,0.00505301496013999,-0.015973636880517006,-0.26880937814712524,0.4482150971889496,-0.8823293447494507,-9.625032424926758
1745662388.1993773,0.014704788103699684,-0.019338028505444527,-0.2684796452522278,0.4470212459564209,-0.5848671197891235,-9.778779983520508
1745662388.2329457,0.002302653854712844,-0.013001002371311188,-0.2665182650089264,0.4306226372718811,-0.8921111226081848,-9.905943870544434
1745662388.2351887,0.018153881654143333,-0.015232768841087818,-0.2678801417350769,0.38694047927856445,-0.6554222106933594,-9.650304794311523
1745662388.2369206,0.013797789812088013,-0.01446908712387085,-0.26640206575393677,0.3214070200920105,-0.6719785332679749,-9.652079582214355
1745662388.2405784,0.011533292010426521,-0.019065260887145996,-0.2680125832557678,0.4965340495109558,-0.6594629883766174,-9.786190032958984
1745662388.2429876,0.02445414662361145,-0.013902594335377216,-0.26681676506996155,0.282065749168396,-0.6750461459159851,-9.846186637878418
1745662388.274658,0.015969455242156982,-0.013566076755523682,-0.26855191588401794,0.4538761079311371,-0.8785996437072754,-9.690671920776367
1745662388.2761817,0.021435385569930077,-0.015382732264697552,-0.2668357789516449,0.29491108655929565,-0.6128700971603394,-9.601629257202148
1745662388.2780304,0.007088959217071533,-0.011733057908713818,-0.26643985509872437,0.4202755093574524,-0.9361944198608398,-9.874588012695312
1745662388.2808943,0.02214277908205986,-0.015176949091255665,-0.26492542028427124,0.4276399612426758,-0.6635640263557434,-9.88308048248291
1745662388.3187811,0.01523831021040678,-0.014569507911801338,-0.26563525199890137,0.40093374252319336,-0.674113392829895,-9.677409172058105
1745662388.3226693,0.01603437028825283,-0.014250382781028748,-0.2665621042251587,0.4625857472419739,-0.7309244275093079,-9.64327335357666
1745662388.3242059,0.02210438996553421,-0.010499841533601284,-0.2697439193725586,0.2520741820335388,-0.5593735575675964,-9.73181438446045
1745662388.3275943,0.009413013234734535,-0.014259099960327148,-0.2698529064655304,0.5668175220489502,-0.9006707072257996,-9.788333892822266
1745662388.330102,0.01934696175158024,-0.0118568642064929,-0.26763826608657837,0.3179734945297241,-0.6563612818717957,-9.848447799682617
1745662388.3624494,0.007976706139743328,-0.013825101777911186,-0.2667500376701355,0.4315890371799469,-0.9432679414749146,-9.843391418457031
1745662388.3652637,0.011042141355574131,-0.017594773322343826,-0.268066942691803,0.2886721193790436,-0.5805242657661438,-9.716119766235352
1745662388.3666697,0.00946620013564825,-0.01133711077272892,-0.26464805006980896,0.42942219972610474,-0.7935414910316467,-9.691091537475586
1745662388.36809,0.014496761374175549,-0.018379250541329384,-0.26713526248931885,0.49138060212135315,-0.6171420812606812,-9.67939281463623
1745662388.4097867,0.017467431724071503,-0.01188266184180975,-0.26948028802871704,0.3131331503391266,-0.5705443024635315,-9.812151908874512
1745662388.4114735,0.006854805164039135,-0.010347746312618256,-0.26880761981010437,0.503991961479187,-0.8607654571533203,-9.752870559692383
1745662388.4125257,0.02732219733297825,-0.011648804880678654,-0.2699952721595764,0.23500628769397736,-0.5832911729812622,-9.681184768676758
1745662388.4174976,0.011322719044983387,-0.018893396481871605,-0.2663070559501648,0.3161463141441345,-0.47884494066238403,-9.829662322998047
1745662388.4489198,0.0025080821942538023,-0.012202912010252476,-0.27256637811660767,0.45575159788131714,-0.6809874176979065,-9.944390296936035
1745662388.4538388,0.01528775505721569,-0.013262745924293995,-0.27037444710731506,0.42738813161849976,-0.622020423412323,-9.626771926879883
1745662388.454982,0.015177478082478046,-0.012387890368700027,-0.272492378950119,0.3187755048274994,-0.6819273233413696,-9.535481452941895
1745662388.4598463,0.006551399827003479,-0.018500136211514473,-0.2699604332447052,0.5413328409194946,-0.8435042500495911,-9.87041187286377
1745662388.4942555,0.014596426859498024,-0.013440770097076893,-0.27026110887527466,0.29181399941444397,-0.6673144698143005,-10.046103477478027
1745662388.4953263,0.004710512701421976,-0.01301783137023449,-0.2693672180175781,0.4585648477077484,-0.9120613932609558,-9.65631103515625
1745662388.5003598,0.0009345738217234612,-0.018683141097426414,-0.2689698338508606,0.3221605122089386,-0.5692185163497925,-9.477869033813477
1745662388.5029,0.002140337135642767,-0.015546858310699463,-0.27055397629737854,0.4348905682563782,-0.818211555480957,-9.849574089050293
1745662388.505604,0.008386562578380108,-0.017263848334550858,-0.27200549840927124,0.4551737904548645,-0.5103859901428223,-9.874424934387207
1745662388.5315692,0.00519892293959856,-0.01237429678440094,-0.2720438838005066,0.36706656217575073,-0.7243038415908813,-9.708683967590332
1745662388.533106,0.005944590084254742,-0.019147304818034172,-0.2710079550743103,0.49737292528152466,-0.8139635324478149,-9.62783432006836
1745662388.5425186,0.017004016786813736,-0.017964549362659454,-0.26955726742744446,0.2344748079776764,-0.6131830215454102,-9.854619026184082
1745662388.5426214,0.008932096883654594,-0.01795966736972332,-0.2692737579345703,0.49221986532211304,-0.8698743581771851,-9.876241683959961
1745662388.5761964,0.006964327301830053,-0.020833631977438927,-0.2737234830856323,0.3139542043209076,-0.5896852612495422,-9.724467277526855
1745662388.5786412,-0.0035147243179380894,-0.017488110810518265,-0.27452054619789124,0.5544959306716919,-0.9017997980117798,-9.839673042297363
1745662388.5809,0.016583772376179695,-0.02252151444554329,-0.2727840840816498,0.2551462948322296,-0.4682641923427582,-9.764471054077148
1745662388.5823455,0.005010790657252073,-0.019053179770708084,-0.2719272971153259,0.39315661787986755,-0.7945547103881836,-9.805087089538574
1745662388.6204185,0.025501158088445663,-0.02216455712914467,-0.27270960807800293,0.4089028835296631,-0.4840295910835266,-9.705743789672852
1745662388.624327,0.022173549979925156,-0.021980438381433487,-0.2728784382343292,0.3370354473590851,-0.7337234020233154,-9.781900405883789
1745662388.6269205,0.024613741785287857,-0.023486075922846794,-0.2712624967098236,0.5298428535461426,-0.7187024354934692,-9.686491012573242
1745662388.6357534,0.025000620633363724,-0.020525865256786346,-0.2708328068256378,0.2905096411705017,-0.7285219430923462,-9.758420944213867
1745662388.6635013,0.02224845252931118,-0.019518990069627762,-0.2707536816596985,0.43694186210632324,-0.8727226257324219,-9.755823135375977
1745662388.666153,0.015199544839560986,-0.017757678404450417,-0.27217796444892883,0.3345670998096466,-0.5912145376205444,-9.657628059387207
1745662388.6697464,0.010185567662119865,-0.019878298044204712,-0.27174872159957886,0.45549339056015015,-0.9218888282775879,-9.817665100097656
1745662388.6739247,0.02057938277721405,-0.024192046374082565,-0.2710059583187103,0.38734322786331177,-0.6072389483451843,-9.817960739135742
1745662388.6781673,0.007501734886318445,-0.017967764288187027,-0.27499300241470337,0.37319451570510864,-0.7445085644721985,-9.75282096862793
1745662388.7086186,0.011209104210138321,-0.01695028319954872,-0.2726365923881531,0.44579237699508667,-0.7650096416473389,-9.587932586669922
1745662388.7128544,0.015902843326330185,-0.018192939460277557,-0.2715352177619934,0.2736298441886902,-0.6078762412071228,-9.668950080871582
1745662388.7164054,0.012711171992123127,-0.01904442347586155,-0.27208346128463745,0.6011427044868469,-0.8714916110038757,-9.919100761413574
1745662388.719628,0.02405383437871933,-0.02154977060854435,-0.2684434652328491,0.33853548765182495,-0.6013240814208984,-9.947999000549316
1745662388.7470505,0.021294672042131424,-0.018960565328598022,-0.26975783705711365,0.4299100935459137,-0.9284080266952515,-9.762917518615723
1745662388.751592,0.014914773404598236,-0.02392299473285675,-0.26726168394088745,0.31550392508506775,-0.6014842987060547,-9.562383651733398
1745662388.7540364,0.018982579931616783,-0.018771741539239883,-0.2702007293701172,0.38374096155166626,-0.8271253705024719,-9.754720687866211
1745662388.7567344,0.019091948866844177,-0.02368720807135105,-0.26972055435180664,0.552718460559845,-0.6015856862068176,-9.792728424072266
1745662388.7915335,0.019742902368307114,-0.018092941492795944,-0.27061182260513306,0.315672904253006,-0.7157538533210754,-9.83399486541748
1745662388.7935236,0.017658593133091927,-0.020896663889288902,-0.26949089765548706,0.42771482467651367,-0.7217051386833191,-9.85245418548584
1745662388.8008,0.01474144496023655,-0.020345719531178474,-0.2700977325439453,0.27552053332328796,-0.6635876893997192,-9.76225757598877
1745662388.8008955,0.01061367429792881,-0.021159259602427483,-0.27043473720550537,0.48210468888282776,-0.9694092869758606,-9.715554237365723
1745662388.8347762,0.015300625935196877,-0.025045150890946388,-0.26944178342819214,0.3246611952781677,-0.6383957862854004,-9.715866088867188
1745662388.8384922,7.886998355388641e-05,-0.018154149875044823,-0.27146658301353455,0.4986599087715149,-0.8454432487487793,-9.773353576660156
1745662388.8408608,0.009577637538313866,-0.018147438764572144,-0.26931774616241455,0.45949381589889526,-0.6488598585128784,-9.685129165649414
1745662388.8449383,0.004085979424417019,-0.0203697606921196,-0.27009838819503784,0.3436828553676605,-0.7044307589530945,-9.80611515045166
1745662388.846603,0.008329262025654316,-0.021298419684171677,-0.2685351073741913,0.4697444438934326,-0.7381817102432251,-9.843549728393555
1745662388.8786793,0.018156901001930237,-0.019897857680916786,-0.26817089319229126,0.2008019983768463,-0.560502290725708,-9.856222152709961
1745662388.8869867,0.01768319308757782,-0.019037824124097824,-0.26757875084877014,0.4100607931613922,-0.7561976313591003,-9.656594276428223
1745662388.889162,0.015640441328287125,-0.02263956144452095,-0.26764094829559326,0.29189929366111755,-0.5557440519332886,-9.589783668518066
1745662388.8908095,0.02200406789779663,-0.01776473969221115,-0.26984381675720215,0.4625396728515625,-0.8386286497116089,-9.812660217285156
1745662388.921341,0.02127012051641941,-0.021534336730837822,-0.2681887447834015,0.4282248914241791,-0.5770068764686584,-9.774211883544922
1745662388.923786,0.014673945493996143,-0.015337501652538776,-0.26873475313186646,0.38154762983322144,-0.8352974653244019,-9.764615058898926
1745662388.9275928,0.0033045359887182713,-0.011732282117009163,-0.2662423253059387,0.33897867798805237,-0.815548300743103,-9.767284393310547
1745662388.9299893,0.0077020758762955666,-0.016247648745775223,-0.2664809226989746,0.4714413285255432,-0.6120498776435852,-9.60053825378418
1745662388.966046,0.007432498037815094,-0.012467518448829651,-0.2692837119102478,0.2919216752052307,-0.5465762615203857,-9.687994003295898
1745662388.9661777,0.00036667659878730774,-0.01227941457182169,-0.27090901136398315,0.500453531742096,-0.84576016664505,-9.841365814208984
1745662388.9684808,0.014539891853928566,-0.011631244793534279,-0.2704102396965027,0.2604256272315979,-0.5202983617782593,-9.827051162719727
1745662388.9722953,-0.002101261168718338,-0.016353432089090347,-0.2691940367221832,0.4724273085594177,-0.9541198015213013,-9.787345886230469
1745662388.975071,0.010759319178760052,-0.012476010248064995,-0.26817846298217773,0.3993082642555237,-0.5948764085769653,-9.677743911743164
1745662389.009646,0.0015831515192985535,-0.012026863172650337,-0.2679622769355774,0.3453581929206848,-0.8539797067642212,-9.738840103149414
1745662389.0131838,0.0038540982641279697,-0.014859710820019245,-0.265930712223053,0.4714978337287903,-0.6184542775154114,-9.657537460327148
1745662389.01664,0.008127525448799133,-0.011022137477993965,-0.26668882369995117,0.3290638327598572,-0.699703574180603,-9.776585578918457
1745662389.0201926,0.007023864425718784,-0.014106512069702148,-0.26717403531074524,0.45604556798934937,-0.7130845785140991,-9.8545560836792
1745662389.0517433,0.008611966855823994,-0.011158661916851997,-0.269008606672287,0.26279643177986145,-0.5443381071090698,-9.805740356445312
1745662389.053697,0.0032097878865897655,-0.012442687526345253,-0.2697674036026001,0.4530683159828186,-0.8878625631332397,-9.715919494628906
1745662389.0555956,0.015638433396816254,-0.015514552593231201,-0.26774972677230835,0.32360345125198364,-0.581106960773468,-9.693891525268555
1745662389.0587325,0.0004604922141879797,-0.014992239885032177,-0.2689649164676666,0.5128401517868042,-0.8241361379623413,-9.781585693359375
1745662389.0610547,0.009446028620004654,-0.011312657967209816,-0.26928281784057617,0.47974663972854614,-0.689923882484436,-9.734000205993652
1745662389.0927906,0.005888829939067364,-0.012148484587669373,-0.2678021490573883,0.34366053342819214,-0.6752679944038391,-9.732552528381348
1745662389.0955703,0.0029422675725072622,-0.016700077801942825,-0.2679121494293213,0.537932813167572,-0.7832145690917969,-9.791299819946289
1745662389.1084409,0.011292870156466961,-0.012667243368923664,-0.26854342222213745,0.2730919122695923,-0.5847493410110474,-9.928478240966797
1745662389.1125712,0.0024099235888570547,-0.013317239470779896,-0.2679898738861084,0.44579213857650757,-0.8518956303596497,-9.76031494140625
1745662389.1349957,0.0022501403000205755,-0.017140652984380722,-0.2699119746685028,0.27908483147621155,-0.5933875441551208,-9.54520034790039
1745662389.1367373,0.0013383347541093826,-0.012268525548279285,-0.2695392668247223,0.41336536407470703,-0.8825745582580566,-9.703683853149414
1745662389.1394806,-0.0003186968096997589,-0.013580992817878723,-0.27106747031211853,0.44560232758522034,-0.8725255727767944,-9.643974304199219
1745662389.1402547,0.005948101170361042,-0.015522502362728119,-0.2698749601840973,0.4049503803253174,-0.5163133144378662,-9.714244842529297
1745662389.1798375,0.004215612076222897,-0.010906286537647247,-0.2725650370121002,0.4056151509284973,-0.8467552065849304,-9.92248249053955
1745662389.1831334,1.9020959371118806e-05,-0.016723034903407097,-0.2700217664241791,0.44979697465896606,-0.6870303153991699,-9.82585620880127
1745662389.1857018,-0.0004378936137072742,-0.011812521144747734,-0.26947981119155884,0.31409189105033875,-0.7335864901542664,-9.71043872833252
1745662389.1879098,-0.0032556485384702682,-0.01645253226161003,-0.2700706124305725,0.5011714100837708,-0.8247997164726257,-9.667962074279785
1745662389.191151,0.010191261768341064,-0.013565178029239178,-0.2679371237754822,0.3057355582714081,-0.5131762623786926,-9.691388130187988
1745662389.2247105,-0.009565567597746849,-0.013397669419646263,-0.26879435777664185,0.5726739168167114,-0.808179497718811,-9.785367965698242
1745662389.2257845,0.011905409395694733,-0.014044967480003834,-0.27156662940979004,0.3477480411529541,-0.5117422938346863,-9.721384048461914
1745662389.2274384,0.0009271408198401332,-0.01227845624089241,-0.270863801240921,0.39785662293434143,-0.7418978810310364,-9.795053482055664
1745662389.2285903,0.006935837212949991,-0.01765207014977932,-0.2717456519603729,0.43526172637939453,-0.6710985898971558,-9.80550479888916
1745662389.266291,0.005672840867191553,-0.013193967752158642,-0.2713232636451721,0.28660842776298523,-0.7217124700546265,-9.843790054321289
1745662389.2724931,-0.0010249899933114648,-0.01797625795006752,-0.2688089609146118,0.5369502305984497,-0.8175427317619324,-9.680622100830078
1745662389.2746916,-0.0015060047153383493,-0.014394482597708702,-0.26962289214134216,0.3162720799446106,-0.659135639667511,-9.673074722290039
1745662389.2782083,0.019352547824382782,-0.012707093730568886,-0.267634779214859,0.2663985788822174,-0.5465558767318726,-9.693397521972656
1745662389.283131,0.012473491951823235,-0.019196871668100357,-0.2690310776233673,0.48678678274154663,-0.8124194145202637,-9.854549407958984
1745662389.3159788,0.010315884836018085,-0.016847839578986168,-0.26764294505119324,0.34131672978401184,-0.5783648490905762,-9.836463928222656
1745662389.318523,0.007307636085897684,-0.015195555984973907,-0.2691943049430847,0.4344401955604553,-0.8518198132514954,-9.722577095031738
1745662389.3194165,0.009166324511170387,-0.01937529817223549,-0.26825907826423645,0.47697335481643677,-0.6145448088645935,-9.573264122009277
1745662389.3207397,0.00416429340839386,-0.013223474845290184,-0.2680548429489136,0.3797626495361328,-0.7132105827331543,-9.808085441589355
1745662389.3535082,-0.002516932552680373,-0.017596522346138954,-0.2693178951740265,0.5157696008682251,-0.7758905291557312,-9.923439979553223
1745662389.3562813,0.01576802134513855,-0.013310757465660572,-0.26786911487579346,0.20565426349639893,-0.4352981448173523,-9.779973983764648
1745662389.3590012,0.0035206303000450134,-0.016134072095155716,-0.26804929971694946,0.45294928550720215,-0.7596824169158936,-9.660917282104492
1745662389.3601098,0.02360140159726143,-0.01667052134871483,-0.2709755599498749,0.3309513330459595,-0.4420846998691559,-9.733235359191895
1745662389.393423,0.01215420849621296,-0.013965713791549206,-0.2688298225402832,0.4406273365020752,-0.8724311590194702,-9.8709077835083
1745662389.396239,0.017363015562295914,-0.01781841740012169,-0.2678280472755432,0.4283253252506256,-0.592021107673645,-9.716787338256836
1745662389.39809,0.013654421083629131,-0.011850884184241295,-0.26756611466407776,0.36725053191185,-0.8351472616195679,-9.720329284667969
1745662389.402104,0.01166783832013607,-0.017438355833292007,-0.26632556319236755,0.4609677195549011,-0.691116213798523,-9.788064956665039
1745662389.4037774,0.010099085047841072,-0.012924795038998127,-0.2676147520542145,0.39835092425346375,-0.5879451036453247,-9.848228454589844
1745662389.4381514,0.0023131289053708315,-0.016242725774645805,-0.26792436838150024,0.4851786494255066,-0.834102988243103,-9.793455123901367
1745662389.4407043,0.021686259657144547,-0.016989246010780334,-0.26935359835624695,0.23822252452373505,-0.48766598105430603,-9.642250061035156
1745662389.4430325,-0.001462998683564365,-0.014940853230655193,-0.26857733726501465,0.4554954469203949,-0.7688829302787781,-9.714883804321289
1745662389.445066,0.016749916598200798,-0.013288076035678387,-0.26807090640068054,0.34925398230552673,-0.5865423083305359,-9.740324020385742
1745662389.4798548,0.012125308625400066,-0.012175838463008404,-0.2712971270084381,0.36081480979919434,-0.6520301699638367,-9.852937698364258
1745662389.4823098,0.017954256385564804,-0.016983624547719955,-0.2691681981086731,0.4668427109718323,-0.669684112071991,-9.788888931274414
1745662389.4843428,0.022329792380332947,-0.013230526819825172,-0.26858091354370117,0.2980400621891022,-0.608437716960907,-9.794427871704102
1745662389.4848456,0.00751181785017252,-0.017514003440737724,-0.26728296279907227,0.4213716387748718,-0.7125353813171387,-9.910409927368164
1745662389.5225098,0.014552617445588112,-0.013567453250288963,-0.2694613039493561,0.2421782910823822,-0.6360738277435303,-9.767960548400879
1745662389.5255349,0.0005167570780031383,-0.017305666580796242,-0.2691572308540344,0.47104501724243164,-0.8060755729675293,-9.608026504516602
1745662389.5286043,0.018708204850554466,-0.011672974564135075,-0.26804012060165405,0.3118806481361389,-0.47798818349838257,-9.687286376953125
1745662389.5306065,0.002489288104698062,-0.017023053020238876,-0.26703670620918274,0.5334925651550293,-0.8695352673530579,-9.861823081970215
1745662389.5343435,0.016209669411182404,-0.015953877940773964,-0.265946626663208,0.3640911281108856,-0.5461925268173218,-9.82710075378418
1745662389.5681179,0.011903966777026653,-0.013508593663573265,-0.26743462681770325,0.3975885510444641,-0.8092508316040039,-9.739619255065918
1745662389.5696015,0.010880565270781517,-0.020146925002336502,-0.26473718881607056,0.3543489873409271,-0.5478892922401428,-9.680364608764648
1745662389.5715148,0.010874328203499317,-0.012725223787128925,-0.2672785520553589,0.33376190066337585,-0.6685548424720764,-9.831209182739258
1745662389.57276,0.0109151192009449,-0.016571933403611183,-0.2674868702888489,0.46525758504867554,-0.6663559079170227,-9.792985916137695
1745662389.6096282,0.020382432267069817,-0.015647850930690765,-0.26888298988342285,0.2889837324619293,-0.5324158668518066,-9.619908332824707
1745662389.6124918,-0.00023024724214337766,-0.015882549807429314,-0.26968610286712646,0.5793565511703491,-0.8219287991523743,-9.717336654663086
1745662389.6134558,0.022420188412070274,-0.01554818730801344,-0.27082163095474243,0.3171541094779968,-0.5460774898529053,-9.840380668640137
1745662389.6161072,0.007074845489114523,-0.014827300794422626,-0.27012649178504944,0.4458696246147156,-0.8046433329582214,-9.894601821899414
1745662389.617568,0.016870755702257156,-0.01659315824508667,-0.2688216269016266,0.5186071395874023,-0.771546483039856,-9.757139205932617
1745662389.6534257,0.01898791640996933,-0.015760917216539383,-0.2694772779941559,0.2972227931022644,-0.647454559803009,-9.776043891906738
