timestamp,angular_vel_x,angular_vel_y,angular_vel_z,linear_acc_x,linear_acc_y,linear_acc_z
1745661675.213686,0.01255794893950224,-0.03961469233036041,0.3857116103172302,0.47681689262390137,0.7188926935195923,-9.810147285461426
1745661675.2193418,0.012761527672410011,-0.02555864118039608,0.3859598934650421,0.4084840714931488,1.1067988872528076,-9.67585277557373
1745661675.2270095,-0.0035060078371316195,-0.036090150475502014,0.38333025574684143,0.44427043199539185,0.5678704380989075,-9.847452163696289
1745661675.2297082,0.03188673406839371,-0.030375342816114426,0.38511353731155396,0.39581847190856934,1.0468389987945557,-9.640886306762695
1745661675.2545404,-0.0042937989346683025,-0.02721470594406128,0.3825169801712036,0.46628594398498535,0.7044533491134644,-9.790669441223145
1745661675.257253,0.020554739981889725,-0.03621231019496918,0.3834407329559326,0.32870224118232727,0.7975115180015564,-9.749927520751953
1745661675.2664058,0.01245929580181837,-0.022621899843215942,0.38207101821899414,0.4717123508453369,0.8005997538566589,-9.6915864944458
1745661675.2664618,0.0059249973855912685,-0.03464918211102486,0.38230153918266296,0.417336642742157,0.8851488828659058,-9.761839866638184
1745661675.2988157,0.010655021294951439,-0.030016418546438217,0.3787599205970764,0.4530828595161438,0.8315929174423218,-9.853190422058105
1745661675.3025987,0.021958351135253906,-0.03360012173652649,0.379157692193985,0.5037519931793213,0.7781181335449219,-9.778352737426758
1745661675.3027341,0.003695134073495865,-0.023421116173267365,0.3770633339881897,0.3071707487106323,0.9993364214897156,-9.694229125976562
1745661675.304323,0.009458225220441818,-0.036185070872306824,0.37488970160484314,0.5358489751815796,0.49738985300064087,-9.708791732788086
1745661675.309274,0.019918078556656837,-0.030045604333281517,0.3749293386936188,0.36419373750686646,1.0905002355575562,-9.699264526367188
1745661675.3411875,-0.0012942083412781358,-0.02540503442287445,0.3767267167568207,0.44124603271484375,0.5651618242263794,-9.957242012023926
1745661675.347467,0.027851462364196777,-0.03285297378897667,0.3744838237762451,0.39578762650489807,0.9727898836135864,-9.627341270446777
1745661675.3475795,0.009782562032341957,-0.023270852863788605,0.37308159470558167,0.3764391839504242,0.8650408983230591,-9.684548377990723
1745661675.347643,0.02088337019085884,-0.03689282014966011,0.37415602803230286,0.4974478781223297,0.7029402852058411,-9.784046173095703
1745661675.385431,0.027516793459653854,-0.019027134403586388,0.3746204376220703,0.3334973156452179,0.9188511967658997,-9.831884384155273
1745661675.386351,0.016436710953712463,-0.03081868216395378,0.374164879322052,0.5321511030197144,0.8128976821899414,-9.706293106079102
1745661675.3872755,0.02416030876338482,-0.03819633275270462,0.36993908882141113,0.30759182572364807,0.9467509984970093,-9.800981521606445
1745661675.3889356,0.04294750839471817,-0.024866288527846336,0.3666611313819885,0.4220431447029114,0.9079211950302124,-9.7889986038208
1745661675.4342296,0.01690594293177128,-0.03061324916779995,0.36185312271118164,0.15092718601226807,0.9951216578483582,-9.759479522705078
1745661675.4343183,0.04350337013602257,-0.03693128749728203,0.3586067259311676,0.30210405588150024,0.677495539188385,-9.646194458007812
1745661675.434392,0.04002365842461586,-0.03595881909132004,0.3582710325717926,0.470233291387558,0.46704596281051636,-9.638284683227539
1745661675.43446,0.03475165739655495,-0.025018682703375816,0.35810574889183044,0.3336211144924164,0.780697762966156,-9.61911392211914
1745661675.4711041,0.02073017507791519,-0.03176640719175339,0.35501596331596375,0.40509575605392456,0.46988874673843384,-9.917680740356445
1745661675.4832096,0.017917213961482048,-0.03507455438375473,0.3551773428916931,0.250112384557724,0.717127799987793,-9.815690994262695
1745661675.4833422,0.014824767597019672,-0.026183921843767166,0.35364869236946106,0.45328444242477417,0.5915032625198364,-9.584004402160645
1745661675.4833996,0.0068131969310343266,-0.03456193953752518,0.35335105657577515,0.3930760324001312,0.9260298013687134,-9.650187492370605
1745661675.483464,0.0018221087520942092,-0.03469694405794144,0.3464641571044922,0.22333988547325134,0.8759241104125977,-10.056720733642578
1745661675.5211968,0.025107327848672867,-0.03535117208957672,0.3461161255836487,0.47510823607444763,0.8018638491630554,-9.783058166503906
1745661675.521289,0.01717141643166542,-0.022201746702194214,0.3437115252017975,0.27657684683799744,1.2294371128082275,-9.430374145507812
1745661675.52134,0.028577813878655434,-0.04420311376452446,0.3435794711112976,0.4680745005607605,0.6834843754768372,-9.783246994018555
1745661675.521389,0.05168890953063965,-0.037217240780591965,0.3416453003883362,0.3272249102592468,1.106181263923645,-9.9975004196167
1745661675.562826,0.051541805267333984,-0.02379382587969303,0.3419021964073181,0.31160593032836914,0.7228525280952454,-9.880365371704102
1745661675.5629797,0.06549879908561707,-0.03852993994951248,0.34273263812065125,0.3146909773349762,0.9063816070556641,-9.404023170471191
1745661675.5630653,0.038625672459602356,-0.03404108062386513,0.3009618818759918,0.29708343744277954,0.36444225907325745,-9.727956771850586
1745661675.5632765,0.06282760947942734,-0.027376413345336914,0.30074605345726013,0.3227035403251648,0.6536046266555786,-9.740872383117676
1745661675.6004577,0.0405241996049881,-0.018865646794438362,0.29774898290634155,0.3266969323158264,0.5866993069648743,-9.991251945495605
1745661675.6087918,0.04057248681783676,-0.0350072905421257,0.29710641503334045,0.1293819546699524,0.5985164642333984,-9.847601890563965
1745661675.6089318,0.06023092195391655,-0.021039456129074097,0.29425936937332153,0.3571803867816925,0.6762908101081848,-9.489540100097656
1745661675.6185265,0.03317563235759735,-0.028134901076555252,0.29269006848335266,0.23283202946186066,0.6723150014877319,-9.754283905029297
1745661675.6286056,0.05200503394007683,-0.025420334190130234,0.2920403480529785,0.2988927960395813,0.5772293210029602,-9.995800018310547
1745661675.6397214,0.04886505752801895,-0.028756970539689064,0.2890530824661255,0.40850359201431274,0.6757574677467346,-9.760063171386719
1745661675.6426075,0.048652924597263336,-0.0228313896805048,0.29072999954223633,0.1462799608707428,0.6746455430984497,-9.694619178771973
1745661675.652584,0.06530852615833282,-0.024340074509382248,0.2918459177017212,0.3926616311073303,0.5188926458358765,-9.65168571472168
1745661675.652655,0.05684271454811096,-0.025560343638062477,0.29033374786376953,0.14353327453136444,0.7263727188110352,-9.89168643951416
1745661675.7079191,0.06490285694599152,-0.02135312184691429,0.29099905490875244,0.39051032066345215,0.550220787525177,-9.802412986755371
1745661675.7080154,0.07079300284385681,-0.02482825517654419,0.28627443313598633,0.25634583830833435,0.6976538896560669,-9.658876419067383
1745661675.7106688,0.06823911517858505,-0.020438876003026962,0.2825978100299835,0.12111487239599228,0.7175095081329346,-9.806014060974121
1745661675.7107725,0.05605781823396683,-0.03129585459828377,0.2838864028453827,0.2910674810409546,0.3193681836128235,-9.87694263458252
1745661675.7108169,0.07850019633769989,-0.014214272610843182,0.2802688479423523,0.22524937987327576,0.6845651865005493,-9.646528244018555
1745661675.774132,0.039433419704437256,-0.022555526345968246,0.2811960279941559,0.25044551491737366,0.32583266496658325,-9.774751663208008
1745661675.7742457,0.06150853633880615,-0.028652120381593704,0.2786700427532196,0.1987713873386383,0.44717398285865784,-9.7770414352417
1745661675.7743053,0.05074355751276016,-0.014094206504523754,0.28117090463638306,0.33988016843795776,0.5305424928665161,-9.779580116271973
1745661675.7743526,0.03412220627069473,-0.022489134222269058,0.2808413803577423,0.1610974222421646,0.44139236211776733,-9.848920822143555
1745661675.7974591,0.05785956233739853,-0.021822553128004074,0.27863699197769165,0.29684969782829285,0.5429914593696594,-9.72156810760498
1745661675.797594,0.03650129586458206,-0.02220301330089569,0.2757386565208435,0.2897265553474426,0.5386370420455933,-9.767542839050293
1745661675.7977178,0.05086932331323624,-0.018339375033974648,0.27567189931869507,0.2297186404466629,0.6886285543441772,-9.796457290649414
1745661675.7977781,0.057009704411029816,-0.014739183709025383,0.27387696504592896,0.37547001242637634,0.5198184847831726,-9.724349975585938
1745661675.820711,0.07047564536333084,-0.025904685258865356,0.2727144658565521,0.24246636033058167,0.6863583326339722,-9.774856567382812
1745661675.8208413,0.07352790981531143,-0.016347475349903107,0.2699008584022522,0.36525759100914,0.5562853217124939,-9.86335563659668
1745661675.82094,0.07797916978597641,-0.016091391444206238,0.27152252197265625,0.1537889540195465,0.690026581287384,-9.79670524597168
1745661675.8209915,0.06982593238353729,-0.014771352522075176,0.26691803336143494,0.15604576468467712,0.45703592896461487,-9.64315414428711
1745661675.862954,0.0860372930765152,-0.01772545650601387,0.26811185479164124,0.44743385910987854,0.43891096115112305,-9.572042465209961
1745661675.8642595,0.05963084101676941,-0.012567494995892048,0.26491501927375793,0.13395708799362183,0.625506579875946,-9.984649658203125
1745661675.8643906,0.07286716997623444,-0.01864466443657875,0.2656249403953552,0.36419323086738586,0.16339543461799622,-9.943475723266602
1745661675.8644705,0.06604974716901779,-0.009250876493752003,0.2645432651042938,0.2350994348526001,0.6661112308502197,-9.506303787231445
1745661675.9096036,0.057515762746334076,-0.009881141595542431,0.26339635252952576,0.32647764682769775,0.2129993438720703,-9.717948913574219
1745661675.909712,0.05818513035774231,-0.02109755203127861,0.2640891671180725,0.2675701081752777,0.5107455253601074,-9.878494262695312
1745661675.909763,0.06018458679318428,-0.005603845231235027,0.26268625259399414,0.26679927110671997,0.4107692241668701,-9.911175727844238
1745661675.9098115,0.10727450996637344,-0.002230823738500476,0.15591183304786682,0.15322694182395935,0.7212030291557312,-9.455827713012695
1745661675.9423068,0.09294454008340836,-0.0065030381083488464,0.154765322804451,0.42472630739212036,0.14620999991893768,-10.331249237060547
1745661675.9508274,0.12078509479761124,-0.0034635395277291536,0.150000661611557,0.20183837413787842,0.6513117551803589,-10.065093994140625
1745661675.9509182,0.10830656439065933,0.00862975139170885,0.14512497186660767,0.3997715711593628,0.2717670500278473,-9.311299324035645
1745661675.9509506,0.11342497915029526,-0.012410605326294899,0.1421094387769699,0.37193650007247925,0.42956286668777466,-9.445895195007324
1745661675.9548867,0.10997865349054337,-0.004504781682044268,0.1379859298467636,0.25537991523742676,0.2657540440559387,-10.291694641113281
1745661676.009213,0.11787234246730804,-0.00048042088747024536,0.13573868572711945,0.279657781124115,0.1416134089231491,-10.106438636779785
1745661676.0093236,0.1078486442565918,0.0032333270646631718,0.13347962498664856,0.05525971204042435,0.264268159866333,-9.365032196044922
1745661676.0093713,0.1152212992310524,-0.008811108767986298,0.13278569281101227,0.30376848578453064,-0.011208763346076012,-9.35628604888916
1745661676.0094142,0.09944450855255127,-0.0029991967603564262,0.12831664085388184,0.1333625465631485,0.35208919644355774,-10.081718444824219
1745661676.0413067,0.11375574767589569,0.00945655070245266,0.12444069236516953,0.33562904596328735,-0.040600020438432693,-10.140056610107422
1745661676.0414155,0.09887472540140152,0.0018238176126033068,0.12052492797374725,0.20755672454833984,0.3576592206954956,-9.411188125610352
1745661676.0414805,0.09160156548023224,0.00054501264821738,0.12052573263645172,0.3515915274620056,-0.06198780983686447,-9.51359748840332
1745661676.0415273,0.09466059505939484,-0.0012923147296532989,0.11762968450784683,0.36699825525283813,0.27393513917922974,-9.992196083068848
1745661676.0415626,0.07354360818862915,0.009269939735531807,0.11421966552734375,0.14999189972877502,0.18569150567054749,-10.210155487060547
1745661676.077457,0.10418780148029327,0.003084275173023343,0.11066484451293945,0.41993603110313416,0.1834944486618042,-9.323447227478027
1745661676.077591,0.08106300979852676,0.006162562873214483,0.10653634369373322,0.19605937600135803,0.6463898420333862,-9.383890151977539
1745661676.115151,0.10275783389806747,0.003995691426098347,0.10493984073400497,0.39387843012809753,0.19089679419994354,-10.134000778198242
1745661676.1152525,0.11577584594488144,0.005241578444838524,0.0998842641711235,0.1748984158039093,0.6888777017593384,-10.121087074279785
1745661676.1242456,0.11580833047628403,0.015129754319787025,0.09563255310058594,0.2822927236557007,0.15284426510334015,-9.584589004516602
1745661676.1243799,0.13587325811386108,-0.0007772520184516907,0.09785206615924835,0.30351099371910095,0.43183717131614685,-9.416831970214844
1745661676.1244364,0.12820716202259064,0.0056009236723184586,0.09453029930591583,0.19091862440109253,0.14585669338703156,-10.068131446838379
1745661676.124489,0.1384301483631134,0.006291491445153952,0.08973478525876999,0.3455440402030945,0.09254296123981476,-10.062128067016602
1745661676.158129,0.10637390613555908,0.01369608473032713,0.07869531959295273,0.34854739904403687,-0.2751060426235199,-10.168257713317871
1745661676.158355,0.09364750236272812,0.009149620309472084,0.07552891969680786,0.22853264212608337,0.12538029253482819,-9.441995620727539
1745661676.1607058,0.08151974529027939,0.008021149784326553,0.07233862578868866,0.21437597274780273,-0.014358686283230782,-9.459527969360352
1745661676.1763048,0.08537115156650543,0.0023763435892760754,0.07234200090169907,0.43697863817214966,0.07305862009525299,-9.905524253845215
1745661676.1763973,0.09078675508499146,0.02156948298215866,0.06678103655576706,0.1976548433303833,0.3899891972541809,-10.066642761230469
1745661676.20407,0.09764232486486435,0.006824408657848835,0.06347080320119858,0.4108462333679199,0.08795405924320221,-9.691167831420898
1745661676.2053416,0.10696615278720856,0.011080719530582428,0.05942612141370773,0.250238299369812,0.3965516686439514,-9.485210418701172
1745661676.2103648,0.1053471714258194,0.014886721968650818,0.060316652059555054,0.38522833585739136,0.084757499396801,-9.86182689666748
1745661676.2148077,0.11283884197473526,0.011326870881021023,0.0563482940196991,0.23821496963500977,0.1829826831817627,-10.000082015991211
1745661676.2440617,0.11294756084680557,0.016461392864584923,0.05333857983350754,0.2964407503604889,0.15754051506519318,-9.70449161529541
1745661676.2450652,0.11336680501699448,0.007686968892812729,0.05235639959573746,0.4044815003871918,0.09715022146701813,-9.606557846069336
1745661676.2484076,0.1178726777434349,0.017563357949256897,0.04425615817308426,0.2304997444152832,0.24229708313941956,-9.828765869140625
1745661676.2484777,0.11048785597085953,0.011080337688326836,0.041027069091796875,0.4676400125026703,-0.11121436208486557,-9.874040603637695
1745661676.2885711,0.07290748506784439,0.005925965961068869,-0.026019368320703506,0.23380771279335022,-0.08858723193407059,-9.811613082885742
1745661676.2936857,0.08632860332727432,0.01236620545387268,-0.02730565145611763,0.4152368903160095,-0.3511415123939514,-9.87291431427002
1745661676.2968354,0.06105608865618706,0.00910401251167059,-0.028792237862944603,0.374321311712265,-0.1834607869386673,-9.73668384552002
1745661676.2986357,0.07235057651996613,0.01084919273853302,-0.029572898522019386,0.29453811049461365,-0.32578033208847046,-9.667030334472656
1745661676.2986953,0.056870169937610626,0.007524731103330851,-0.029336979612708092,0.40075892210006714,-0.16920830309391022,-9.715795516967773
1745661676.3360658,0.056139636784791946,0.009377864189445972,-0.0327201671898365,0.24393577873706818,-0.18112768232822418,-9.978654861450195
1745661676.3361628,0.06644115597009659,0.009861721657216549,-0.036005083471536636,0.4584173262119293,-0.12233205139636993,-9.779142379760742
1745661676.3467817,0.05090080574154854,0.004465082194656134,-0.03644365817308426,0.21592816710472107,-0.124040387570858,-9.732669830322266
1745661676.3468957,0.06428223103284836,0.006531464401632547,-0.03864505887031555,0.44011440873146057,-0.19591279327869415,-9.74621868133545
1745661676.372074,0.05633582919836044,0.005099733360111713,-0.03910090774297714,0.3355882465839386,-0.09902490675449371,-9.798985481262207
1745661676.374943,0.06019904464483261,0.009632749482989311,-0.04051629453897476,0.3269596993923187,-0.19612319767475128,-9.805339813232422
1745661676.3780684,0.05426908656954765,0.005407124757766724,-0.04305030778050423,0.4211139678955078,-0.16224226355552673,-9.665860176086426
1745661676.3805785,0.05527754873037338,0.0047972677275538445,-0.04516476020216942,0.24807338416576385,-0.05926750227808952,-9.793882369995117
1745661676.4408057,0.057948239147663116,0.004601940978318453,-0.044813644140958786,0.5257251858711243,-0.17179954051971436,-9.876029014587402
1745661676.4413922,0.062655508518219,0.004225698299705982,-0.050512321293354034,0.18606266379356384,-0.0607403926551342,-9.865338325500488
1745661676.4414446,0.06541939824819565,0.007492288947105408,-0.049591220915317535,0.4172503352165222,-0.2459166944026947,-9.603489875793457
1745661676.4414916,0.054937392473220825,0.0026787545066326857,-0.052422843873500824,0.23362767696380615,-0.09668304771184921,-9.647969245910645
1745661676.4415233,0.0632382184267044,0.006288155913352966,-0.05061429738998413,0.29067811369895935,-0.38460519909858704,-9.865567207336426
1745661676.4622455,0.053853344172239304,0.002634960226714611,-0.05332368612289429,0.4345758557319641,-0.17244109511375427,-9.82465648651123
1745661676.4634526,0.050705842673778534,0.0040905410423874855,-0.05571245402097702,0.2300184965133667,-0.26810240745544434,-9.853612899780273
1745661676.4648852,0.053375184535980225,0.0027903253212571144,-0.05455701798200607,0.4880927503108978,-0.27364832162857056,-9.681451797485352
1745661676.4658513,0.04698951169848442,0.00020380895875860006,-0.05196697637438774,0.17416897416114807,-0.23227627575397491,-9.778162956237793
1745661676.5043437,0.022047627717256546,0.0008115886012092233,-0.046488285064697266,0.15598401427268982,0.1375984251499176,-9.533422470092773
1745661676.5092502,0.001240314100869,-0.031118188053369522,-0.05231739208102226,0.2282802313566208,-0.2855303883552551,-9.989608764648438
1745661676.5095203,0.021937433630228043,-0.01387062668800354,-0.05901433899998665,0.04690347984433174,0.14224179089069366,-10.12028980255127
1745661676.5095847,0.0004433201684150845,-0.015406104736030102,-0.058675266802310944,-0.016767479479312897,-0.45056524872779846,-9.80428695678711
1745661676.5453134,0.030437147244811058,-0.01159708946943283,-0.04906528443098068,-0.27361318469047546,-0.5332938432693481,-9.225374221801758
1745661676.547254,-0.019251074641942978,-0.013913223519921303,-0.03312263265252113,0.4944254755973816,-1.1068713665008545,-9.289813041687012
1745661676.549642,0.004107150249183178,-0.018829073756933212,-0.02158014476299286,0.42642098665237427,-0.3036158084869385,-10.312527656555176
1745661676.5550811,-0.00895106140524149,0.0002694651484489441,-0.020581141114234924,0.2645348012447357,-0.1434292048215866,-10.321980476379395
1745661676.5552037,-0.010156447067856789,-0.011087748222053051,-0.018337896093726158,0.7454749941825867,0.011988977901637554,-9.108402252197266
1745661676.5999002,-0.006673559546470642,-0.032085902988910675,-0.026291385293006897,0.4556189179420471,0.31225597858428955,-9.564432144165039
1745661676.6000412,-0.0299987755715847,-0.0313083752989769,-0.03069171868264675,0.2720349431037903,-0.3894787132740021,-10.760913848876953
1745661676.6001189,-0.011163247749209404,-0.004078100435435772,-0.027642488479614258,-0.037593524903059006,0.052473284304142,-9.922931671142578
1745661676.6001956,-0.042112935334444046,-0.013047886081039906,-0.022299673408269882,0.3382926881313324,-0.2914927303791046,-8.687345504760742
1745661676.631567,-0.007612886372953653,-0.0405476838350296,-0.016118422150611877,0.5425019860267639,0.26513105630874634,-9.415559768676758
1745661676.635597,-0.010113648138940334,-0.005137371830642223,-0.07252900302410126,0.7648524045944214,0.160775288939476,-10.834871292114258
1745661676.6366286,0.013213356956839561,0.015366519801318645,-0.08881784975528717,0.6115706562995911,0.2683892846107483,-11.473271369934082
1745661676.639708,0.016348956152796745,0.0328957661986351,-0.09662332385778427,0.1218712329864502,-0.012979397550225258,-8.973118782043457
1745661676.6760364,0.013457035645842552,0.0035681594163179398,-0.09798892587423325,0.4186937212944031,-0.22305536270141602,-7.9960479736328125
1745661676.6761358,0.0066786655224859715,0.008134765550494194,-0.10117022693157196,0.3614153265953064,0.025536537170410156,-10.364031791687012
1745661676.690096,0.0606902614235878,0.04186917096376419,-0.10099097341299057,0.5237087607383728,-0.014377200976014137,-11.162355422973633
1745661676.6901464,0.04771321639418602,0.0401260145008564,-0.108894944190979,0.6465744376182556,0.06228981167078018,-9.014878273010254
1745661676.690186,0.07861785590648651,0.01669965125620365,-0.10804428905248642,0.8341214060783386,-0.11248283088207245,-8.652666091918945
1745661676.7403245,0.07221867144107819,0.008994919247925282,-0.11253149807453156,0.7175427675247192,-0.12738977372646332,-10.706560134887695
1745661676.740376,0.08897235989570618,0.041480399668216705,-0.11156679689884186,0.36457809805870056,-0.34217196702957153,-11.048853874206543
1745661676.7404265,0.06894958764314651,0.04280838370323181,-0.11643290519714355,0.5015497803688049,-0.42281675338745117,-8.65768814086914
1745661676.7404835,0.04023394733667374,0.020819757133722305,-0.11998853832483292,0.3238675892353058,-0.3250139355659485,-8.443995475769043
1745661676.7733748,0.04068922996520996,0.026599746197462082,-0.12661109864711761,0.6765165328979492,-0.19806742668151855,-10.536840438842773
1745661676.7734823,0.033098671585321426,0.04202768951654434,-0.13669149577617645,0.5525553226470947,-0.02498725801706314,-11.130494117736816
1745661676.7735436,0.05435749888420105,0.03896888345479965,-0.13953645527362823,0.6599788069725037,-0.35385507345199585,-9.314251899719238
1745661676.7741046,0.03704633191227913,0.022154653444886208,-0.13979145884513855,0.6762291789054871,-0.11915449798107147,-8.639896392822266
1745661676.805399,0.053594738245010376,0.0349438302218914,-0.13594560325145721,0.45529866218566895,-0.2772476077079773,-10.321477890014648
1745661676.8071845,0.07608538120985031,0.04226744920015335,-0.13591691851615906,0.5948877334594727,-0.20651689171791077,-10.487881660461426
1745661676.8120525,0.07451283931732178,0.04947322607040405,-0.1374054253101349,0.4593281149864197,-0.013623619452118874,-9.271028518676758
1745661676.8130243,0.0978044718503952,0.028719311580061913,-0.13993863761425018,0.5616024136543274,-0.020365778356790543,-9.183961868286133
1745661676.8156507,0.09885964542627335,0.029453080147504807,-0.14924417436122894,0.41526779532432556,0.20449309051036835,-10.299610137939453
1745661676.852623,0.05375032499432564,0.03182869404554367,-0.1493750810623169,0.03281445428729057,-0.06045132130384445,-9.574605941772461
1745661676.852701,0.07232269644737244,0.03992585092782974,-0.15604734420776367,0.24187560379505157,0.14010587334632874,-9.706618309020996
1745661676.8527734,0.06642727553844452,0.02223479188978672,-0.1603042483329773,0.4172205924987793,-0.1375112235546112,-9.68066120147705
1745661676.9099383,0.08939211070537567,0.0328172892332077,-0.16279342770576477,0.47302332520484924,-0.12702202796936035,-9.83410930633545
1745661676.910026,0.06859045475721359,0.017653610557317734,-0.16118839383125305,0.43796101212501526,-0.47009557485580444,-10.00959587097168
1745661676.9100814,0.10101306438446045,0.029154673218727112,-0.15648221969604492,0.3973466455936432,-0.4224868416786194,-9.629941940307617
1745661676.926267,0.0511409156024456,0.024687061086297035,-0.15119263529777527,0.8145373463630676,-0.6042070388793945,-9.460731506347656
1745661676.9263396,0.08001155406236649,0.006872904486954212,-0.1529044806957245,0.5930953621864319,-0.32150423526763916,-10.0336332321167
1745661676.9389398,0.06834656745195389,0.01960546337068081,-0.1521618813276291,0.5197352170944214,-0.16209551692008972,-10.147699356079102
1745661676.9390266,0.06262998282909393,0.013239446096122265,-0.15839818120002747,0.27899104356765747,-0.23825106024742126,-9.508004188537598
1745661676.9390943,0.08736035227775574,0.015052897855639458,-0.15948346257209778,0.3566526770591736,-0.2046961784362793,-9.158289909362793
1745661676.9410512,0.052690289914608,-0.0007853989372961223,-0.16326090693473816,0.3868284821510315,-0.19157774746418,-9.927801132202148
1745661676.984242,0.08537185192108154,0.020479673519730568,-0.16294530034065247,0.28564977645874023,-0.41694536805152893,-10.32548713684082
1745661676.984323,0.06632013618946075,0.01676330715417862,-0.16321566700935364,0.5171343088150024,-0.4133679270744324,-9.382658004760742
1745661676.984372,0.04241715744137764,-0.03122054599225521,-0.18113429844379425,0.5698111653327942,-0.5561603307723999,-9.96955394744873
1745661676.9844189,0.051190488040447235,-0.026184778660535812,-0.18362709879875183,0.3160746693611145,-0.2957262098789215,-9.967960357666016
1745661677.0183012,0.04019220545887947,-0.026113297790288925,-0.1851201206445694,0.44117164611816406,-0.5901833772659302,-9.579139709472656
1745661677.0202222,0.052433669567108154,-0.03137727826833725,-0.18422159552574158,0.23145394027233124,-0.2074464112520218,-9.52679443359375
1745661677.021557,0.03594304248690605,-0.0259237177670002,-0.18736045062541962,0.38706570863723755,-0.630276083946228,-9.924088478088379
1745661677.024092,0.051123034209012985,-0.03136212378740311,-0.18523451685905457,0.4337054193019867,-0.41719484329223633,-9.882608413696289
1745661677.0257802,0.03691449761390686,-0.02213912084698677,-0.18625937402248383,0.3885544240474701,-0.5579828023910522,-9.735876083374023
1745661677.065766,0.03417373448610306,-0.030551055446267128,-0.18598197400569916,0.4977193772792816,-0.6525791883468628,-9.641936302185059
1745661677.0676441,0.03386882320046425,-0.028139615431427956,-0.1846487820148468,0.35115429759025574,-0.47537940740585327,-9.79058837890625
1745661677.071306,0.02288031205534935,-0.02628444693982601,-0.1844799965620041,0.5879532098770142,-0.613288164138794,-9.896024703979492
1745661677.075431,0.026404982432723045,-0.03048764169216156,-0.18613755702972412,0.31077098846435547,-0.30231553316116333,-9.792340278625488
1745661677.1030507,0.025331318378448486,-0.026225384324789047,-0.18610791862010956,0.42647916078567505,-0.5079615712165833,-9.66427230834961
1745661677.1060665,0.023824339732527733,-0.031172847375273705,-0.18908777832984924,0.3529359698295593,-0.2038026601076126,-9.696813583374023
1745661677.1085932,0.03033825196325779,-0.027876952663064003,-0.18923433125019073,0.3350047767162323,-0.5293837189674377,-9.944498062133789
1745661677.109702,0.036583300679922104,-0.03090091422200203,-0.1904827058315277,0.49399226903915405,-0.2697293758392334,-9.819294929504395
1745661677.111757,0.03719332441687584,-0.026294821873307228,-0.1900259405374527,0.29168900847435,-0.4476873278617859,-9.770029067993164
1745661677.1566434,0.043178535997867584,-0.027466043829917908,-0.18777190148830414,0.4956102967262268,-0.49291619658470154,-9.62326717376709
1745661677.1567252,0.04073456674814224,-0.02968747541308403,-0.18968555331230164,0.3810204565525055,-0.4397049844264984,-9.820550918579102
1745661677.1567817,0.04304007440805435,-0.02706831693649292,-0.18796879053115845,0.5231449007987976,-0.6409202814102173,-9.927042007446289
1745661677.1571252,0.028575653210282326,-0.028533268719911575,-0.18759629130363464,0.36006832122802734,-0.46823835372924805,-9.832054138183594
1745661677.1909206,0.036076076328754425,-0.025148700922727585,-0.19032630324363708,0.3276892304420471,-0.6111488938331604,-9.706655502319336
1745661677.1950839,0.013540434651076794,-0.034494899213314056,-0.1915934979915619,0.4538777768611908,-0.4824654459953308,-9.670086860656738
1745661677.2007773,0.015111093409359455,-0.02821538783609867,-0.19191038608551025,0.37791863083839417,-0.3275379240512848,-9.602593421936035
1745661677.213606,0.029335040599107742,-0.024498093873262405,-0.19339589774608612,0.3029234707355499,-0.35659727454185486,-9.717890739440918
1745661677.2434614,0.01752636581659317,-0.027840998023748398,-0.19513939321041107,0.46423500776290894,-0.4927124083042145,-9.910436630249023
1745661677.2460485,0.03023984655737877,-0.020665107294917107,-0.19668078422546387,0.3407871723175049,-0.36196964979171753,-9.91430377960205
1745661677.246169,0.012777474708855152,-0.018331242725253105,-0.1938091516494751,0.49207401275634766,-0.6514667272567749,-9.731778144836426
1745661677.2462552,0.03735599294304848,-0.030934130772948265,-0.18959686160087585,0.21487829089164734,-0.44871753454208374,-9.674519538879395
1745661677.24631,0.025212924927473068,-0.019767025485634804,-0.1825392246246338,0.03139879181981087,-0.6257904767990112,-9.807397842407227
1745661677.2779615,0.014811533503234386,-0.020659642294049263,-0.1789816915988922,0.22789010405540466,-0.8096274137496948,-9.68287467956543
1745661677.2826211,-0.008770810440182686,-0.04018222913146019,-0.17259177565574646,-0.4470230042934418,-0.7860044240951538,-10.009767532348633
1745661677.286411,-0.026842713356018066,-0.020371004939079285,-0.17306086421012878,-0.09577985107898712,-0.6555911302566528,-9.731188774108887
1745661677.2884514,-0.030897382646799088,-0.021177152171730995,-0.1751689463853836,-0.09217092394828796,-0.22281725704669952,-9.531854629516602
1745661677.319821,-0.04180269315838814,-0.04077993705868721,-0.1748710721731186,0.4162394404411316,-0.7282021045684814,-9.834992408752441
1745661677.3210945,-0.04252475127577782,-0.04471724107861519,-0.17166656255722046,0.2896108627319336,-0.13008913397789001,-10.287069320678711
1745661677.32351,-0.04050029069185257,-0.03379177674651146,-0.1603575050830841,0.036613501608371735,-0.9600089192390442,-10.201662063598633
1745661677.3266125,-0.17501826584339142,-0.05569193884730339,-0.049298159778118134,-0.2900342643260956,0.3949753940105438,-6.843330383300781
1745661677.3629034,-0.19458451867103577,-0.07135863602161407,-0.062093336135149,0.7041245698928833,-0.08217126876115799,-10.087715148925781
1745661677.3665028,-0.1549939513206482,-0.06069423630833626,-0.0540839359164238,0.4084476828575134,-0.3175400495529175,-12.940908432006836
1745661677.3697093,-0.13575303554534912,-0.0528593473136425,-0.02824040688574314,-0.029779303818941116,-0.9699799418449402,-10.238210678100586
1745661677.3718991,-0.10997464507818222,-0.058613479137420654,0.010208704508841038,-0.7083979845046997,-0.3894190192222595,-7.12729024887085
1745661677.3736007,-0.12321164458990097,-0.07542753219604492,0.03149048238992691,-0.5823272466659546,-0.5147956609725952,-9.164728164672852
1745661677.4056258,-0.048531435430049896,-0.05510943382978439,0.024858932942152023,-0.2917155623435974,1.1085407733917236,-11.411434173583984
1745661677.4100323,-0.056879740208387375,-0.02671719714999199,-0.0017459869850426912,-0.28197818994522095,1.176055908203125,-10.403665542602539
1745661677.4158432,0.01210386585444212,-0.05899731442332268,-0.020116670057177544,-0.2576124370098114,0.6012653708457947,-8.414850234985352
1745661677.4212484,-0.04731636866927147,-0.07781994342803955,-0.02745574340224266,-0.030510932207107544,-0.43821200728416443,-9.52081298828125
1745661677.4496975,-0.08990316092967987,-0.057910460978746414,-0.010342834517359734,-0.027708351612091064,-2.166813373565674,-11.522281646728516
1745661677.4521801,-0.12438026815652847,-0.03677692264318466,0.01767580583691597,-0.44879913330078125,-1.562257170677185,-9.93402099609375
1745661677.4536083,-0.17809095978736877,-0.03377264365553856,0.032065216451883316,0.14082033932209015,-1.0784077644348145,-7.984963417053223
1745661677.4538012,-0.1847759187221527,-0.06400100886821747,0.03312097117304802,0.2048995941877365,0.10781078040599823,-9.15662670135498
1745661677.4926171,-0.1685713827610016,-0.042253587394952774,0.021128397434949875,0.7661528587341309,0.7421790957450867,-11.508975982666016
1745661677.4973407,-0.14684481918811798,-0.0587514266371727,0.012536123394966125,0.12093234062194824,0.5358833074569702,-11.5230712890625
1745661677.4976668,-0.07135181128978729,-0.06772340834140778,0.005824211519211531,-1.3427973985671997,0.5255224704742432,-9.050599098205566
1745661677.5001388,-0.011310813948512077,-0.002326708985492587,-0.0004006680101156235,0.7687903642654419,-0.028519202023744583,-7.078660011291504
1745661677.5039046,-0.054718442261219025,-0.03801668807864189,0.010592910461127758,-0.20565910637378693,0.9595452547073364,-10.82904052734375
1745661677.5360918,0.016770830377936363,-0.06700673699378967,0.02185123786330223,0.7347269654273987,-1.2348538637161255,-11.742425918579102
1745661677.5365825,0.006919287145137787,0.020386260002851486,0.02289487048983574,0.004216015338897705,0.813155472278595,-9.141341209411621
1745661677.5384376,-0.04968296363949776,-0.019845206290483475,0.015508661046624184,-0.2830398678779602,-1.9936740398406982,-8.716139793395996
1745661677.5395794,-0.06543246656656265,0.024866092950105667,-0.02479385770857334,-0.42008572816848755,0.28853264451026917,-11.037735939025879
1745661677.5787387,-0.1673751175403595,-0.01773950271308422,-0.0432751327753067,1.2810932397842407,0.42456817626953125,-11.079611778259277
1745661677.5802684,0.12372453510761261,0.06590165197849274,-0.04291490465402603,1.54727303981781,0.5196965932846069,-9.471349716186523
1745661677.5825365,-0.08898984640836716,-0.005692610051482916,-0.05057405307888985,0.796574592590332,0.6552514433860779,-9.09434700012207
1745661677.5930152,0.1571950763463974,-0.011387577280402184,-0.0480743907392025,1.4472863674163818,-0.5160674452781677,-10.260204315185547
1745661677.6220372,0.09343264251947403,0.058758120983839035,-0.04792439192533493,-0.27619609236717224,0.847378134727478,-10.955041885375977
1745661677.631784,0.04017315059900284,0.018343765288591385,-0.05223903805017471,-0.018855512142181396,-2.221931219100952,-9.305383682250977
1745661677.6319098,0.09235279262065887,0.058219313621520996,-0.05835134908556938,0.5883733034133911,0.7270851135253906,-7.8041181564331055
1745661677.6319861,-0.07061199843883514,0.038016997277736664,-0.09188298135995865,0.2574840188026428,-0.658510684967041,-10.82218074798584
1745661677.6629984,0.041294924914836884,0.05696673318743706,-0.11789993941783905,1.552006721496582,0.43005257844924927,-10.563138961791992
1745661677.665468,-0.11568250507116318,0.07547549158334732,-0.1306646764278412,0.8851531147956848,-0.6476872563362122,-9.623823165893555
1745661677.6671853,-0.008968662470579147,0.02665235474705696,-0.12451289594173431,0.9570881128311157,-1.2952903509140015,-9.070388793945312
1745661677.66858,-0.1491481363773346,0.06513168662786484,-0.10144776105880737,0.296804279088974,-0.7664458155632019,-10.417083740234375
1745661677.670572,-0.012994217686355114,0.08078865706920624,-0.08456291258335114,0.21377627551555634,-0.5044195055961609,-10.390878677368164
1745661677.7111864,0.0822143629193306,0.0781170129776001,-0.22597794234752655,0.7324265241622925,-0.5342086553573608,-9.8003568649292
1745661677.7117414,0.06561772525310516,0.08275259286165237,-0.2217293083667755,0.7240958213806152,-0.37528473138809204,-9.762798309326172
1745661677.7130585,0.11703641712665558,0.08006806671619415,-0.2168509066104889,0.6956269145011902,-0.22089023888111115,-9.412271499633789
1745661677.7151139,0.11425676196813583,0.07050658017396927,-0.21833229064941406,0.720957338809967,0.13402113318443298,-9.510160446166992
1745661677.7506173,0.15077587962150574,0.07166077196598053,-0.22254106402397156,0.5741122961044312,0.04479913413524628,-10.074440956115723
1745661677.752997,0.17553000152111053,0.07414831221103668,-0.22925341129302979,0.5996652841567993,0.009202620014548302,-9.786149978637695
1745661677.7546492,0.1633654683828354,0.05952506512403488,-0.234256312251091,0.465386301279068,-0.3105027675628662,-9.454172134399414
1745661677.755982,0.16534468531608582,0.06284913420677185,-0.23654139041900635,0.7760013341903687,-0.7441457509994507,-9.558706283569336
1745661677.759984,0.12508712708950043,0.050569336861371994,-0.23634862899780273,0.8057303428649902,-0.8037921786308289,-9.882020950317383
1745661677.7987843,0.11125348508358002,0.060865916311740875,-0.23576593399047852,0.8754485845565796,-0.8880933523178101,-9.792475700378418
1745661677.7988365,0.06741927564144135,0.0405002236366272,-0.2395181953907013,1.0360732078552246,-0.7760831117630005,-9.502317428588867
1745661677.8018246,0.08305004984140396,0.03690145164728165,-0.2381543666124344,0.7882377505302429,-0.5362517833709717,-9.801980972290039
1745661677.8043363,0.07031618058681488,0.04096407815814018,-0.2396119385957718,0.863631546497345,-0.35436326265335083,-10.006525039672852
1745661677.8351173,0.08176203072071075,0.026194507256150246,-0.24098968505859375,0.4189169406890869,-0.28183406591415405,-9.74346923828125
1745661677.838655,0.11023900657892227,0.0339323952794075,-0.23952464759349823,0.4754626154899597,-0.2306491881608963,-9.222367286682129
1745661677.8403888,0.09481988847255707,0.0261593796312809,-0.24323797225952148,0.49263280630111694,-0.05860760062932968,-9.458125114440918
1745661677.8433652,0.14860303699970245,0.03459344059228897,-0.245867520570755,0.5059524774551392,-0.20260301232337952,-9.936417579650879
1745661677.8536365,0.13086912035942078,0.020752081647515297,-0.24912989139556885,0.8741647005081177,-0.17818935215473175,-9.689160346984863
1745661677.881722,0.14724181592464447,0.020204680040478706,-0.2504526972770691,0.8408547639846802,-0.6565151214599609,-9.734602928161621
1745661677.8832316,0.13015641272068024,0.015785351395606995,-0.24937768280506134,0.8791981935501099,-0.7224277257919312,-9.789959907531738
1745661677.8857284,0.11080968379974365,0.004810266196727753,-0.24909499287605286,0.779758870601654,-0.8259695172309875,-9.748324394226074
1745661677.89001,0.0922115221619606,0.016776368021965027,-0.24894866347312927,0.843252956867218,-0.7955965399742126,-9.515640258789062
1745661677.9242785,0.06920880824327469,0.0017032998148351908,-0.24898108839988708,0.6749716997146606,-0.6011145710945129,-9.63540267944336
1745661677.9295385,0.10510645806789398,-0.012964850291609764,-0.2625785768032074,0.653459906578064,-0.3094067871570587,-9.5375394821167
1745661677.9326296,0.12436851114034653,-0.007640934083610773,-0.2590523958206177,0.6000322103500366,-0.5605651140213013,-9.7816743850708
1745661677.9349413,0.13453459739685059,-0.0035827565006911755,-0.2571652829647064,0.7330032587051392,-0.5507087707519531,-9.768842697143555
1745661677.970679,0.11352457851171494,-0.024894705042243004,-0.2546364963054657,0.8024498224258423,-0.7999520301818848,-9.668344497680664
1745661677.9708269,0.12363952398300171,-0.01174958236515522,-0.25432100892066956,0.8214605450630188,-0.6177998781204224,-9.72217082977295
1745661677.9722924,0.0929761528968811,-0.028371166437864304,-0.26035892963409424,0.7705792784690857,-0.6898609399795532,-9.920683860778809
1745661677.9731116,0.09855683147907257,-0.027454892173409462,-0.2643040120601654,0.6355558037757874,-0.5652309656143188,-9.848356246948242
1745661677.9829972,0.05857788771390915,-0.02735152281820774,-0.26799362897872925,0.8390868306159973,-0.7660174369812012,-9.586371421813965
1745661678.0138297,0.0726914256811142,-0.04006584733724594,-0.26815515756607056,0.5233477354049683,-0.5967860221862793,-9.684957504272461
1745661678.0187185,0.0592833049595356,-0.03231740742921829,-0.2709282338619232,0.6476880311965942,-0.56281578540802,-9.731228828430176
1745661678.0189743,0.0641925185918808,-0.03479694202542305,-0.2691546380519867,0.7064966559410095,-0.5297261476516724,-9.741625785827637
1745661678.0190895,0.0948345810174942,-0.03199473395943642,-0.2647760510444641,0.5693649053573608,-0.36459749937057495,-9.738954544067383
1745661678.0526242,0.08541716635227203,-0.04784977436065674,-0.2641754448413849,0.7625908255577087,-0.48696890473365784,-9.780638694763184
1745661678.0547986,0.0570564940571785,-0.0546550527215004,-0.2931099236011505,0.4387252926826477,-0.4277781546115875,-9.726068496704102
1745661678.056427,0.04569073021411896,-0.05297733470797539,-0.2915654182434082,0.5077389478683472,-0.6804820895195007,-9.720010757446289
1745661678.0577953,0.05769032984972,-0.05881764739751816,-0.29051893949508667,0.5329527258872986,-0.6603577733039856,-9.881680488586426
1745661678.0957115,0.05605403706431389,-0.045927539467811584,-0.28856900334358215,0.4847028851509094,-0.7687278389930725,-9.928622245788574
1745661678.100204,0.05098438262939453,-0.05423061177134514,-0.28780850768089294,0.6045533418655396,-0.8774887323379517,-9.765179634094238
1745661678.1033587,0.052577413618564606,-0.051155172288417816,-0.2899465560913086,0.4743880331516266,-0.5914561152458191,-9.669275283813477
1745661678.1079183,0.02878027781844139,-0.05106080695986748,-0.2912379205226898,0.5513767004013062,-0.870871365070343,-9.849087715148926
1745661678.1103747,0.04316314682364464,-0.049008678644895554,-0.2946152687072754,0.43553417921066284,-0.5685490369796753,-9.876648902893066
1745661678.1393046,0.018887583166360855,-0.044677626341581345,-0.3007360100746155,0.5762920379638672,-0.7950865030288696,-9.73028564453125
1745661678.1405556,0.026174267753958702,-0.051604826003313065,-0.29794472455978394,0.5156737565994263,-0.7340599894523621,-9.715476036071777
1745661678.1417513,0.025513112545013428,-0.03994224965572357,-0.2968481183052063,0.41104140877723694,-0.6996846199035645,-9.869977951049805
1745661678.1443663,0.02146151475608349,-0.04691890999674797,-0.29578784108161926,0.595003068447113,-0.770637035369873,-9.85125732421875
1745661678.1830637,0.04411541298031807,-0.03733514994382858,-0.2935892939567566,0.39662232995033264,-0.5422385931015015,-9.740249633789062
1745661678.1832514,0.03569114953279495,-0.045200150460004807,-0.2934841513633728,0.6416600942611694,-0.6967244148254395,-9.721635818481445
1745661678.184988,0.05193522572517395,-0.04500941187143326,-0.2937396168708801,0.4027290940284729,-0.4711844027042389,-9.905633926391602
1745661678.190347,0.04216030240058899,-0.036155540496110916,-0.2959901690483093,0.5311726331710815,-0.8306480646133423,-9.895406723022461
1745661678.1926188,0.0499742329120636,-0.04281892254948616,-0.296904981136322,0.45026493072509766,-0.642285168170929,-9.642090797424316
1745661678.229025,0.033702459186315536,-0.03128042072057724,-0.29995933175086975,0.4542214870452881,-0.8089377284049988,-9.693137168884277
1745661678.2291262,0.02782725729048252,-0.0379071980714798,-0.30035343766212463,0.6003568768501282,-0.8249683380126953,-9.856666564941406
1745661678.2292256,0.0365777425467968,-0.03208644315600395,-0.3024228513240814,0.45328187942504883,-0.6688533425331116,-9.869157791137695
1745661678.2300835,0.014589561149477959,-0.03788233548402786,-0.3012295365333557,0.6809823513031006,-0.8889633417129517,-9.766982078552246
1745661678.2681978,0.03370707482099533,-0.0337500236928463,-0.30061978101730347,0.4136642515659332,-0.6105214357376099,-9.815237045288086
1745661678.2693958,0.014161238446831703,-0.03233262151479721,-0.29856958985328674,0.5061758756637573,-0.8636139035224915,-9.791035652160645
1745661678.273721,0.03216471150517464,-0.03618744760751724,-0.299369752407074,0.4953744411468506,-0.6218687295913696,-9.831369400024414
1745661678.2781708,0.034790199249982834,-0.02453964576125145,-0.3002374768257141,0.4007018208503723,-0.627842128276825,-9.831960678100586
1745661678.3113542,0.02387077920138836,-0.028528403490781784,-0.302398145198822,0.5249696969985962,-0.8693024516105652,-9.719549179077148
1745661678.3127003,0.03791153058409691,-0.02905697003006935,-0.30233654379844666,0.4017418324947357,-0.6220935583114624,-9.661273002624512
1745661678.316081,0.006367102265357971,-0.026889164000749588,-0.30345720052719116,0.7017935514450073,-0.9452988505363464,-9.803971290588379
1745661678.3173661,0.02732977643609047,-0.024547720327973366,-0.30140432715415955,0.4969971179962158,-0.6960581541061401,-9.876285552978516
1745661678.3222766,0.008706754073500633,-0.02244291827082634,-0.3039664626121521,0.5288898944854736,-0.801415741443634,-9.72004508972168
1745661678.3550806,0.013474765233695507,-0.02930891513824463,-0.3026868402957916,0.5892800092697144,-0.7811749577522278,-9.709218978881836
1745661678.3560126,0.017762325704097748,-0.022998472675681114,-0.30117863416671753,0.40496426820755005,-0.6967566013336182,-9.925762176513672
1745661678.35789,0.012845615856349468,-0.026962745934724808,-0.30067622661590576,0.5354466438293457,-0.7081174254417419,-9.803848266601562
1745661678.3665044,0.018334539607167244,-0.019097086042165756,-0.3030504286289215,0.31655463576316833,-0.5907987952232361,-9.629059791564941
1745661678.3976834,0.014136712066829205,-0.021785002201795578,-0.30194851756095886,0.5489170551300049,-0.8638311624526978,-9.620018005371094
1745661678.4005735,0.026204656809568405,-0.024994848296046257,-0.3031415045261383,0.46200689673423767,-0.5373147130012512,-9.772796630859375
1745661678.4029298,0.0014265287900343537,-0.01774914748966694,-0.306039422750473,0.553848922252655,-0.9175378680229187,-9.689168930053711
1745661678.4034326,0.01953139528632164,-0.01353207416832447,-0.3052827715873718,0.39117303490638733,-0.5542174577713013,-9.684781074523926
1745661678.4409716,-0.0009174053557217121,-0.01512984000146389,-0.30505961179733276,0.5696796178817749,-0.8987265825271606,-9.774595260620117
1745661678.4463265,0.008921615779399872,-0.018878336995840073,-0.305072546005249,0.5074984431266785,-0.6177043914794922,-9.753132820129395
1745661678.446948,0.004162418190389872,-0.011771490797400475,-0.3056866228580475,0.4484651982784271,-0.8117917776107788,-9.769716262817383
1745661678.459561,0.005017220973968506,-0.021623799577355385,-0.30552124977111816,0.517014741897583,-0.6624528765678406,-9.680790901184082
1745661678.4921668,0.0016145814443007112,-0.013699578121304512,-0.3073463439941406,0.41118860244750977,-0.6800720691680908,-9.761731147766113
1745661678.4923563,-0.0009093444678001106,-0.019173072651028633,-0.3061985969543457,0.5672438740730286,-0.8254827260971069,-9.797250747680664
1745661678.4924703,0.017492450773715973,-0.01754528097808361,-0.30383867025375366,0.3162956237792969,-0.5147367715835571,-9.696513175964355
1745661678.492547,0.0011259143939241767,-0.01425480842590332,-0.3061537444591522,0.5740039348602295,-0.7683604955673218,-9.663148880004883
1745661678.4926207,0.02458968386054039,-0.01775169000029564,-0.3046986162662506,0.45762795209884644,-0.5413229465484619,-9.62508773803711
1745661678.525978,0.014014936983585358,-0.013767068274319172,-0.30295777320861816,0.48169469833374023,-0.6868427991867065,-9.790468215942383
1745661678.5289516,0.024431418627500534,-0.01725756749510765,-0.30540433526039124,0.5042306184768677,-0.6704955101013184,-9.824888229370117
1745661678.5290527,0.025807488709688187,-0.012557340785861015,-0.304379403591156,0.34446510672569275,-0.6732979416847229,-9.765932083129883
1745661678.5320647,0.0140345748513937,-0.01945655420422554,-0.30364587903022766,0.5797799229621887,-0.8043996095657349,-9.637735366821289
1745661678.5677307,0.012582610361278057,-0.016993775963783264,-0.30467647314071655,0.38684529066085815,-0.7076041102409363,-9.732622146606445
1745661678.5699124,0.008913266472518444,-0.013379992917180061,-0.30383431911468506,0.5490036010742188,-0.9265220761299133,-9.85918140411377
1745661678.5719993,0.014551671221852303,-0.019147595390677452,-0.30463871359825134,0.4457133412361145,-0.5291461944580078,-9.645683288574219
1745661678.5721462,0.004082003142684698,-0.011190032586455345,-0.303321897983551,0.4948362410068512,-0.8202263116836548,-9.72375202178955
1745661678.5741713,0.017219794914126396,-0.020523080602288246,-0.3037734031677246,0.5350691676139832,-0.6119204759597778,-9.839208602905273
1745661678.612536,0.022779352962970734,-0.017380796372890472,-0.3022230267524719,0.3807956278324127,-0.6002516746520996,-9.838627815246582
1745661678.6236274,0.017968202009797096,-0.016528183594346046,-0.3035092055797577,0.49280261993408203,-0.7197660207748413,-9.631067276000977
1745661678.624103,0.03786230832338333,-0.014178181067109108,-0.3037085235118866,0.32261937856674194,-0.4304586350917816,-9.61091423034668
1745661678.6259847,0.02238793484866619,-0.018076535314321518,-0.30447036027908325,0.607168436050415,-0.8226048350334167,-9.75471019744873
1745661678.6546657,0.038680754601955414,-0.018064487725496292,-0.3042876124382019,0.43161773681640625,-0.5969969034194946,-9.853768348693848
1745661678.6580698,0.025341814383864403,-0.012967695482075214,-0.30271148681640625,0.5566691160202026,-0.9492971301078796,-9.8160400390625
1745661678.6595716,0.022345896810293198,-0.020631009712815285,-0.30237409472465515,0.4534440040588379,-0.698578953742981,-9.679807662963867
1745661678.6639144,0.01482661534100771,-0.013058292679488659,-0.30314069986343384,0.4048863351345062,-0.8310612440109253,-9.74748706817627
1745661678.66633,0.018297594040632248,-0.017600486055016518,-0.3035357594490051,0.5287014245986938,-0.7037996053695679,-9.703405380249023
1745661678.6974733,0.025477204471826553,-0.014436188153922558,-0.30431312322616577,0.34779664874076843,-0.5562058687210083,-9.667566299438477
1745661678.7014213,0.009586713276803493,-0.013936084695160389,-0.3051109313964844,0.6174299716949463,-0.8094006776809692,-9.756362915039062
1745661678.716971,0.03700196370482445,-0.014257733710110188,-0.3050921559333801,0.3159095048904419,-0.5290802717208862,-9.807563781738281
1745661678.7182724,0.017298074439167976,-0.01285012997686863,-0.30360257625579834,0.49768733978271484,-0.8678299188613892,-9.810972213745117
1745661678.7408407,0.03346632793545723,-0.014718947000801563,-0.3040248155593872,0.43082132935523987,-0.6549254655838013,-9.688100814819336
1745661678.7409585,0.024834342300891876,-0.013393931090831757,-0.30142882466316223,0.46387824416160583,-0.827846884727478,-9.823927879333496
1745661678.7410398,0.02223803661763668,-0.02182106301188469,-0.30285418033599854,0.5948706865310669,-0.7663470506668091,-9.794473648071289
1745661678.764573,0.003920135088264942,-0.010665307752788067,-0.2950131893157959,0.5077356696128845,-0.8521608114242554,-9.703716278076172
1745661678.7879367,-0.0003603581280913204,-0.01969504915177822,-0.2926340103149414,0.5960285067558289,-0.8377024531364441,-9.868196487426758
1745661678.788964,0.014113557524979115,-0.013987509533762932,-0.2920878827571869,0.2936114966869354,-0.5969787836074829,-9.883984565734863
1745661678.7890368,8.019339475140441e-06,-0.016166556626558304,-0.29476693272590637,0.465597540140152,-0.7467896342277527,-9.65464973449707
1745661678.7890992,0.025516128167510033,-0.012409083545207977,-0.2938471734523773,0.31065434217453003,-0.4150124192237854,-9.586565017700195
1745661678.8266752,0.009313835762441158,-0.01869237795472145,-0.29571405053138733,0.531446635723114,-0.7636537551879883,-9.815226554870605
1745661678.8419974,0.027291635051369667,-0.017900750041007996,-0.2950366139411926,0.40048080682754517,-0.5218397974967957,-9.917839050292969
1745661678.8421023,0.021821191534399986,-0.009364145807921886,-0.2960089147090912,0.3940409719944,-0.8552041053771973,-9.790901184082031
1745661678.8421724,0.023841390386223793,-0.01867033913731575,-0.2950434982776642,0.4991978704929352,-0.7424343824386597,-9.516202926635742
1745661678.8422365,0.013182660564780235,-0.012665556743741035,-0.29269856214523315,0.4566068649291992,-0.8050276637077332,-9.762174606323242
1745661678.881658,0.008698870427906513,-0.018389858305454254,-0.29329127073287964,0.5610352754592896,-0.8815897107124329,-9.981534004211426
1745661678.8818047,0.023346204310655594,-0.010504543781280518,-0.29328441619873047,0.30373603105545044,-0.5996382832527161,-9.711191177368164
1745661678.881857,-0.005397759843617678,-0.013445593416690826,-0.29357391595840454,0.5693706274032593,-0.8973263502120972,-9.526158332824707
1745661678.8822212,0.014714929275214672,-0.018103575333952904,-0.2935912013053894,0.35624995827674866,-0.5913496017456055,-9.742907524108887
1745661678.913634,0.0029450934380292892,-0.010252800770103931,-0.2945980429649353,0.33352556824684143,-0.7085853815078735,-9.94560432434082
1745661678.916001,0.015823334455490112,-0.01204102672636509,-0.29450723528862,0.39607560634613037,-0.6243042945861816,-9.697360038757324
1745661678.9184089,0.015283417887985706,-0.00846187211573124,-0.29375094175338745,0.38474783301353455,-0.6656101942062378,-9.578691482543945
1745661678.920229,0.009405529126524925,-0.02131047286093235,-0.29496780037879944,0.6193991303443909,-0.7588623762130737,-9.763136863708496
1745661678.9210348,0.015597036108374596,-0.011127681471407413,-0.2931389808654785,0.37538984417915344,-0.7074917554855347,-10.025136947631836
1745661678.9637418,0.010360928252339363,-0.011040114797651768,-0.2919856607913971,0.53965824842453,-0.9225057363510132,-9.716161727905273
1745661678.963824,0.015355123206973076,-0.013837641105055809,-0.29101938009262085,0.435311496257782,-0.6177366375923157,-9.418489456176758
1745661678.9696467,0.0022901813499629498,-0.012666000053286552,-0.291361540555954,0.5319793820381165,-0.8178902864456177,-9.828228950500488
1745661678.969775,0.0149006936699152,-0.015523402020335197,-0.29096460342407227,0.43900933861732483,-0.6073464155197144,-10.061358451843262
1745661678.99934,0.018546178936958313,-0.007864625193178654,-0.29336318373680115,0.2761354148387909,-0.5868514776229858,-9.708274841308594
1745661679.0084727,0.008974340744316578,-0.015324818901717663,-0.2937540113925934,0.45015949010849,-0.7466831207275391,-9.369450569152832
1745661679.00862,0.026439210399985313,-0.012391936965286732,-0.29457515478134155,0.3385535776615143,-0.5255377292633057,-9.745172500610352
1745661679.0087137,0.007255037780851126,-0.012342135421931744,-0.29408085346221924,0.5837901830673218,-0.9485902786254883,-10.042367935180664
1745661679.0087998,0.02619371935725212,-0.010158483870327473,-0.29240718483924866,0.3996334969997406,-0.6844236254692078,-9.774988174438477
1745661679.051757,0.01106990221887827,-0.010142970830202103,-0.2882921099662781,0.5112377405166626,-0.9562113881111145,-9.511268615722656
1745661679.0519269,0.010474732145667076,-0.019669461995363235,-0.2880905270576477,0.4299736022949219,-0.6985820531845093,-9.764050483703613
1745661679.0584974,0.005396449472755194,-0.008869830518960953,-0.2873598337173462,0.40708690881729126,-0.7642239928245544,-10.010957717895508
1745661679.0585861,0.008712095208466053,-0.011858917772769928,-0.28924456238746643,0.4894416928291321,-0.7078793048858643,-9.64379596710205
1745661679.0870204,0.019763067364692688,-0.012897491455078125,-0.29103201627731323,0.2913161516189575,-0.5325769186019897,-9.461146354675293
1745661679.0915246,0.0007657231180928648,-0.012843118980526924,-0.2912187874317169,0.5094712972640991,-0.7563102841377258,-9.786152839660645
1745661679.0974405,0.024035504087805748,-0.009329183958470821,-0.2905029058456421,0.2946457862854004,-0.5600985288619995,-9.928727149963379
1745661679.100608,0.009048380888998508,-0.0063620880246162415,-0.2904364764690399,0.5017711520195007,-0.8415031433105469,-9.708734512329102
1745661679.1285412,0.010808415710926056,-0.01563909277319908,-0.284892201423645,0.5181876420974731,-0.8872151374816895,-9.745221138000488
1745661679.1328053,0.017406970262527466,-0.01889013685286045,-0.28754788637161255,0.3474080562591553,-0.5264076590538025,-9.771060943603516
1745661679.1351616,0.004709995351731777,-0.010225662961602211,-0.2868688702583313,0.46063512563705444,-0.8834981918334961,-9.801850318908691
1745661679.1365788,0.011129651218652725,-0.017117395997047424,-0.2887749671936035,0.5088847875595093,-0.6555300951004028,-9.613543510437012
1745661679.1735504,0.002020288724452257,-0.012546616606414318,-0.288280189037323,0.4326462745666504,-0.7339959740638733,-9.741643905639648
1745661679.1746368,-0.006917680613696575,-0.017498698085546494,-0.28716298937797546,0.5852442979812622,-0.8726117014884949,-9.91767692565918
1745661679.1775894,0.010422967374324799,-0.012742084451019764,-0.2872668504714966,0.251228004693985,-0.5798987150192261,-9.778264999389648
1745661679.1931336,-0.006571477744728327,-0.015938550233840942,-0.2855547368526459,0.5263334512710571,-0.8486326932907104,-9.657215118408203
1745661679.193276,0.014819687232375145,-0.017641128972172737,-0.28802329301834106,0.369554340839386,-0.4642501473426819,-9.687688827514648
1745661679.2260787,0.005069690756499767,-0.013834677636623383,-0.2851793169975281,0.4486962854862213,-0.7816207408905029,-9.878660202026367
1745661679.2261941,0.01249142549932003,-0.01955558732151985,-0.2884339690208435,0.42829370498657227,-0.5647140741348267,-9.761998176574707
1745661679.226274,0.008434451185166836,-0.009549340233206749,-0.28924986720085144,0.3411031663417816,-0.8124168515205383,-9.651305198669434
1745661679.226332,0.0074134343303740025,-0.018278051167726517,-0.2884226143360138,0.5257253646850586,-0.7530312538146973,-9.698198318481445
1745661679.2642586,0.0003114324063062668,-0.015207448974251747,-0.287743479013443,0.4167448580265045,-0.6780046224594116,-9.901188850402832
1745661679.2643359,-0.007749976124614477,-0.016929510980844498,-0.28669223189353943,0.520794153213501,-0.932857871055603,-9.844690322875977
1745661679.2654614,0.004879686515778303,-0.016843285411596298,-0.2874171733856201,0.30898499488830566,-0.5893179178237915,-9.630876541137695
1745661679.2671518,-0.011867870576679707,-0.013234454207122326,-0.288762629032135,0.503571093082428,-0.7411895990371704,-9.622719764709473
1745661679.2672443,0.0005606773192994297,-0.01820160448551178,-0.29040470719337463,0.45770376920700073,-0.6004993319511414,-9.796789169311523
1745661679.3043575,0.002076865639537573,-0.01072606723755598,-0.2883370816707611,0.38015758991241455,-0.6062567830085754,-9.85405158996582
1745661679.3208225,0.0036570460069924593,-0.018785085529088974,-0.28883010149002075,0.5149199962615967,-0.7332188487052917,-9.745954513549805
1745661679.3209302,0.018236258998513222,-0.012372566387057304,-0.28769123554229736,0.30504536628723145,-0.6697218418121338,-9.747642517089844
1745661679.320981,0.005772935692220926,-0.019467998296022415,-0.28641965985298157,0.5655282139778137,-0.8373087048530579,-9.769153594970703
1745661679.3740363,0.0075086019933223724,-0.017306599766016006,-0.2840527892112732,0.33644166588783264,-0.6337432861328125,-9.851481437683105
1745661679.3763611,-0.003154803765937686,-0.016366424039006233,-0.2874637544155121,0.4285169243812561,-0.8230369687080383,-9.809087753295898
1745661679.3764336,-0.010884943418204784,-0.018232304602861404,-0.28656822443008423,0.5193896889686584,-0.8053839802742004,-9.907743453979492
1745661679.3764894,-0.004279324319213629,-0.014459261670708656,-0.28684312105178833,0.23165416717529297,-0.6404868960380554,-9.795511245727539
1745661679.3906453,-0.017624281346797943,-0.018548335880041122,-0.2880043089389801,0.5081413984298706,-0.810315728187561,-9.57937240600586
1745661679.3907077,0.0014967086026445031,-0.017475668340921402,-0.28743505477905273,0.39284664392471313,-0.4790225923061371,-9.732305526733398
1745661679.3962283,-0.008433042094111443,-0.019835183396935463,-0.2861804962158203,0.547913670539856,-0.7879630327224731,-9.904104232788086
1745661679.3970513,0.008060851134359837,-0.01802518405020237,-0.285319060087204,0.43259161710739136,-0.528130054473877,-9.770147323608398
1745661679.4279637,0.0036462184507399797,-0.014060976915061474,-0.2858162224292755,0.3898795545101166,-0.8200576901435852,-9.635137557983398
1745661679.4317024,0.009074969217181206,-0.023072706535458565,-0.2821013629436493,0.4380033016204834,-0.6308088302612305,-9.671838760375977
1745661679.435307,0.007519766688346863,-0.015790171921253204,-0.2838459610939026,0.3414032459259033,-0.5639604926109314,-9.885760307312012
1745661679.4437504,0.0043866573832929134,-0.01652732864022255,-0.2846446633338928,0.4892043173313141,-0.7348974347114563,-9.802536010742188
1745661679.4438133,0.01760353147983551,-0.017793674021959305,-0.2873394787311554,0.3023403286933899,-0.5004389882087708,-9.582071304321289
1745661679.4717624,-0.0050872922874987125,-0.018346551805734634,-0.28715139627456665,0.6076833009719849,-0.844889760017395,-9.655634880065918
1745661679.4754653,0.016713494434952736,-0.014767995104193687,-0.28737959265708923,0.23939161002635956,-0.5679291486740112,-9.703330039978027
1745661679.4773786,0.00486759003251791,-0.020321723073720932,-0.28715744614601135,0.5441560745239258,-0.8235380053520203,-9.72407341003418
1745661679.4791741,0.015778370201587677,-0.018067380413413048,-0.28764328360557556,0.3485887944698334,-0.5254356265068054,-9.8486328125
1745661679.514544,0.00770042696967721,-0.016925228759646416,-0.2870770990848541,0.5467962026596069,-0.8369358777999878,-9.853184700012207
1745661679.5310378,0.00838339515030384,-0.023796886205673218,-0.2889041602611542,0.3999400734901428,-0.5469469428062439,-9.721292495727539
1745661679.531148,0.0038877874612808228,-0.013782339170575142,-0.2857345938682556,0.4081087112426758,-0.8289201855659485,-9.758646011352539
1745661679.5312052,0.006834047380834818,-0.020956967025995255,-0.28695279359817505,0.4629899561405182,-0.6754768490791321,-9.67671012878418
1745661679.5312536,0.007265273481607437,-0.015965266153216362,-0.28672662377357483,0.3229779601097107,-0.59916752576828,-9.731471061706543
1745661679.5608249,-0.0019283413421362638,-0.018585925921797752,-0.2874874770641327,0.5756596922874451,-0.7174867987632751,-9.807723999023438
1745661679.5623717,0.01938660815358162,-0.01702953316271305,-0.28730377554893494,0.24239957332611084,-0.3706901967525482,-9.781365394592285
1745661679.5635371,0.006929344497621059,-0.017527051270008087,-0.28765660524368286,0.5028915405273438,-0.6997745633125305,-9.729169845581055
1745661679.5754824,0.02665608748793602,-0.01656142622232437,-0.2892192006111145,0.371695339679718,-0.4342814087867737,-9.733240127563477
1745661679.6100621,0.0203920379281044,-0.016076603904366493,-0.2877858877182007,0.4191818833351135,-0.7823848724365234,-9.84562873840332
1745661679.6173341,0.025026049464941025,-0.02146371826529503,-0.28678664565086365,0.5114257335662842,-0.6345095634460449,-9.731850624084473
1745661679.6174583,0.02074066922068596,-0.014559922739863396,-0.2863014042377472,0.32893505692481995,-0.7664152979850769,-9.728002548217773
1745661679.6175377,0.01875191554427147,-0.01591850444674492,-0.28485262393951416,0.47942113876342773,-0.749315619468689,-9.697669982910156
1745661679.6444778,0.020758965983986855,-0.014760682359337807,-0.2857956886291504,0.38966232538223267,-0.49304255843162537,-9.73736572265625
1745661679.6464841,0.01041683740913868,-0.01486709713935852,-0.28868597745895386,0.5114083290100098,-0.813402533531189,-9.857704162597656
1745661679.6497574,0.022154629230499268,-0.01699431985616684,-0.28941646218299866,0.34564608335494995,-0.5460308790206909,-9.802435874938965
1745661679.6520255,0.010290278121829033,-0.016004551202058792,-0.29050272703170776,0.3881235718727112,-0.7473867535591125,-9.660358428955078
1745661679.6572642,0.011628901585936546,-0.016725189983844757,-0.2893679440021515,0.4099007248878479,-0.6860339641571045,-9.66247844696045
1745661679.6995904,0.01386379636824131,-0.010480090044438839,-0.2897644639015198,0.3121459484100342,-0.6445215940475464,-9.794809341430664
1745661679.699691,0.008915778249502182,-0.017194001004099846,-0.28932151198387146,0.6098318696022034,-0.7492980360984802,-9.789340019226074
1745661679.7011292,0.014551287516951561,-0.023208048194646835,-0.28758731484413147,0.2963281273841858,-0.4997357428073883,-9.77351188659668
1745661679.7011912,0.006981591694056988,-0.01376464031636715,-0.2874681055545807,0.41091614961624146,-0.8131939768791199,-9.749361038208008
1745661679.735567,0.02018648199737072,-0.019818514585494995,-0.28752049803733826,0.3787684738636017,-0.4692927300930023,-9.585745811462402
1745661679.7356946,0.015279889106750488,-0.01313704252243042,-0.2884806990623474,0.3539864122867584,-0.5895318984985352,-9.701611518859863
1745661679.735774,0.009911914356052876,-0.01711186394095421,-0.29078763723373413,0.5274737477302551,-0.6681598424911499,-9.787330627441406
1745661679.7466936,0.029083019122481346,-0.013750731945037842,-0.29192349314689636,0.2818729877471924,-0.5147498846054077,-9.841568946838379
1745661679.7757201,0.007417422719299793,-0.017681308090686798,-0.2901913523674011,0.5431861281394958,-0.8423380851745605,-9.785562515258789
1745661679.7758188,0.028873050585389137,-0.014486642554402351,-0.28944095969200134,0.3447858691215515,-0.5556043386459351,-9.740246772766113
1745661679.7790856,0.012129072099924088,-0.015511779114603996,-0.2881016135215759,0.4858292043209076,-0.8944538235664368,-9.746747016906738
1745661679.7791579,0.019719770178198814,-0.017612123861908913,-0.28518980741500854,0.4356917440891266,-0.57355135679245,-9.705673217773438
1745661679.7791998,0.016234854236245155,-0.012159356847405434,-0.2875421643257141,0.37349551916122437,-0.7918227910995483,-9.77853012084961
1745661679.8209076,0.01972719095647335,-0.017372166737914085,-0.2847256362438202,0.4186784625053406,-0.5672908425331116,-9.742021560668945
1745661679.8209517,0.018939688801765442,-0.011264706030488014,-0.28849512338638306,0.3260401487350464,-0.530369758605957,-9.790109634399414
1745661679.82944,0.004310213960707188,-0.01931941695511341,-0.2850514352321625,0.49634867906570435,-0.8288663029670715,-9.722516059875488
1745661679.8325813,0.020363815128803253,-0.021865656599402428,-0.2843243479728699,0.42168259620666504,-0.5493237376213074,-9.951177597045898
1745661679.8709743,0.01866675540804863,-0.01641237363219261,-0.28673070669174194,0.3800049126148224,-0.654682993888855,-9.886103630065918
1745661679.8711774,0.020110303536057472,-0.020501485094428062,-0.28296560049057007,0.44305306673049927,-0.703036904335022,-9.5423583984375
1745661679.87124,0.03147488087415695,-0.015684282407164574,-0.28582021594047546,0.3304130434989929,-0.531586766242981,-9.585474014282227
1745661679.8712888,0.01183816883713007,-0.02173229306936264,-0.2841147482395172,0.5687509775161743,-0.8099433779716492,-9.848386764526367
1745661679.904491,0.03238074108958244,-0.016364263370633125,-0.2860032916069031,0.3219563364982605,-0.5445760488510132,-9.907282829284668
1745661679.904637,0.01627015694975853,-0.01575678586959839,-0.28488677740097046,0.5076166987419128,-0.8584300875663757,-9.685266494750977
1745661679.9051495,0.01870672032237053,-0.02511736750602722,-0.2853422164916992,0.3481931686401367,-0.5529079437255859,-9.668858528137207
1745661679.907629,0.00686229020357132,-0.017424430698156357,-0.28913193941116333,0.4922873377799988,-0.8360627889633179,-9.924237251281738
1745661679.9096537,0.014154402539134026,-0.023472920060157776,-0.28686994314193726,0.43275895714759827,-0.6430138349533081,-9.826974868774414
1745661679.9472723,0.014813905581831932,-0.014198550954461098,-0.28680676221847534,0.3471870720386505,-0.7114726901054382,-9.590863227844238
1745661679.9473996,-0.00216425652615726,-0.022933349013328552,-0.28538504242897034,0.5667197108268738,-0.7626491785049438,-9.633135795593262
1745661679.948746,0.02264219895005226,-0.018473342061042786,-0.2857379913330078,0.2801228165626526,-0.5212283134460449,-9.934613227844238
1745661679.9573548,0.0061540016904473305,-0.018391821533441544,-0.28570660948753357,0.5045028924942017,-0.7037325501441956,-9.90848445892334
1745661679.988825,0.03140639513731003,-0.0184815414249897,-0.28740113973617554,0.3057939410209656,-0.44084006547927856,-9.593281745910645
1745661680.0034313,0.01644454523921013,-0.021302126348018646,-0.28682607412338257,0.4322488307952881,-0.7098844647407532,-9.660566329956055
1745661680.00357,0.02554434910416603,-0.024061428382992744,-0.288452684879303,0.4715009331703186,-0.5837107300758362,-9.89380931854248
1745661680.0036497,0.020536433905363083,-0.016372470185160637,-0.2885958254337311,0.372657835483551,-0.8166550397872925,-9.919572830200195
1745661680.0039408,0.016230594366788864,-0.019996624439954758,-0.2853783369064331,0.47562989592552185,-0.7695468664169312,-9.571585655212402
1745661680.0395586,0.017140790820121765,-0.016401270404458046,-0.2876826822757721,0.3537420332431793,-0.6008228063583374,-9.546239852905273
1745661680.0396616,0.004894614219665527,-0.02023256942629814,-0.2852284610271454,0.54181969165802,-0.7888270616531372,-9.899282455444336
1745661680.0397387,0.026959750801324844,-0.01739402487874031,-0.2877044677734375,0.3637712895870209,-0.5386015176773071,-9.995161056518555
1745661680.0397978,0.021480001509189606,-0.01755017787218094,-0.28579258918762207,0.5183404088020325,-0.7180200815200806,-9.880300521850586
1745661680.0828362,0.03422922268509865,-0.010622025467455387,-0.28434890508651733,0.35502731800079346,-0.6437535285949707,-9.802038192749023
1745661680.0830505,0.01979881152510643,-0.021593164652585983,-0.2846550941467285,0.5467175245285034,-0.8914762735366821,-9.705362319946289
1745661680.0831141,0.024848392233252525,-0.020001940429210663,-0.28224706649780273,0.3114919066429138,-0.6176209449768066,-9.806547164916992
1745661680.0831625,0.009000060148537159,-0.013141097500920296,-0.2820885181427002,0.47608479857444763,-0.8600553274154663,-9.837010383605957
1745661680.126127,0.022455057129263878,-0.01906861737370491,-0.2831815183162689,0.4031900465488434,-0.552424430847168,-9.612571716308594
1745661680.1261935,0.018650006502866745,-0.013890326023101807,-0.2830251157283783,0.41842252016067505,-0.6594319343566895,-9.693239212036133
1745661680.1416788,0.012024017982184887,-0.01873166486620903,-0.28368982672691345,0.49976539611816406,-0.6242258548736572,-9.855719566345215
1745661680.1418512,0.03267992287874222,-0.012935479171574116,-0.28365129232406616,0.22129321098327637,-0.5723926424980164,-9.836271286010742
1745661680.1419778,0.01713196560740471,-0.018080633133649826,-0.2820436656475067,0.4979316294193268,-0.7123040556907654,-9.64708137512207
1745661680.1608078,0.04139766842126846,-0.016877416521310806,-0.2825656831264496,0.34543246030807495,-0.5364540219306946,-9.754000663757324
1745661680.1627798,0.02520892582833767,-0.017429988831281662,-0.28212833404541016,0.46708789467811584,-0.7918394207954407,-9.88577651977539
1745661680.168691,0.03789447620511055,-0.019565925002098083,-0.2813149690628052,0.38057923316955566,-0.5553148984909058,-9.75462532043457
1745661680.1688344,0.01300957053899765,-0.014622801914811134,-0.2768259346485138,0.3376690447330475,-0.7123335003852844,-9.581868171691895
1745661680.2161648,0.0028089494444429874,-0.01954321563243866,-0.27627435326576233,0.4959638714790344,-0.789913535118103,-9.853841781616211
1745661680.216283,0.018779907375574112,-0.013318981043994427,-0.2793688178062439,0.3593137562274933,-0.5882071256637573,-9.883702278137207
1745661680.2163804,-0.005582798272371292,-0.010996178723871708,-0.27880316972732544,0.4590817093849182,-0.8420788645744324,-9.642118453979492
1745661680.2164533,0.0018622127827256918,-0.018064694479107857,-0.277980238199234,0.381828635931015,-0.7479552626609802,-9.668159484863281
1745661680.2585752,2.4041999495238997e-05,-0.015733608976006508,-0.2773807942867279,0.38548311591148376,-0.72376948595047,-9.899429321289062
1745661680.258669,-0.007144915871322155,-0.01702824980020523,-0.27553626894950867,0.4088935852050781,-0.7188390493392944,-9.895009994506836
1745661680.258719,0.012464051134884357,-0.0077535295858979225,-0.28014856576919556,0.3272170424461365,-0.5564740300178528,-9.615584373474121
1745661680.2587671,-0.0076048471964895725,-0.02067076414823532,-0.2771119773387909,0.5194052457809448,-0.6966666579246521,-9.520509719848633
1745661680.2588043,0.012632528319954872,-0.013383889570832253,-0.27883702516555786,0.348243772983551,-0.5208329558372498,-9.900041580200195
1745661680.3070004,0.00093220139387995,-0.014867921359837055,-0.27741366624832153,0.47232359647750854,-0.8168619871139526,-9.975379943847656
1745661680.3071685,0.01391663122922182,-0.013983076438307762,-0.2783576548099518,0.2795873284339905,-0.5609762668609619,-9.658307075500488
1745661680.3072355,-0.003451502649113536,-0.01205193717032671,-0.2767336964607239,0.4345971941947937,-0.7675092816352844,-9.596700668334961
1745661680.3072836,0.006300656590610743,-0.019284944981336594,-0.2773286700248718,0.42766064405441284,-0.6371116638183594,-9.860006332397461
1745661680.3343647,0.01319226622581482,-0.00925727654248476,-0.2780197262763977,0.3466550409793854,-0.6181769967079163,-9.88079833984375
1745661680.3467035,-0.006961739622056484,-0.017389420419931412,-0.28004392981529236,0.5221856832504272,-0.7016792893409729,-9.648624420166016
1745661680.3467686,0.0207553468644619,-0.010072723962366581,-0.2770874500274658,0.2896568775177002,-0.5851455926895142,-9.595556259155273
1745661680.347349,-0.004995403811335564,-0.013633077964186668,-0.27788859605789185,0.49866771697998047,-0.7348290085792542,-9.803915023803711
1745661680.3798077,0.020269472151994705,-0.011143958196043968,-0.28083014488220215,0.30759283900260925,-0.5731040835380554,-9.972673416137695
1745661680.3799384,0.009733932092785835,-0.0072688935324549675,-0.276283323764801,0.38328638672828674,-0.7174813151359558,-9.7681245803833
1745661680.3801007,0.010900679044425488,-0.018016083166003227,-0.27657538652420044,0.4010506272315979,-0.6149622201919556,-9.541654586791992
1745661680.383138,0.010458065196871758,-0.011027315631508827,-0.27752429246902466,0.37949448823928833,-0.7586081027984619,-9.780418395996094
1745661680.4180436,0.004247752018272877,-0.01123337633907795,-0.2758902907371521,0.4372897744178772,-0.6982812881469727,-9.949912071228027
1745661680.425507,0.010071218013763428,-0.01188016589730978,-0.27774614095687866,0.3540828824043274,-0.6408140063285828,-9.682716369628906
1745661680.425654,0.01403296273201704,-0.0068663558922708035,-0.27674779295921326,0.3451046943664551,-0.6171954274177551,-9.535774230957031
1745661680.4257264,0.003108290256932378,-0.017527516931295395,-0.2750927805900574,0.5639604330062866,-0.783007025718689,-9.722367286682129
1745661680.4281068,0.017081724479794502,-0.008096566423773766,-0.27587956190109253,0.3536798059940338,-0.6226675510406494,-10.052263259887695
1745661680.466655,0.00662763137370348,-0.013592517003417015,-0.2744934558868408,0.49895063042640686,-0.8552571535110474,-9.824289321899414
1745661680.466797,0.014550739899277687,-0.013453821651637554,-0.27014392614364624,0.25013431906700134,-0.5861057043075562,-9.586923599243164
1745661680.4668841,-0.0024792177136987448,-0.011716964654624462,-0.27304041385650635,0.46160832047462463,-0.8224207162857056,-9.691884994506836
1745661680.4699912,0.015149356797337532,-0.017561735585331917,-0.27299371361732483,0.38051536679267883,-0.5160045623779297,-9.857397079467773
1745661680.5086467,0.011907337233424187,-0.009034806862473488,-0.2759270668029785,0.35976704955101013,-0.6373308897018433,-9.806795120239258
1745661680.5087569,0.0018685322720557451,-0.014625723473727703,-0.2759283781051636,0.5088633298873901,-0.6973259449005127,-9.605070114135742
1745661680.5185578,0.021245863288640976,-0.008392125368118286,-0.27570676803588867,0.29298776388168335,-0.6417791247367859,-9.722579002380371
1745661680.5186226,-0.002044759225100279,-0.017336606979370117,-0.27388525009155273,0.5701941251754761,-0.7946270108222961,-9.910055160522461
1745661680.5626597,0.005711572244763374,-0.009842440485954285,-0.2716226875782013,0.370303750038147,-0.6536704897880554,-9.58880615234375
1745661680.5627327,0.010843997821211815,-0.016653595492243767,-0.27137675881385803,0.4816279411315918,-0.6419119834899902,-9.831646919250488
1745661680.5627947,0.015601374208927155,-0.00852479599416256,-0.2692802846431732,0.3550821840763092,-0.6875351667404175,-9.9733304977417
1745661680.5628426,0.009554639458656311,-0.016917798668146133,-0.26938945055007935,0.5080368518829346,-0.7545223236083984,-9.701367378234863
1745661680.5966122,0.011574879288673401,-0.014116359874606133,-0.26764899492263794,0.30800607800483704,-0.6356412172317505,-9.635369300842285
1745661680.598265,0.0008758269250392914,-0.013963645324110985,-0.26943063735961914,0.49351030588150024,-0.8172684907913208,-9.760141372680664
1745661680.5983803,0.014878259971737862,-0.01253837626427412,-0.2692244350910187,0.3769662380218506,-0.5024689435958862,-9.773486137390137
1745661680.5984626,0.0008558959816582501,-0.009744619019329548,-0.2710024118423462,0.4517732262611389,-0.7179969549179077,-9.742838859558105
1745661680.5985243,0.008770202286541462,-0.015825942158699036,-0.27124255895614624,0.4059474468231201,-0.5761728882789612,-9.726555824279785
1745661680.6349218,0.01945599354803562,-0.010582227259874344,-0.2693929970264435,0.28908389806747437,-0.5841284990310669,-9.81067180633545
1745661680.6376188,0.0093722864985466,-0.017120132222771645,-0.2695435583591461,0.48576492071151733,-0.6933364868164062,-9.746321678161621
1745661680.6392026,0.029840001836419106,-0.00832365546375513,-0.2687465250492096,0.30643904209136963,-0.5728362202644348,-9.761162757873535
1745661680.6472545,0.012905065901577473,-0.01773948222398758,-0.2672497630119324,0.5124248266220093,-0.7924556136131287,-9.703837394714355
1745661680.6881225,0.02755216881632805,-0.0138270677998662,-0.26593565940856934,0.3339673578739166,-0.5141036510467529,-9.740561485290527
1745661680.6882713,0.015360747464001179,-0.011947907507419586,-0.2695118188858032,0.47693556547164917,-0.873611569404602,-9.753214836120605
1745661680.688315,0.021511465311050415,-0.019141847267746925,-0.26584592461586,0.40009403228759766,-0.556223452091217,-9.749865531921387
1745661680.695133,0.006524188909679651,-0.009765857830643654,-0.26961469650268555,0.384594589471817,-0.7526975870132446,-9.854159355163574
1745661680.6951976,0.00703353201970458,-0.018435919657349586,-0.26950398087501526,0.4629550576210022,-0.7338314652442932,-9.749185562133789
1745661680.7292314,0.013561767525970936,-0.015235982835292816,-0.2683430314064026,0.28512099385261536,-0.6553266644477844,-9.694982528686523
1745661680.729295,-0.010182127356529236,-0.017382975667715073,-0.2699081003665924,0.5954194068908691,-0.7989528179168701,-9.707802772521973
1745661680.7293363,0.016583383083343506,-0.01350634079426527,-0.26692622900009155,0.30350056290626526,-0.5282516479492188,-9.794238090515137
1745661680.7293673,-0.002611920703202486,-0.01212306134402752,-0.26935943961143494,0.44975391030311584,-0.7084698677062988,-9.782571792602539
1745661680.7718568,0.019790617749094963,-0.016862574964761734,-0.2673521935939789,0.36990806460380554,-0.5174560546875,-9.679009437561035
1745661680.772033,0.0007458252948708832,-0.012145127169787884,-0.2690054774284363,0.4959433674812317,-0.8258230090141296,-9.884622573852539
1745661680.7773697,0.013805942609906197,-0.014807214960455894,-0.2675299644470215,0.4138188362121582,-0.6164860129356384,-9.812246322631836
1745661680.777446,0.009471440687775612,-0.011334316805005074,-0.2686893343925476,0.36762064695358276,-0.6812678575515747,-9.673969268798828
1745661680.808609,0.0027459003031253815,-0.021102476865053177,-0.26911625266075134,0.47076311707496643,-0.6994473934173584,-9.711931228637695
1745661680.8166347,0.01772245019674301,-0.010315868072211742,-0.26933300495147705,0.2733287513256073,-0.526910662651062,-9.856626510620117
1745661680.8203044,-5.587497798842378e-05,-0.015854690223932266,-0.2686052918434143,0.5270325541496277,-0.7972849607467651,-9.701576232910156
1745661680.8232503,0.0183379128575325,-0.016285227611660957,-0.2670893669128418,0.34234848618507385,-0.5618795156478882,-9.638513565063477
1745661680.8480327,0.006606138311326504,-0.015823258087038994,-0.26627281308174133,0.5012208223342896,-0.8192933201789856,-9.866327285766602
1745661680.857254,0.01181513350456953,-0.018649954348802567,-0.2658417820930481,0.31307846307754517,-0.592150866985321,-9.919634819030762
1745661680.8574116,0.0031589041464030743,-0.010136161930859089,-0.26618844270706177,0.407344251871109,-0.7727236747741699,-9.671056747436523
1745661680.85749,0.005559567827731371,-0.021247822791337967,-0.26781150698661804,0.47889652848243713,-0.6332843899726868,-9.541218757629395
1745661680.8934631,0.008511418476700783,-0.01646815799176693,-0.26757124066352844,0.3176528215408325,-0.5984713435173035,-9.818570137023926
1745661680.8976936,0.006631404161453247,-0.020412124693393707,-0.26724565029144287,0.3617052435874939,-0.5675874352455139,-9.789637565612793
1745661680.9031713,-0.011058203876018524,-0.015557682141661644,-0.2672733664512634,0.5182695388793945,-0.6810945272445679,-9.888952255249023
1745661680.9056017,0.003928774502128363,-0.0172579325735569,-0.26960569620132446,0.3700268864631653,-0.5162904858589172,-9.751359939575195
1745661680.937738,0.002181723713874817,-0.014124155044555664,-0.26863306760787964,0.31098809838294983,-0.533187985420227,-9.612966537475586
1745661680.9392173,0.002304351655766368,-0.021722402423620224,-0.2712837755680084,0.4750653803348541,-0.5789830088615417,-9.753275871276855
1745661680.9432461,0.012738391757011414,-0.013527323491871357,-0.2712234556674957,0.29624179005622864,-0.5422775745391846,-9.967626571655273
1745661680.9511235,0.00494261784479022,-0.01944429613649845,-0.270609587430954,0.5072454810142517,-0.759099543094635,-9.784272193908691
1745661680.9780378,0.010481039993464947,-0.019789649173617363,-0.2686554193496704,0.2644890546798706,-0.5443664193153381,-9.614862442016602
1745661680.9808614,-0.0022776152472943068,-0.015621813014149666,-0.27065950632095337,0.49907341599464417,-0.8292516469955444,-9.723472595214844
1745661680.9846408,0.0104001984000206,-0.020870838314294815,-0.26928576827049255,0.40895166993141174,-0.525023341178894,-9.802950859069824
1745661680.9888153,8.246973447967321e-05,-0.013933983631432056,-0.2701522707939148,0.4364662170410156,-0.6885712146759033,-9.827112197875977
1745661680.9920006,0.00045759446220472455,-0.017658215016126633,-0.2700539231300354,0.44864264130592346,-0.6191812753677368,-9.728724479675293
1745661681.02248,0.015278717502951622,-0.01268777810037136,-0.27045607566833496,0.2129683494567871,-0.5221026539802551,-9.695499420166016
1745661681.023745,0.0018085704650729895,-0.01969945803284645,-0.2710345387458801,0.4718123972415924,-0.6679648160934448,-9.746021270751953
1745661681.0278275,0.02039751410484314,-0.014121271669864655,-0.27275705337524414,0.3182731568813324,-0.47928890585899353,-9.84325885772705
1745661681.0348225,0.004762350581586361,-0.017866225913167,-0.27173957228660583,0.4623440206050873,-0.7569574117660522,-9.783514022827148
1745661681.0634582,0.017336174845695496,-0.017570504918694496,-0.27021127939224243,0.3409184217453003,-0.47408437728881836,-9.65920352935791
1745661681.0652173,0.009756343439221382,-0.013303818181157112,-0.2713909149169922,0.46743249893188477,-0.795126736164093,-9.76280403137207
1745661681.0670774,0.016174251213669777,-0.020490769296884537,-0.2698695659637451,0.4414340555667877,-0.5519914031028748,-9.850886344909668
1745661681.067119,0.010591143742203712,-0.009947793558239937,-0.27023106813430786,0.34582260251045227,-0.5958524346351624,-9.868353843688965
1745661681.069665,0.009487595409154892,-0.019907036796212196,-0.2713167667388916,0.4635125994682312,-0.7193201184272766,-9.656336784362793
1745661681.1157386,0.027128925547003746,-0.016227373853325844,-0.27088624238967896,0.24522146582603455,-0.467851459980011,-9.620268821716309
1745661681.1158507,0.017361612990498543,-0.017703648656606674,-0.27043527364730835,0.46077829599380493,-0.7263904809951782,-9.840795516967773
1745661681.1159837,0.020568642765283585,-0.011467226780951023,-0.2730002701282501,0.2756456434726715,-0.6219668388366699,-9.624752044677734
1745661681.116041,0.008879129774868488,-0.01902635209262371,-0.27261340618133545,0.5462976694107056,-0.7735849618911743,-9.617061614990234
1745661681.1509776,0.023351991549134254,-0.019343791529536247,-0.27384263277053833,0.3541204333305359,-0.42008352279663086,-9.846385955810547
1745661681.152763,0.008803206495940685,-0.010727130807936192,-0.27557897567749023,0.41082969307899475,-0.748775839805603,-9.957864761352539
1745661681.1546829,0.01774674467742443,-0.014918224886059761,-0.2772081196308136,0.37389659881591797,-0.6172989010810852,-9.635801315307617
1745661681.1593657,0.016286566853523254,-0.01607471890747547,-0.2785211503505707,0.3859493136405945,-0.6984468698501587,-9.648432731628418
1745661681.1594658,0.008438696153461933,-0.022222306579351425,-0.2743622660636902,0.529899001121521,-0.733013391494751,-9.88197135925293
1745661681.194895,0.02829211950302124,-0.00975615344941616,-0.2729063332080841,0.29923397302627563,-0.5657662153244019,-9.976391792297363
1745661681.197095,0.007406054530292749,-0.01574372872710228,-0.2712603807449341,0.5073539018630981,-0.8306775093078613,-9.587855339050293
1745661681.1990786,0.023833343759179115,-0.017556248232722282,-0.2723769545555115,0.34652644395828247,-0.5152707695960999,-9.528007507324219
1745661681.2025075,0.009890373796224594,-0.018232470378279686,-0.26943010091781616,0.4573473036289215,-0.7765183448791504,-10.001684188842773
1745661681.237547,0.028642648831009865,-0.015089130029082298,-0.27208206057548523,0.26893213391304016,-0.40131354331970215,-9.985750198364258
1745661681.2404037,0.015342114493250847,-0.009202552028000355,-0.27392178773880005,0.34725186228752136,-0.6676232218742371,-9.559991836547852
1745661681.242847,0.03163652494549751,-0.01383187621831894,-0.27278438210487366,0.376714289188385,-0.5878361463546753,-9.68559455871582
1745661681.244166,0.011892115697264671,-0.017806749790906906,-0.27346935868263245,0.5164312124252319,-0.8246492147445679,-9.725050926208496
1745661681.2816021,0.03109435737133026,-0.01686694845557213,-0.27131718397140503,0.34533023834228516,-0.6085515022277832,-9.859559059143066
1745661681.2834158,0.011194285936653614,-0.018355239182710648,-0.2728370130062103,0.421302855014801,-0.7320994138717651,-9.817892074584961
1745661681.286564,0.02177254855632782,-0.015498274937272072,-0.27465102076530457,0.2870507836341858,-0.6178568601608276,-9.654566764831543
1745661681.2907329,0.019394565373659134,-0.012587973847985268,-0.27434757351875305,0.3308590352535248,-0.591820478439331,-9.606963157653809
1745661681.3226275,0.012662211433053017,-0.0226949043571949,-0.27434834837913513,0.5085010528564453,-0.6638557314872742,-9.750089645385742
1745661681.3269322,0.030814122408628464,-0.012567196972668171,-0.27416110038757324,0.3803078234195709,-0.6472011804580688,-9.963457107543945
1745661681.3285136,0.017335128039121628,-0.01995413564145565,-0.2739913761615753,0.5123869776725769,-0.7751823663711548,-9.863317489624023
1745661681.3304172,0.027474036440253258,-0.01855868473649025,-0.26992276310920715,0.2638731002807617,-0.6376520395278931,-9.678121566772461
1745661681.3353424,0.012187720276415348,-0.017158251255750656,-0.26973778009414673,0.4355960488319397,-0.8163515329360962,-9.612689018249512
1745661681.3681798,0.028152555227279663,-0.01877833902835846,-0.27141913771629333,0.33058294653892517,-0.5215212106704712,-9.697580337524414
1745661681.371128,0.018358929082751274,-0.012082213535904884,-0.27118927240371704,0.40674319863319397,-0.6386748552322388,-9.781179428100586
1745661681.3723404,0.015964871272444725,-0.01995980180799961,-0.27463871240615845,0.47239574790000916,-0.5819259881973267,-9.752830505371094
1745661681.376015,0.030269082635641098,-0.012384941801428795,-0.27361100912094116,0.31506070494651794,-0.6209884881973267,-9.784711837768555
1745661681.4097521,0.010807925835251808,-0.021301070228219032,-0.27371060848236084,0.4864117503166199,-0.7251356840133667,-9.800905227661133
1745661681.4153183,0.03235108405351639,-0.013861941173672676,-0.27518653869628906,0.34874576330184937,-0.6383957862854004,-9.807218551635742
1745661681.4184377,0.009151625446975231,-0.018435286357998848,-0.2724260687828064,0.4938993453979492,-0.8443499803543091,-9.722241401672363
1745661681.4245934,0.027185210958123207,-0.018841439858078957,-0.2686462998390198,0.34699368476867676,-0.618770956993103,-9.679216384887695
1745661681.427395,0.011829106137156487,-0.014432397671043873,-0.2679823338985443,0.429747998714447,-0.8265827894210815,-9.757646560668945
1745661681.4517775,0.02026831917464733,-0.019426364451646805,-0.2680136561393738,0.32811230421066284,-0.5780823230743408,-9.796568870544434
1745661681.4619236,0.021706530824303627,-0.010007457807660103,-0.27128928899765015,0.37002143263816833,-0.5392048954963684,-9.730712890625
1745661681.4620242,0.01150439865887165,-0.012135250493884087,-0.26935267448425293,0.41508761048316956,-0.7471194863319397,-9.669568061828613
1745661681.4942439,0.011323684826493263,-0.017013369128108025,-0.26974955201148987,0.4699297547340393,-0.6134006977081299,-9.834394454956055
1745661681.4982889,0.02204344980418682,-0.011770954355597496,-0.2698461413383484,0.41420212388038635,-0.606463611125946,-9.916860580444336
1745661681.4983406,0.016138490289449692,-0.022034015506505966,-0.2722625732421875,0.4364841878414154,-0.5829690098762512,-9.759147644042969
1745661681.5016992,0.025492127984762192,-0.013292208313941956,-0.2720954120159149,0.20515978336334229,-0.5460313558578491,-9.713812828063965
1745661681.503383,0.013727309182286263,-0.015889273956418037,-0.27064990997314453,0.38300246000289917,-0.7382272481918335,-9.691858291625977
1745661681.5396821,0.03277764469385147,-0.013593161478638649,-0.27155202627182007,0.28662538528442383,-0.5862237811088562,-9.635172843933105
1745661681.541621,0.01774025335907936,-0.014651743695139885,-0.2720947563648224,0.5118082761764526,-0.7478874921798706,-9.766912460327148
1745661681.5444055,0.022188687697052956,-0.013497672975063324,-0.2701041102409363,0.4325270652770996,-0.6031674742698669,-9.913768768310547
1745661681.5499568,0.030874868854880333,-0.010343916714191437,-0.2721835672855377,0.34543514251708984,-0.6392399072647095,-9.803186416625977
1745661681.5830505,0.019939424470067024,-0.016848355531692505,-0.2717755436897278,0.46131473779678345,-0.6969461441040039,-9.645532608032227
1745661681.5831757,0.03558371216058731,-0.011530640535056591,-0.2708635926246643,0.3558942973613739,-0.6726347208023071,-9.773324012756348
1745661681.5999618,0.014900580048561096,-0.019742395728826523,-0.270737886428833,0.45747503638267517,-0.7831586003303528,-9.858564376831055
1745661681.6001587,0.0298279020935297,-0.012476846575737,-0.26907822489738464,0.2940845787525177,-0.5838838815689087,-9.78544807434082
1745661681.6002133,0.00847346056252718,-0.009965243749320507,-0.2689264416694641,0.38846394419670105,-0.7961838841438293,-9.664787292480469
1745661681.6238556,0.006198817398399115,-0.01818656548857689,-0.26686328649520874,0.39491960406303406,-0.7348247766494751,-9.658016204833984
1745661681.6283417,0.015764037147164345,-0.010969918221235275,-0.26937416195869446,0.35696977376937866,-0.6060331463813782,-9.732782363891602
1745661681.6284523,-0.004405370447784662,-0.013448488898575306,-0.2691463530063629,0.5488855838775635,-0.7252773642539978,-9.765606880187988
1745661681.6299417,0.012771077454090118,-0.013996857218444347,-0.2684664726257324,0.3607054650783539,-0.655222475528717,-9.865768432617188
1745661681.6681032,0.004668240435421467,-0.013232650235295296,-0.2680685818195343,0.4703686833381653,-0.7425203323364258,-9.800241470336914
1745661681.6707833,0.004608825780451298,-0.01858481764793396,-0.27002641558647156,0.3452513813972473,-0.6997371912002563,-9.724981307983398
1745661681.6712487,0.013894918374717236,-0.009252727031707764,-0.2680819034576416,0.37681201100349426,-0.6522527933120728,-9.696805000305176
1745661681.672106,-0.00016186051652766764,-0.01941622793674469,-0.26809555292129517,0.4277651309967041,-0.6798638701438904,-9.647753715515137
1745661681.6741495,0.01540317852050066,-0.010644225403666496,-0.26724427938461304,0.363899290561676,-0.6156641244888306,-9.799242973327637
1745661681.7117426,0.0025984449312090874,-0.016961434856057167,-0.26834338903427124,0.520781397819519,-0.7374089956283569,-9.832707405090332
1745661681.7132156,0.01464412547647953,-0.016204312443733215,-0.26849761605262756,0.29853442311286926,-0.5962017774581909,-9.806604385375977
1745661681.7179704,0.0006309655727818608,-0.011496881023049355,-0.26991555094718933,0.4800059199333191,-0.8188047409057617,-9.702692985534668
1745661681.7219899,0.010143959894776344,-0.019403323531150818,-0.26681190729141235,0.3151218891143799,-0.6682009696960449,-9.700389862060547
1745661681.7560537,0.008853231556713581,-0.012091964483261108,-0.2672958970069885,0.4241323471069336,-0.751757025718689,-9.697572708129883
1745661681.758247,-0.006339733954519033,-0.01791270449757576,-0.2703131139278412,0.5291005373001099,-0.687152087688446,-9.790745735168457
1745661681.7607372,0.015726709738373756,-0.008789877407252789,-0.2664966881275177,0.30869022011756897,-0.6925073266029358,-9.803752899169922
1745661681.7640173,-0.006805942393839359,-0.016997281461954117,-0.26759466528892517,0.45598021149635315,-0.668258786201477,-9.661669731140137
1745661681.7971723,0.01670900732278824,-0.014967655763030052,-0.269248902797699,0.28658825159072876,-0.6224979758262634,-9.773204803466797
1745661681.7992518,-0.00044609326869249344,-0.014391057193279266,-0.2667371928691864,0.4635559022426605,-0.7024784684181213,-9.847869873046875
1745661681.8024952,0.008339610882103443,-0.01717515103518963,-0.2671988606452942,0.3762778639793396,-0.6117181777954102,-9.772384643554688
1745661681.8077378,-0.0014739636098966002,-0.012557582929730415,-0.2694765329360962,0.4108090400695801,-0.8189888000488281,-9.675496101379395
1745661681.8485582,0.012307344935834408,-0.01235103514045477,-0.2694953680038452,0.2933991551399231,-0.5880433320999146,-9.785073280334473
1745661681.848643,-0.004539006389677525,-0.014272542670369148,-0.2686012387275696,0.45312708616256714,-0.6358415484428406,-9.606095314025879
1745661681.848697,0.007664536125957966,-0.01810687594115734,-0.2698512673377991,0.3199947476387024,-0.611840546131134,-9.739479064941406
1745661681.8487492,0.00350440526381135,-0.010293134488165379,-0.2718598246574402,0.4283735156059265,-0.6440204977989197,-9.838560104370117
1745661681.889675,-2.954557930934243e-05,-0.01710519753396511,-0.2710568308830261,0.4452435076236725,-0.7212154865264893,-9.736085891723633
1745661681.8933737,0.006679049227386713,-0.010574010200798512,-0.26974213123321533,0.36476582288742065,-0.7592934966087341,-9.668611526489258
1745661681.9002955,-0.008429920300841331,-0.019550656899809837,-0.26678919792175293,0.5054934620857239,-0.8202581405639648,-9.785124778747559
1745661681.9004257,0.0034019933082163334,-0.015416888520121574,-0.26708024740219116,0.2858402729034424,-0.6549891829490662,-9.938218116760254
1745661681.9033298,-0.017236730083823204,-0.013128044083714485,-0.2652280628681183,0.45600494742393494,-0.7914792895317078,-9.756612777709961
1745661681.9391541,0.004006887320429087,-0.01793571189045906,-0.2675016224384308,0.28268295526504517,-0.5360416173934937,-9.548264503479004
1745661681.9496562,-0.003913837485015392,-0.013165312819182873,-0.2684782147407532,0.42750293016433716,-0.6247943639755249,-9.659537315368652
1745661681.9532657,-0.007234153803437948,-0.0191345252096653,-0.27013760805130005,0.4500064253807068,-0.6245032548904419,-9.931020736694336
1745661681.953357,0.008886407129466534,-0.007926469668745995,-0.2688140869140625,0.2802618443965912,-0.70427006483078,-9.849340438842773
1745661681.9672558,0.009274739772081375,-0.010895093902945518,-0.2648141086101532,0.41473469138145447,-0.7602290511131287,-10.020407676696777
1745661681.968837,0.0015934298280626535,-0.018318507820367813,-0.26387014985084534,0.4671432375907898,-0.7704971432685852,-9.831762313842773
1745661681.9717374,0.004210063721984625,-0.01233217865228653,-0.2642499506473541,0.3068564236164093,-0.6155139207839966,-9.570971488952637
1745661681.9752758,-0.008525287732481956,-0.018376875668764114,-0.2635698914527893,0.48788243532180786,-0.7535452246665955,-9.628032684326172
1745661682.012734,0.012361053377389908,-0.014871547929942608,-0.2658463716506958,0.3348489999771118,-0.4444100260734558,-9.887237548828125
1745661682.0153875,-0.0015430316561833024,-0.010574671439826488,-0.26758280396461487,0.4278098940849304,-0.6811745762825012,-9.88322925567627
1745661682.0159159,0.007740151137113571,-0.014359569177031517,-0.2652800679206848,0.34771379828453064,-0.6514847874641418,-9.647054672241211
1745661682.017957,0.012537673115730286,-0.012616383843123913,-0.26590558886528015,0.32390713691711426,-0.6391252279281616,-9.659004211425781
1745661682.0553448,0.0019289773190394044,-0.021584447473287582,-0.26456549763679504,0.44051027297973633,-0.7048868536949158,-9.875885963439941
1745661682.0596828,0.021697646006941795,-0.008876795880496502,-0.26627281308174133,0.33652037382125854,-0.5975078344345093,-9.887960433959961
1745661682.0617352,-0.00011767559044528753,-0.01476247888058424,-0.2649329900741577,0.5424569845199585,-0.7624670267105103,-9.635717391967773
1745661682.0644748,0.014681853353977203,-0.017522083595395088,-0.2659800946712494,0.37540316581726074,-0.6107639074325562,-9.68975830078125
1745661682.067469,-0.0017398052150383592,-0.018162157386541367,-0.2667768895626068,0.5103544592857361,-0.8747388124465942,-9.905943870544434
1745661682.1055355,0.008161316625773907,-0.01688021793961525,-0.2632271647453308,0.2673138976097107,-0.5935490131378174,-9.885580062866211
1745661682.1056077,-0.00334348832257092,-0.011338074691593647,-0.26334348320961,0.3697028160095215,-0.6879065632820129,-9.606842041015625
1745661682.1064246,-0.002900421852245927,-0.021484864875674248,-0.26575106382369995,0.41144442558288574,-0.5763519406318665,-9.589080810546875
1745661682.1065567,0.01292150653898716,-0.012959243729710579,-0.2656327784061432,0.28976115584373474,-0.5446814298629761,-9.901832580566406
1745661682.1397283,-0.0027526658959686756,-0.0176199022680521,-0.26878994703292847,0.5720271468162537,-0.6087750196456909,-9.868896484375
1745661682.1436648,0.02080485224723816,-0.01165299117565155,-0.2653331756591797,0.30852335691452026,-0.5944274663925171,-9.694801330566406
1745661682.1443005,0.002132717054337263,-0.017463918775320053,-0.2674521505832672,0.4934608042240143,-0.7656716108322144,-9.599745750427246
1745661682.1464612,0.01454287488013506,-0.01733630895614624,-0.2653282582759857,0.38499003648757935,-0.6343236565589905,-9.882094383239746
1745661682.1487963,0.014245286583900452,-0.011271481402218342,-0.2631242871284485,0.3706587851047516,-0.6923841834068298,-9.952208518981934
1745661682.1866858,0.010352459736168385,-0.018816925585269928,-0.26433390378952026,0.4317188858985901,-0.5584709048271179,-9.594675064086914
1745661682.1903281,0.009111492894589901,-0.014477935619652271,-0.26908057928085327,0.31697162985801697,-0.5890126824378967,-9.622682571411133
1745661682.1935906,0.01669536530971527,-0.013707853853702545,-0.27079349756240845,0.2927871346473694,-0.5384436845779419,-9.847987174987793
1745661682.1963408,-0.0017254974227398634,-0.013756221160292625,-0.27000516653060913,0.4862303137779236,-0.8169876933097839,-9.67143440246582
1745661682.226182,0.010669173672795296,-0.015508785843849182,-0.2679974436759949,0.3698413372039795,-0.6413050889968872,-9.674235343933105
1745661682.22744,0.006193841341882944,-0.014869116246700287,-0.26752331852912903,0.39796632528305054,-0.6868830919265747,-9.850958824157715
1745661682.229796,0.005815981887280941,-0.018262241035699844,-0.26706448197364807,0.41608327627182007,-0.6330487132072449,-9.812761306762695
1745661682.2376087,0.02201404981315136,-0.006452102214097977,-0.2677415609359741,0.32103458046913147,-0.5332945585250854,-9.668688774108887
1745661682.2386696,-0.0005479127285070717,-0.024718573316931725,-0.2695866823196411,0.5121005773544312,-0.7743509411811829,-9.645279884338379
1745661682.270052,0.01464700698852539,-0.014452064409852028,-0.2675471901893616,0.2820277214050293,-0.5627972483634949,-9.923855781555176
1745661682.271108,0.0009621422505006194,-0.011940707452595234,-0.2692877948284149,0.44141674041748047,-0.8510906100273132,-9.884479522705078
1745661682.273248,0.00980202667415142,-0.01820521242916584,-0.2689957618713379,0.29521259665489197,-0.5523093938827515,-9.62584114074707
1745661682.2758427,-0.006217737682163715,-0.014459401369094849,-0.2687908411026001,0.4793974757194519,-0.780160129070282,-9.62238883972168
1745661682.3144445,0.002404591301456094,-0.02314034290611744,-0.2689073383808136,0.457891047000885,-0.6031956076622009,-9.883737564086914
1745661682.3175356,0.01776229776442051,-0.017367828637361526,-0.271072119474411,0.3646283745765686,-0.6092244386672974,-9.562440872192383
1745661682.319499,0.01759287342429161,-0.012920519337058067,-0.2708315849304199,0.3912878930568695,-0.6704499125480652,-9.687469482421875
1745661682.322898,0.012398714199662209,-0.020342594012618065,-0.2711159884929657,0.5064554214477539,-0.699363112449646,-9.888315200805664
1745661682.3560948,0.025660818442702293,-0.011836904101073742,-0.2688308656215668,0.30081406235694885,-0.5986034870147705,-9.935823440551758
1745661682.3568113,0.010326412506401539,-0.019756855443120003,-0.2700044512748718,0.47509869933128357,-0.7374210357666016,-9.693914413452148
1745661682.3594835,0.020053643733263016,-0.019408827647566795,-0.2689339518547058,0.26885372400283813,-0.5140117406845093,-9.673675537109375
1745661682.3604422,0.004994342103600502,-0.016039922833442688,-0.27136141061782837,0.49438294768333435,-0.7396344542503357,-9.815690994262695
1745661682.4002836,0.020687952637672424,-0.0211073886603117,-0.27240175008773804,0.3896903395652771,-0.5182367563247681,-9.731608390808105
1745661682.4027555,0.014742599800229073,-0.014037934131920338,-0.27035242319107056,0.41112035512924194,-0.6683381795883179,-9.67619800567627
1745661682.405798,0.008277110755443573,-0.018642695620656013,-0.27034181356430054,0.49386969208717346,-0.6943985819816589,-9.763008117675781
1745661682.408765,0.0289988461881876,-0.015917185693979263,-0.2695210874080658,0.25270766019821167,-0.6214656829833984,-9.837751388549805
1745661682.4106333,0.008712878450751305,-0.019984805956482887,-0.26855024695396423,0.47707706689834595,-0.6906701326370239,-9.784330368041992
1745661682.4459984,0.03251443803310394,-0.013498960062861443,-0.27026093006134033,0.2604338228702545,-0.4596356451511383,-9.693198204040527
1745661682.4481466,0.014309436082839966,-0.017195845022797585,-0.27024033665657043,0.42853179574012756,-0.6992055773735046,-9.682641983032227
1745661682.4489496,0.02494743838906288,-0.02077331393957138,-0.27335572242736816,0.3848349452018738,-0.499886691570282,-9.761584281921387
1745661682.45053,0.013745540753006935,-0.01481649000197649,-0.2742311358451843,0.46261709928512573,-0.8657560348510742,-9.833758354187012
1745661682.4856956,0.014004414901137352,-0.020062383264303207,-0.273963063955307,0.4304743707180023,-0.6783772110939026,-9.779855728149414
1745661682.4891691,0.003047860460355878,-0.013440551236271858,-0.27104657888412476,0.41027507185935974,-0.7521583437919617,-9.795632362365723
1745661682.4898152,-0.0025035147555172443,-0.01986650750041008,-0.2708521783351898,0.4783492684364319,-0.8001530766487122,-9.75685977935791
1745661682.4929063,0.014226013794541359,-0.016651932150125504,-0.2717481255531311,0.2627266049385071,-0.5323344469070435,-9.77638053894043
1745661682.4947038,-0.0063141933642327785,-0.019196685403585434,-0.2712709307670593,0.501378059387207,-0.6123551726341248,-9.692423820495605
1745661682.5277903,0.019674619659781456,-0.018007853999733925,-0.2743586599826813,0.2867047190666199,-0.4426974356174469,-9.700409889221191
1745661682.530398,0.008844535797834396,-0.01447413582354784,-0.27492520213127136,0.3621240556240082,-0.5632864832878113,-9.790090560913086
1745661682.5353835,0.011477217078208923,-0.023405693471431732,-0.27219492197036743,0.5101165175437927,-0.7944144010543823,-9.741998672485352
1745661682.5695972,0.015033449046313763,-0.018519539386034012,-0.2713087499141693,0.2769494950771332,-0.6306134462356567,-9.753683090209961
1745661682.5716538,0.004241631831973791,-0.017925864085555077,-0.2699759900569916,0.4634184241294861,-0.7861975431442261,-9.685068130493164
1745661682.5729294,0.018513496965169907,-0.018317675217986107,-0.2730720639228821,0.3491385579109192,-0.3667486310005188,-9.594170570373535
1745661682.5736449,0.006567269563674927,-0.015669705346226692,-0.27517589926719666,0.4504804015159607,-0.6101894378662109,-9.808305740356445
1745661682.5759954,0.018946180120110512,-0.01833641529083252,-0.27805930376052856,0.36603909730911255,-0.5098664164543152,-9.909812927246094
1745661682.6150365,0.024704890325665474,-0.010502705350518227,-0.2747364640235901,0.23901307582855225,-0.597772479057312,-9.774892807006836
1745661682.616627,0.01552649401128292,-0.02108350768685341,-0.27461737394332886,0.4370781481266022,-0.7097185850143433,-9.563309669494629
1745661682.618477,0.032048240303993225,-0.011900566518306732,-0.27525466680526733,0.32196396589279175,-0.5607697367668152,-9.746076583862305
1745661682.6194837,0.014251342043280602,-0.016701506450772285,-0.27371564507484436,0.49951061606407166,-0.7595216631889343,-9.872900009155273
1745661682.6592736,0.03446192294359207,-0.012051856145262718,-0.2733662724494934,0.36326321959495544,-0.5033331513404846,-9.740707397460938
1745661682.660339,0.01758243516087532,-0.0137851033359766,-0.2727028727531433,0.5109236240386963,-0.8203037977218628,-9.679189682006836
1745661682.6626978,0.02940632775425911,-0.022196579724550247,-0.27438491582870483,0.3327952027320862,-0.5168849229812622,-9.862792015075684
1745661682.6646287,0.012018797919154167,-0.010778929106891155,-0.2714169919490814,0.48982295393943787,-0.7331441640853882,-9.99329662322998
1745661682.6669006,0.0322997160255909,-0.011773036792874336,-0.27246779203414917,0.29527801275253296,-0.5441676378250122,-9.637924194335938
1745661682.7019734,0.020048124715685844,-0.01340987253934145,-0.2725394368171692,0.3891890048980713,-0.6825193166732788,-9.568617820739746
1745661682.7038991,0.028407970443367958,-0.014392608776688576,-0.27251651883125305,0.3606576919555664,-0.6572136282920837,-9.834210395812988
1745661682.7054818,0.03337787464261055,-0.0053073265589773655,-0.2741263508796692,0.38565701246261597,-0.6544228792190552,-9.935670852661133
1745661682.7420242,0.019849658012390137,-0.015021080151200294,-0.27095896005630493,0.4858986735343933,-0.7829585671424866,-9.644027709960938
1745661682.7469804,0.032974351197481155,-0.010468242689967155,-0.2691308856010437,0.33528581261634827,-0.681225597858429,-9.651002883911133
1745661682.750831,0.01637060008943081,-0.01541300117969513,-0.26937153935432434,0.5194993019104004,-0.8292860984802246,-9.90103816986084
1745661682.7530656,0.030240219086408615,-0.010468779131770134,-0.2681272625923157,0.2793935239315033,-0.5651659965515137,-9.930063247680664
1745661682.7600946,0.011099671013653278,-0.010337439365684986,-0.2711600661277771,0.4544517993927002,-0.812478244304657,-9.644430160522461
1745661682.7877512,0.02781587839126587,-0.01716514304280281,-0.27119719982147217,0.32321566343307495,-0.5690430402755737,-9.560434341430664
1745661682.7903705,0.021055739372968674,-0.00932768452912569,-0.2716832756996155,0.37938591837882996,-0.7420465350151062,-9.791586875915527
1745661682.7907615,0.011945596896111965,-0.01441287063062191,-0.2718876004219055,0.46532902121543884,-0.6874228119850159,-9.86900520324707
1745661682.8010201,0.02830987051129341,-0.003844793885946274,-0.2711653411388397,0.2887583374977112,-0.6753784418106079,-9.715815544128418
1745661682.82967,0.008037128485739231,-0.01685190014541149,-0.26972660422325134,0.5283246040344238,-0.7444614171981812,-9.675454139709473
1745661682.832937,0.031630583107471466,-0.011071835644543171,-0.2710784375667572,0.324179470539093,-0.6141281127929688,-9.866206169128418
1745661682.836341,0.013731354847550392,-0.01108853705227375,-0.2683512568473816,0.4588630199432373,-0.7740896344184875,-9.880041122436523
1745661682.839049,0.022863175719976425,-0.01421830989420414,-0.26818203926086426,0.3518100380897522,-0.605839729309082,-9.60805606842041
1745661682.8417165,0.009741201065480709,-0.011918800882995129,-0.2699110209941864,0.36929458379745483,-0.8462594747543335,-9.657857894897461
1745661682.8723748,0.015311388298869133,-0.013408759608864784,-0.2690223157405853,0.3805418908596039,-0.6501303315162659,-9.84687614440918
1745661682.8746436,0.017232637852430344,-0.008424855768680573,-0.27141430974006653,0.37085145711898804,-0.5978876352310181,-9.781869888305664
1745661682.8757288,0.0015437067486345768,-0.014289870858192444,-0.2723793685436249,0.4503365159034729,-0.6959718465805054,-9.73444652557373
1745661682.8777359,0.0184981357306242,-0.00909444410353899,-0.26914966106414795,0.3978305459022522,-0.6402365565299988,-9.627808570861816
1745661682.9149132,0.015695108100771904,-0.015117129310965538,-0.2673599123954773,0.41877275705337524,-0.6059130430221558,-9.67204761505127
1745661682.9174898,0.028340637683868408,-0.008444162085652351,-0.2702752947807312,0.3582867980003357,-0.6484411358833313,-9.882911682128906
1745661682.920155,0.01555938832461834,-0.015684988349676132,-0.2690722942352295,0.4510215222835541,-0.7122442722320557,-9.872838973999023
1745661682.9234304,0.024887140840291977,-0.011583047918975353,-0.26996320486068726,0.2584657371044159,-0.6326286792755127,-9.757881164550781
1745661682.9655666,0.009244272485375404,-0.011509292759001255,-0.2695883810520172,0.4679485261440277,-0.8506385087966919,-9.628538131713867
1745661682.9656384,0.026979824528098106,-0.013322439976036549,-0.2689840793609619,0.3622623682022095,-0.6202649474143982,-9.66868782043457
1745661682.9673357,0.014221364632248878,-0.008144120685756207,-0.26783937215805054,0.4814644455909729,-0.7544331550598145,-9.824834823608398
1745661682.9701037,0.016810130327939987,-0.012897588312625885,-0.2680515944957733,0.41572093963623047,-0.6709676384925842,-9.832067489624023
1745661683.002122,0.029800090938806534,-0.0045594098046422005,-0.268729031085968,0.30195680260658264,-0.6342170834541321,-9.657404899597168
1745661683.006194,0.012495939619839191,-0.0155045036226511,-0.2659703493118286,0.41808924078941345,-0.6823387742042542,-9.702242851257324
1745661683.0093954,0.03648527339100838,-0.007846301421523094,-0.2679958939552307,0.3097010552883148,-0.5942028760910034,-9.865705490112305
1745661683.0141757,0.013888364657759666,-0.013211268000304699,-0.2677077353000641,0.44211187958717346,-0.7701355814933777,-9.840595245361328
1745661683.0430245,0.026236703619360924,-0.01827888749539852,-0.26380258798599243,0.40529870986938477,-0.6484104990959167,-9.634808540344238
1745661683.0459893,0.02041233330965042,-0.012009738944470882,-0.26497191190719604,0.3641630709171295,-0.744976818561554,-9.750005722045898
1745661683.0462935,0.016132956370711327,-0.018197011202573776,-0.26491981744766235,0.4989468455314636,-0.7473606467247009,-9.824796676635742
1745661683.048054,0.026607489213347435,-0.011174825020134449,-0.2669071555137634,0.3688352406024933,-0.6553422808647156,-9.754335403442383
1745661683.0494034,0.0033434585202485323,-0.01572379097342491,-0.26342660188674927,0.49716633558273315,-0.8407382965087891,-9.699470520019531
1745661683.0908582,0.016558382660150528,-0.013511406257748604,-0.2664736807346344,0.3401598334312439,-0.685760498046875,-9.816917419433594
1745661683.0963764,0.015026971697807312,-0.014691566117107868,-0.2625308036804199,0.40830865502357483,-0.7091535925865173,-9.8115873336792
1745661683.1005387,0.015051105991005898,-0.018807072192430496,-0.2653835713863373,0.38589105010032654,-0.6219417452812195,-9.729069709777832
1745661683.1036346,0.028502214699983597,-0.009984426200389862,-0.2656016945838928,0.36042729020118713,-0.5845931768417358,-9.71497631072998
1745661683.13055,0.017995869740843773,-0.022243043407797813,-0.26322141289711,0.47493085265159607,-0.6999002695083618,-9.695403099060059
1745661683.1311707,0.03337439149618149,-0.013450291939079762,-0.263244092464447,0.3183962404727936,-0.658096194267273,-9.812166213989258
1745661683.1329923,0.017695140093564987,-0.01588687114417553,-0.26398444175720215,0.4875463545322418,-0.8812814950942993,-9.780576705932617
1745661683.134748,0.029862936586141586,-0.015847012400627136,-0.2628752291202545,0.29761308431625366,-0.6362923383712769,-9.766082763671875
1745661683.136612,0.008109050802886486,-0.013623258098959923,-0.2637624442577362,0.5164464712142944,-0.8349701166152954,-9.74894905090332
1745661683.1732237,0.018875667825341225,-0.020924054086208344,-0.2625176012516022,0.3737623691558838,-0.6534215807914734,-9.792680740356445
1745661683.1733017,0.020558582618832588,-0.013941462151706219,-0.2667516767978668,0.35069066286087036,-0.7182992696762085,-9.704521179199219
1745661683.1760476,0.0005826026317663491,-0.01952887326478958,-0.2669220566749573,0.49597984552383423,-0.7105568051338196,-9.703310012817383
1745661683.1789224,0.022576089948415756,-0.011618027463555336,-0.26471003890037537,0.32811856269836426,-0.7235842943191528,-9.76026439666748
1745661683.2146251,0.002036339370533824,-0.020427286624908447,-0.26466313004493713,0.49032145738601685,-0.7430160641670227,-9.833028793334961
1745661683.2237518,0.02193293534219265,-0.015913859009742737,-0.26211029291152954,0.28926053643226624,-0.6730306148529053,-9.859146118164062
1745661683.2238984,0.01232512854039669,-0.015144981443881989,-0.2628360390663147,0.424015611410141,-0.7392556071281433,-9.71284008026123
1745661683.2240064,0.02013503387570381,-0.021048203110694885,-0.2615250051021576,0.4104648530483246,-0.5964243412017822,-9.670321464538574
1745661683.224097,0.016117367893457413,-0.016828518360853195,-0.263475626707077,0.42834028601646423,-0.7695624828338623,-9.807340621948242
1745661683.2624042,0.016896292567253113,-0.01971142739057541,-0.2652687430381775,0.3721907138824463,-0.6819403767585754,-9.91603946685791
1745661683.264365,0.007741803769022226,-0.021317820996046066,-0.26595181226730347,0.48670798540115356,-0.7090976238250732,-9.881464958190918
1745661683.2644992,0.01042853482067585,-0.021004274487495422,-0.26593858003616333,0.35098645091056824,-0.6861624717712402,-9.660226821899414
1745661683.2665968,0.019047655165195465,-0.012565921060740948,-0.26288533210754395,0.3636346459388733,-0.6746106147766113,-9.56272029876709
1745661683.30258,0.008004426956176758,-0.02677743509411812,-0.2636929452419281,0.49526724219322205,-0.7260746359825134,-9.740489959716797
1745661683.3050678,0.02223951183259487,-0.016397273167967796,-0.2627987563610077,0.33676889538764954,-0.6687484383583069,-9.980502128601074
1745661683.3084934,0.010125011205673218,-0.019265126436948776,-0.2612668573856354,0.4344356656074524,-0.7724804878234863,-9.795095443725586
1745661683.3126163,0.025613490492105484,-0.019136017188429832,-0.2632260024547577,0.24329490959644318,-0.5661848783493042,-9.597039222717285
1745661683.344416,0.0038946159183979034,-0.02081887796521187,-0.2643221914768219,0.5059943199157715,-0.8139019012451172,-9.702048301696777
1745661683.3472364,0.017014455050230026,-0.02611100673675537,-0.26728132367134094,0.3874240219593048,-0.6501456499099731,-9.935023307800293
1745661683.3489358,0.016889894381165504,-0.01663326844573021,-0.265643835067749,0.38299986720085144,-0.7651500105857849,-9.752321243286133
1745661683.3502839,-0.002414990682154894,-0.020657191053032875,-0.2666398882865906,0.4746062159538269,-0.8014915585517883,-9.577289581298828
1745661683.3519285,0.017505526542663574,-0.017734656110405922,-0.2655712962150574,0.3114296495914459,-0.6986204385757446,-9.684834480285645
1745661683.3911064,0.0048832278698682785,-0.013342013582587242,-0.2678929269313812,0.43661755323410034,-0.7221847772598267,-9.646615982055664
1745661683.3978758,0.0025760396383702755,-0.021562030538916588,-0.2673456072807312,0.4698178172111511,-0.68616783618927,-9.963675498962402
1745661683.4013164,0.012585893273353577,-0.010389281436800957,-0.2664644718170166,0.33527541160583496,-0.6775107383728027,-9.914141654968262
1745661683.4042854,0.0021846801973879337,-0.01986018940806389,-0.26693692803382874,0.44044405221939087,-0.7133814096450806,-9.5889310836792
1745661683.4325411,0.008526140823960304,-0.017446231096982956,-0.267231822013855,0.23800668120384216,-0.5821415185928345,-9.68304443359375
1745661683.4359012,-0.0016606530407443643,-0.016388405114412308,-0.2709883749485016,0.46058908104896545,-0.7439006567001343,-9.857820510864258
1745661683.438147,0.016099851578474045,-0.01361597515642643,-0.2695375084877014,0.33923640847206116,-0.5396925210952759,-9.731831550598145
1745661683.440435,0.0055635469034314156,-0.01160447672009468,-0.2687550187110901,0.4608476758003235,-0.7360231280326843,-9.598627090454102
1745661683.476268,0.003202923107892275,-0.019845107570290565,-0.2681122124195099,0.4285024106502533,-0.6870543360710144,-9.798639297485352
1745661683.4783602,0.018666524440050125,-0.011564177460968494,-0.26730823516845703,0.307638943195343,-0.6740882992744446,-9.956027030944824
1745661683.4788532,0.003844586666673422,-0.01679590344429016,-0.26571860909461975,0.45599818229675293,-0.7352081537246704,-9.734445571899414
1745661683.4802687,0.027013981714844704,-0.009984904900193214,-0.2681422233581543,0.30859240889549255,-0.5779604911804199,-9.613801956176758
1745661683.4823225,0.003172272350639105,-0.02086157537996769,-0.267646849155426,0.48037561774253845,-0.7636748552322388,-9.775606155395508
1745661683.51878,0.018714791163802147,-0.014603251591324806,-0.26862794160842896,0.31712961196899414,-0.5720080137252808,-9.91273307800293
1745661683.5208118,0.0027042555157095194,-0.012489832937717438,-0.2709689140319824,0.44910889863967896,-0.9040846824645996,-9.709901809692383
1745661683.5226038,0.0077018728479743,-0.02133060246706009,-0.26872462034225464,0.38953444361686707,-0.6794840693473816,-9.63233470916748
1745661683.5231595,-0.00379028357565403,-0.014296039938926697,-0.2685900330543518,0.4593713879585266,-0.7703403234481812,-9.869455337524414
1745661683.5613606,-0.0037829610519111156,-0.019788969308137894,-0.2668222188949585,0.43036288022994995,-0.7462603449821472,-9.948655128479004
1745661683.5647736,0.013384103775024414,-0.013018758967518806,-0.2667389512062073,0.2740725576877594,-0.6018670797348022,-9.686657905578613
1745661683.568358,-0.00592439528554678,-0.020636742934584618,-0.2684909403324127,0.5250688195228577,-0.6205474138259888,-9.517054557800293
1745661683.5684075,0.0210029985755682,-0.01601340062916279,-0.26712140440940857,0.296860933303833,-0.48401468992233276,-9.80320930480957
1745661683.6053216,0.009954183362424374,-0.013837534002959728,-0.26880943775177,0.40301933884620667,-0.6262193322181702,-9.875468254089355
1745661683.6090133,0.002328077331185341,-0.013662087731063366,-0.26572078466415405,0.5214443206787109,-0.8226064443588257,-9.65443229675293
1745661683.6120255,0.015187865123152733,-0.017168892547488213,-0.2678220272064209,0.36098259687423706,-0.5629389882087708,-9.500969886779785
1745661683.612462,-0.0018328437581658363,-0.01522248424589634,-0.2671162188053131,0.4952751696109772,-0.7703578472137451,-9.827555656433105
1745661683.6462743,0.007078478578478098,-0.01802467182278633,-0.2681497037410736,0.35820597410202026,-0.6380239129066467,-10.046562194824219
1745661683.648554,0.012833565473556519,-0.01033748872578144,-0.2679222524166107,0.2633364498615265,-0.6555414199829102,-9.768941879272461
1745661683.6503692,0.005149471573531628,-0.01922636665403843,-0.2674809694290161,0.405833899974823,-0.6693061590194702,-9.450502395629883
1745661683.654521,0.022597385570406914,-0.012649578042328358,-0.26916712522506714,0.3255881369113922,-0.5535851120948792,-9.750503540039062
1745661683.6546133,0.007955586537718773,-0.018743371590971947,-0.26777851581573486,0.5162377953529358,-0.7801153659820557,-9.959933280944824
1745661683.691045,0.0222379881888628,-0.014188716188073158,-0.2681458592414856,0.37716978788375854,-0.5890820622444153,-9.768953323364258
1745661683.6946669,0.004497131332755089,-0.014312592335045338,-0.26823127269744873,0.5267427563667297,-0.9063621759414673,-9.61781120300293
1745661683.6982448,0.012518483214080334,-0.02171722985804081,-0.26687049865722656,0.377360075712204,-0.6314180493354797,-9.84095573425293
1745661683.7025936,-0.001421215943992138,-0.01304829865694046,-0.26714766025543213,0.44281211495399475,-0.7794843912124634,-9.976860046386719
1745661683.7331471,0.00038931556628085673,-0.018789207562804222,-0.2670993506908417,0.3686784505844116,-0.6652670502662659,-9.680791854858398
1745661683.7389953,0.002721610711887479,-0.01564563624560833,-0.2698264718055725,0.5583106279373169,-0.8252893686294556,-9.957742691040039
1745661683.7420504,0.021353771910071373,-0.014556078240275383,-0.26803287863731384,0.34725651144981384,-0.613820493221283,-9.822935104370117
