timestamp,angular_vel_x,angular_vel_y,angular_vel_z,linear_acc_x,linear_acc_y,linear_acc_z
1745668968.8416243,-0.19728374481201172,0.007350127212703228,0.3758394122123718,0.8229788541793823,0.3529447615146637,-9.804864883422852
1745668968.8416948,-0.2000543773174286,-0.005466090049594641,0.3770413398742676,1.0436573028564453,0.08465231955051422,-9.754582405090332
1745668968.8418114,-0.19852925837039948,0.0003362058778293431,0.38272032141685486,0.8555258512496948,0.24228210747241974,-9.837381362915039
1745668968.8421655,-0.21015122532844543,-0.003936872351914644,0.3870564103126526,0.9873102307319641,-0.061689238995313644,-9.820947647094727
1745668968.8422089,-0.19801408052444458,-0.013078248128294945,0.3915722966194153,0.8474146723747253,0.2717031240463257,-9.616979598999023
1745668968.8617744,-0.21878859400749207,-0.007397583220154047,0.3968293070793152,0.9234821200370789,0.1463945209980011,-9.76035213470459
1745668968.8618302,-0.20822706818580627,-0.019166801124811172,0.39811596274375916,0.861312210559845,0.2952386736869812,-9.894347190856934
1745668968.8618617,-0.20809046924114227,-0.013661934062838554,0.39838817715644836,0.8798428773880005,0.4741228222846985,-9.715200424194336
1745668968.8619037,-0.2085120677947998,-0.022465674206614494,0.4002169668674469,0.8984247446060181,0.34118524193763733,-9.690853118896484
1745668968.914205,-0.1980282962322235,-0.022005870938301086,0.4006832540035248,0.7251186966896057,0.5298174619674683,-9.827960968017578
1745668968.9152267,-0.2020082026720047,-0.029379889369010925,0.40327006578445435,1.0325958728790283,0.26891523599624634,-9.809535026550293
1745668968.9186366,-0.20049843192100525,-0.1116410493850708,0.3803504407405853,0.314401775598526,1.1333948373794556,-9.45383071899414
1745668968.9186904,-0.1728968322277069,-0.11137962341308594,0.3806503415107727,0.35465341806411743,1.2816407680511475,-9.672307968139648
1745668968.970692,-0.13479775190353394,-0.1226157695055008,0.3787769675254822,0.4794900417327881,1.0672496557235718,-10.12829875946045
1745668968.9708102,-0.07016151398420334,-0.11148925125598907,0.3796141445636749,0.35141056776046753,1.2552616596221924,-9.930582046508789
1745668968.970847,-0.06049416586756706,-0.11509531736373901,0.3786218464374542,0.3563860058784485,0.8536958694458008,-9.621532440185547
1745668968.9709017,-0.036261510103940964,-0.12619303166866302,0.3780941367149353,0.18429255485534668,0.6377903819084167,-9.657632827758789
1745668968.9709375,-0.03209928795695305,-0.12126556783914566,0.3747403025627136,0.340374231338501,0.41738009452819824,-9.884162902832031
1745668969.0002635,-0.07412413507699966,-0.12087114155292511,0.37091773748397827,0.211416095495224,0.22975721955299377,-10.024946212768555
1745668969.006244,-0.07263202965259552,-0.12020726501941681,0.36683279275894165,0.27056118845939636,0.20712688565254211,-9.659273147583008
1745668969.0100877,-0.12684616446495056,-0.13158012926578522,0.3599826693534851,0.4351978898048401,0.026692241430282593,-9.563194274902344
1745668969.0144534,-0.13749785721302032,-0.12248913198709488,0.35774773359298706,0.3516353964805603,0.14533132314682007,-9.977346420288086
1745668969.0271595,-0.1632622480392456,-0.12573225796222687,0.36007457971572876,0.4371564984321594,0.056879304349422455,-10.082528114318848
1745668969.0300236,-0.15209858119487762,-0.12405067682266235,0.36309006810188293,0.21476133167743683,0.49082255363464355,-9.708368301391602
1745668969.0315363,-0.15693393349647522,-0.11885986477136612,0.3606147766113281,0.29581916332244873,0.7013223767280579,-9.558581352233887
1745668969.034439,-0.13474547863006592,-0.1275017112493515,0.35714077949523926,0.338492214679718,0.9248303174972534,-9.897921562194824
1745668969.0358372,-0.0859200730919838,-0.12662670016288757,0.35417836904525757,0.42368030548095703,1.4730184078216553,-10.012849807739258
1745668969.0774355,-0.05537622421979904,-0.10794619470834732,0.34797853231430054,0.36096566915512085,1.3116044998168945,-9.86729621887207
1745668969.078065,0.0063300346955657005,-0.1128377690911293,0.34423109889030457,0.39249515533447266,1.4203435182571411,-9.468330383300781
1745668969.0781379,0.012308245524764061,-0.12778699398040771,0.3364836275577545,0.8512707948684692,0.9804867506027222,-9.761495590209961
1745668969.0795975,0.017579440027475357,-0.12084660679101944,0.3281049430370331,0.3756580650806427,0.9256917238235474,-10.54088306427002
1745668969.1191163,0.03392978757619858,-0.05665087699890137,0.23120848834514618,0.5730168223381042,1.0286287069320679,-9.689697265625
1745668969.1196878,0.06333298236131668,-0.07265891879796982,0.22680287063121796,0.5995173454284668,0.6635474562644958,-8.648704528808594
1745668969.1212828,0.05446510389447212,-0.08215615898370743,0.23170530796051025,0.6138149499893188,0.5265790820121765,-10.053903579711914
1745668969.1235697,0.07022135704755783,-0.05789852887392044,0.22959160804748535,0.17919328808784485,0.636103630065918,-11.12071704864502
1745668969.1258569,0.10222778469324112,-0.03719620779156685,0.22461478412151337,0.1462949961423874,0.9076699018478394,-9.445825576782227
1745668969.1571732,0.08546411991119385,-0.05624725669622421,0.21519728004932404,0.4922625422477722,0.9012904167175293,-8.410075187683105
1745668969.1596923,0.12460555136203766,-0.0599520318210125,0.1999097764492035,0.5846655368804932,1.33573317527771,-10.067911148071289
1745668969.1625404,0.12530949711799622,-0.0381559394299984,0.18335211277008057,0.5175542831420898,0.5419324636459351,-11.284168243408203
1745668969.1643143,0.13849297165870667,-0.012870533391833305,0.17691358923912048,0.5906897783279419,0.347774475812912,-9.632810592651367
1745668969.2034626,0.10612102597951889,-0.041454292833805084,0.17978718876838684,0.8696638345718384,-0.13365860283374786,-8.695165634155273
1745668969.205426,0.09754697978496552,-0.04316478222608566,0.18071596324443817,0.4792706370353699,-0.12063796818256378,-10.045973777770996
1745668969.2076974,0.0916355699300766,-0.004514811094850302,0.17787683010101318,0.6146295666694641,0.39293789863586426,-10.5748291015625
1745668969.2095964,0.08163666725158691,-0.0060049993917346,0.1673089861869812,0.6451800465583801,0.6782181262969971,-9.512260437011719
1745668969.2421458,0.10964405536651611,-0.014223036356270313,0.15336604416370392,0.5907853245735168,1.141010046005249,-8.891813278198242
1745668969.2440732,0.09514901787042618,-0.018435867503285408,0.1391596645116806,0.5066239237785339,0.9517048001289368,-10.319433212280273
1745668969.2460947,0.147923544049263,0.008716261945664883,0.1302333027124405,0.21225735545158386,0.9091252088546753,-10.59876823425293
1745668969.248524,0.26265019178390503,0.08644421398639679,-0.006379199679940939,0.7195791006088257,0.02034604549407959,-9.54777717590332
1745668969.2881072,0.2470630705356598,0.06896041333675385,-0.01268255989998579,0.5744943022727966,0.30669504404067993,-9.226812362670898
1745668969.2910326,0.2577279806137085,0.0792112946510315,-0.02029651403427124,0.481224924325943,0.12843327224254608,-9.900060653686523
1745668969.2935414,0.253476619720459,0.08356006443500519,-0.029040738940238953,0.6703461408615112,0.2262251079082489,-9.885160446166992
1745668969.2962887,0.23423698544502258,0.09024914354085922,-0.03396283835172653,0.5347101092338562,0.018260866403579712,-9.502246856689453
1745668969.3008535,0.2592056691646576,0.07436443865299225,-0.0368221253156662,0.7389116883277893,-0.045408137142658234,-9.42292308807373
1745668969.3306344,0.2233586609363556,0.07740341126918793,-0.04152214154601097,0.639355480670929,0.09587438404560089,-9.978869438171387
1745668969.3317285,0.2591955065727234,0.09527479112148285,-0.04392126575112343,0.7623543739318848,-0.026996338739991188,-10.001131057739258
1745668969.3338475,0.24035409092903137,0.079087033867836,-0.04921942576766014,0.7832528352737427,0.2896733283996582,-9.28826904296875
1745668969.337315,0.2486344873905182,0.08054853230714798,-0.05642674118280411,0.6494239568710327,0.17854036390781403,-9.511828422546387
1745668969.383019,0.24374303221702576,0.07445074617862701,-0.06261532008647919,0.6879981756210327,0.05900135636329651,-10.094645500183105
1745668969.3895316,0.2532246708869934,0.08438167721033096,-0.06762311607599258,0.5362524390220642,0.11581102758646011,-9.97572135925293
1745668969.3936682,0.2576989531517029,0.07937987148761749,-0.07421000301837921,0.7448083162307739,0.128737673163414,-9.244966506958008
1745668969.3983095,0.24541907012462616,0.06884723901748657,-0.07771241664886475,0.5936566591262817,-0.11376486718654633,-9.550740242004395
1745668969.413371,0.2670331597328186,0.08113282918930054,-0.0830148458480835,0.807233989238739,0.1520080417394638,-9.856176376342773
1745668969.4170074,0.22863391041755676,0.07767464965581894,-0.08908633887767792,0.7661821842193604,-0.2989480793476105,-9.950183868408203
1745668969.4201496,0.2674795091152191,0.07348193973302841,-0.08750773221254349,0.6614740490913391,-0.05247044563293457,-9.51026725769043
1745668969.4212759,0.22751951217651367,0.06408006697893143,-0.09550601989030838,0.8389296531677246,-0.21841564774513245,-9.560884475708008
1745668969.4240792,0.2473955601453781,0.07662753015756607,-0.0983831137418747,0.5767751336097717,-0.2398313730955124,-9.972006797790527
1745668969.4612844,0.20602090656757355,0.0378250889480114,-0.1533813774585724,0.6183948516845703,-0.349444180727005,-9.769207954406738
1745668969.4613307,0.19252972304821014,0.03640161082148552,-0.1539393961429596,0.8686871528625488,-0.6383814215660095,-9.960268020629883
1745668969.4639838,0.19430691003799438,0.03341994807124138,-0.15886372327804565,0.6358230710029602,-0.15083222091197968,-9.62921142578125
1745668969.4653897,0.18293985724449158,0.03204909712076187,-0.16188231110572815,0.8298212289810181,-0.5296458005905151,-9.511878967285156
1745668969.5031805,0.18759486079216003,0.022300874814391136,-0.16580936312675476,0.7405746579170227,-0.14682883024215698,-9.61123275756836
1745668969.504448,0.17118120193481445,0.03173501789569855,-0.17030145227909088,0.6911364793777466,-0.2776814103126526,-10.014963150024414
1745668969.5065668,0.19500160217285156,0.025306731462478638,-0.17229969799518585,0.682025134563446,-0.4613942503929138,-9.798547744750977
1745668969.5091796,0.18734204769134521,0.019528355449438095,-0.17687413096427917,0.5937841534614563,-0.07818354666233063,-9.393536567687988
1745668969.5442777,0.18472447991371155,0.0200234092772007,-0.17665399610996246,0.8592979311943054,-0.6275145411491394,-9.732794761657715
1745668969.5466745,0.19004926085472107,0.016263268887996674,-0.18144577741622925,0.6731230020523071,-0.1502360701560974,-9.846524238586426
1745668969.5477693,0.18106171488761902,0.020979158580303192,-0.18177467584609985,0.88910311460495,-0.4966825842857361,-9.705168724060059
1745668969.5499492,0.1787581890821457,0.00743445148691535,-0.18477113544940948,0.7484098672866821,-0.4269697070121765,-9.696939468383789
1745668969.5523593,0.17873097956180573,0.009479695931077003,-0.18977460265159607,0.7275803685188293,-0.47190022468566895,-9.8668212890625
1745668969.5883589,0.16874587535858154,0.004782254341989756,-0.19056430459022522,0.7624642252922058,-0.4299425482749939,-9.75855541229248
1745668969.5909736,0.160110741853714,0.007541002240031958,-0.1949942708015442,0.5760363936424255,-0.533424437046051,-9.664918899536133
1745668969.5929196,0.16977117955684662,0.0019050448900088668,-0.19548475742340088,0.8417668342590332,-0.4929935336112976,-9.46631145477295
1745668969.5957286,0.1363343745470047,-0.001164666609838605,-0.2006567269563675,0.6698311567306519,-0.3999039828777313,-9.923364639282227
1745668969.6314511,0.09113584458827972,-0.02836531773209572,-0.24068967998027802,0.8052371740341187,-0.6442654132843018,-9.8511962890625
1745668969.6331058,0.11520874500274658,-0.03480507433414459,-0.23908302187919617,0.5705019235610962,-0.6768919229507446,-9.984895706176758
1745668969.6350777,0.11125735938549042,-0.029392331838607788,-0.24317672848701477,0.5482385158538818,-0.3543335199356079,-9.71777057647705
1745668969.6360335,0.10407418012619019,-0.03389301151037216,-0.2428356409072876,0.7344402074813843,-0.8726581335067749,-9.699429512023926
1745668969.6728623,0.11929867416620255,-0.030779343098402023,-0.24457097053527832,0.5425159335136414,-0.36656469106674194,-9.66356086730957
1745668969.6764889,0.10091833770275116,-0.03269403055310249,-0.24449336528778076,0.8343157768249512,-0.8354107737541199,-9.807937622070312
1745668969.6788077,0.10782947391271591,-0.033849168568849564,-0.247651606798172,0.5489670038223267,-0.5828920006752014,-9.944177627563477
1745668969.6812582,0.10199632495641708,-0.028172079473733902,-0.24521121382713318,0.7589569091796875,-0.8081270456314087,-9.875234603881836
1745668969.7147803,0.10760962963104248,-0.0413961261510849,-0.23873424530029297,0.3280751407146454,-0.7666984796524048,-9.675992012023926
1745668969.7176914,0.10944006592035294,-0.03362052142620087,-0.23336520791053772,-0.09900939464569092,-0.7785778045654297,-9.663347244262695
1745668969.7184887,0.07765378057956696,-0.04369490221142769,-0.2245965301990509,0.35901814699172974,-1.3095121383666992,-9.56561279296875
1745668969.7218184,0.05103529617190361,-0.048028673976659775,-0.21648812294006348,-0.48600631952285767,-0.9989426732063293,-10.224867820739746
1745668969.7246163,0.040050629526376724,-0.0412164106965065,-0.2167421132326126,0.022847171872854233,-0.6639863848686218,-9.711706161499023
1745668969.7585363,0.03368719667196274,-0.041159871965646744,-0.21734032034873962,-0.008642363362014294,-0.25749433040618896,-9.260607719421387
1745668969.7602677,0.004746010061353445,-0.06079515069723129,-0.21920180320739746,0.5944020748138428,-1.0343986749649048,-9.87073802947998
1745668969.771546,0.03868037089705467,-0.07206223905086517,-0.21008972823619843,0.43849819898605347,-0.553396463394165,-10.447842597961426
1745668969.7716787,-0.016721654683351517,-0.051044024527072906,-0.20130100846290588,0.13949176669120789,-0.9520103335380554,-10.343433380126953
1745668969.800614,0.059860438108444214,-0.058453988283872604,-0.18578886985778809,0.18262653052806854,-0.921320915222168,-9.156251907348633
1745668969.8043523,-0.008757772855460644,-0.05384666845202446,-0.15434971451759338,0.40308570861816406,-0.878718376159668,-7.776603698730469
1745668969.8075252,-0.0940745621919632,-0.12387599796056747,-0.13473838567733765,1.0280969142913818,-1.6578378677368164,-8.838350296020508
1745668969.8103378,0.033521391451358795,-0.06067287176847458,-0.119579017162323,0.29509034752845764,-1.2520285844802856,-12.41680908203125
1745668969.8465345,-0.12191323935985565,-0.04161327704787254,-0.114878810942173,0.5947240591049194,-0.7741333842277527,-10.31803035736084
1745668969.8498368,-0.06627567857503891,-0.10237868130207062,-0.11503852903842926,0.8300410509109497,-0.6363904476165771,-7.603951930999756
1745668969.854266,-0.06413166224956512,-0.0918293371796608,-0.12243275344371796,0.5216096043586731,0.1299164891242981,-9.975713729858398
1745668969.86297,-0.11872778832912445,-0.08924338966608047,-0.12683898210525513,-0.28303399682044983,-0.3013646602630615,-12.514745712280273
1745668969.8913133,-0.030736660584807396,-0.06238275766372681,-0.12431041896343231,-0.17770855128765106,-0.5844782590866089,-9.247204780578613
1745668969.8938031,-0.0791935920715332,-0.05396833270788193,-0.12105949968099594,0.0002925753651652485,-0.10543887317180634,-6.808238983154297
1745668969.8956718,-0.08350123465061188,-0.1065003052353859,-0.11260201781988144,0.38102108240127563,-0.5180588364601135,-10.338788986206055
1745668969.898122,0.024029623717069626,-0.07341482490301132,-0.10394668579101562,0.8797938227653503,-0.40399664640426636,-12.664166450500488
1745668969.9019492,-0.04442785307765007,-0.018516462296247482,-0.10130059719085693,0.28293323516845703,-0.39813998341560364,-9.831452369689941
1745668969.9333897,0.012045753188431263,-0.07636488974094391,-0.08773242682218552,0.45635882019996643,-1.0725271701812744,-7.133247375488281
1745668969.9351888,-0.022296002134680748,-0.09858603775501251,-0.08027494698762894,0.61341392993927,-0.7543061375617981,-9.735340118408203
1745668969.9382033,-0.07792793214321136,-0.047881897538900375,-0.07970365136861801,0.08219204843044281,-1.1412832736968994,-12.652318000793457
1745668969.9417167,-0.036605920642614365,-0.025037074461579323,-0.079372838139534,-0.16286900639533997,-0.5382396578788757,-9.444620132446289
1745668969.9782734,-0.10577529668807983,-0.06494411081075668,-0.08455729484558105,0.17630045115947723,-0.5682786107063293,-7.072035312652588
1745668969.9826071,-0.008288676850497723,0.017361383885145187,0.04040553420782089,0.8986349105834961,-0.877338707447052,-8.833474159240723
1745668969.9837577,-0.059156715869903564,0.011465398594737053,0.0501645989716053,0.9363605380058289,-1.3045361042022705,-10.612666130065918
1745668969.9877129,-0.07235364615917206,0.03944095969200134,0.05722767859697342,0.7261907458305359,-1.464073657989502,-10.813857078552246
1745668970.0174809,-0.1548725664615631,0.03865513950586319,0.06442124396562576,0.5308111906051636,-1.403616189956665,-9.233909606933594
1745668970.0187886,-0.19493095576763153,0.02912120893597603,0.07393814623355865,0.3223259449005127,-1.151785135269165,-8.692750930786133
1745668970.020273,-0.2374788522720337,0.028995055705308914,0.07474933564662933,0.5175710916519165,-0.7531958222389221,-9.996577262878418
1745668970.0240865,-0.25904420018196106,0.04519541189074516,0.07331378757953644,0.2609615623950958,-0.4954802393913269,-10.822395324707031
1745668970.0274591,-0.23978546261787415,0.054320912808179855,0.07609851658344269,0.5083261728286743,-0.0677618533372879,-9.487335205078125
1745668970.062396,-0.23090186715126038,0.040243688970804214,0.08435361832380295,0.5204910039901733,0.13443990051746368,-8.833971977233887
1745668970.065637,-0.1904037892818451,0.03955148905515671,0.0918940007686615,0.5808613896369934,-0.019243527203798294,-10.015421867370605
1745668970.0686042,-0.16393937170505524,0.049591414630413055,0.1060679703950882,0.7647317051887512,0.03132407367229462,-10.664834022521973
1745668970.0707867,-0.12878219783306122,0.06135379523038864,0.11288400739431381,0.4309868812561035,0.07172946631908417,-9.652459144592285
1745668970.102591,-0.11831410974264145,0.05135301873087883,0.11991620063781738,0.5536577701568604,0.06454356759786606,-8.815248489379883
1745668970.1059945,-0.11799005419015884,0.043760888278484344,0.12176521867513657,0.5596742630004883,0.11215891689062119,-9.649211883544922
1745668970.1078072,-0.11190545558929443,0.05882909893989563,0.11836174875497818,0.7837373614311218,-0.03171258047223091,-10.63646125793457
1745668970.1087584,-0.12547755241394043,0.053891170769929886,0.11341031640768051,0.587439775466919,-0.10211267322301865,-9.987701416015625
1745668970.1116846,-0.1414491832256317,0.05440829321742058,0.11459054797887802,0.49783071875572205,-0.5780397057533264,-9.107821464538574
1745668970.1468906,-0.16352832317352295,0.04692118242383003,0.12366578727960587,0.6745332479476929,-0.6158510446548462,-9.378864288330078
1745668970.1500704,-0.17256411910057068,0.05521083623170853,0.1340048760175705,0.5376429557800293,-0.616351842880249,-10.299835205078125
1745668970.1526024,-0.12149186432361603,0.03211671859025955,0.1834629625082016,0.36557823419570923,0.3666362166404724,-9.568185806274414
1745668970.1560848,-0.09258256107568741,0.036711592227220535,0.18598011136054993,0.742378830909729,-0.11145436763763428,-10.414628028869629
1745668970.191818,-0.10306547582149506,0.045932527631521225,0.18997681140899658,0.6349747776985168,-0.21518000960350037,-9.97791862487793
1745668970.1943805,-0.10897667706012726,0.04103155806660652,0.197720006108284,0.5603491067886353,-0.3936771750450134,-9.054122924804688
1745668970.1964936,-0.1285390555858612,0.020216412842273712,0.21006064116954803,0.7520550489425659,-0.4451580047607422,-9.387916564941406
1745668970.199378,-0.12824693322181702,0.03023706004023552,0.20632915198802948,0.6271777749061584,0.07320286333560944,-10.403839111328125
1745668970.233843,-0.15037186443805695,0.021423351019620895,0.19848176836967468,0.27658316493034363,0.10295716673135757,-10.365915298461914
1745668970.238008,-0.12218882143497467,0.022642550989985466,0.18694236874580383,-0.02077292837202549,0.5478363037109375,-8.915848731994629
1745668970.2393262,-0.1219039186835289,0.009473416022956371,0.1800464391708374,0.04999495670199394,0.5532404780387878,-9.097296714782715
1745668970.2420547,-0.12042079120874405,-0.004886218346655369,0.17079214751720428,-0.2937518060207367,-0.15719762444496155,-10.57107925415039
1745668970.2434726,-0.06918898969888687,0.026546161621809006,0.1753917932510376,-0.06330142170190811,-0.09185300022363663,-9.902704238891602
1745668970.284855,-0.1254502534866333,0.02749616838991642,0.1814609169960022,0.04907933995127678,-0.6132229566574097,-8.845555305480957
1745668970.2850533,-0.09686405956745148,-0.00493516493588686,0.188484787940979,0.3164772391319275,-0.5085147023200989,-9.200651168823242
1745668970.2851553,-0.1209862232208252,0.0032448924612253904,0.1905444860458374,0.7316715121269226,-0.47212129831314087,-10.598116874694824
1745668970.2863488,-0.15245884656906128,0.013231669552624226,0.19001075625419617,0.3206002116203308,-0.36104616522789,-10.596850395202637
1745668970.3186162,-0.14394107460975647,-0.002117680851370096,0.18501929938793182,0.3856732249259949,-0.1516534686088562,-8.83838176727295
1745668970.3210857,-0.1988145112991333,-0.02014607936143875,0.17907090485095978,0.21351559460163116,0.005046325735747814,-9.025152206420898
1745668970.3235426,0.034860916435718536,-0.020433267578482628,0.22077631950378418,0.49598851799964905,0.5347033739089966,-9.313947677612305
1745668970.3254485,0.06321588158607483,-0.01721232570707798,0.2285551130771637,0.821082592010498,-0.16388098895549774,-9.609548568725586
1745668970.3617685,0.020854566246271133,-0.019423186779022217,0.24014802277088165,0.820213794708252,-0.5350104570388794,-10.231255531311035
1745668970.365786,-0.02614523470401764,-0.012528099119663239,0.24633757770061493,0.7514835596084595,-1.0788781642913818,-10.0115966796875
1745668970.368727,-0.06289718300104141,-0.009118755348026752,0.2525843679904938,0.6605161428451538,-0.6738022565841675,-9.315053939819336
1745668970.3706686,-0.14986827969551086,-0.019177939742803574,0.25397831201553345,0.495988667011261,-0.74415123462677,-9.80237865447998
1745668970.3723388,-0.16355092823505402,-0.015437372028827667,0.25192221999168396,0.5778790712356567,-0.36579373478889465,-10.12812614440918
1745668970.4082026,-0.19539253413677216,-0.007872129790484905,0.25146809220314026,0.2670581042766571,0.1096171885728836,-9.910788536071777
1745668970.412199,-0.19535990059375763,-0.008617372252047062,0.25667521357536316,0.4175989031791687,0.14934714138507843,-9.322484970092773
1745668970.414766,-0.17504510283470154,-0.021253157407045364,0.25502923130989075,0.2463417947292328,0.7576909065246582,-9.711508750915527
1745668970.4183083,-0.13365007936954498,-0.006690990179777145,0.2544845938682556,0.34265008568763733,1.0962998867034912,-10.176431655883789
1745668970.4496865,-0.08506985008716583,-0.01374058984220028,0.2540944516658783,0.32103946805000305,0.9858981370925903,-10.068857192993164
1745668970.4528406,-0.021616298705339432,-0.01966835744678974,0.25212761759757996,-0.0783693939447403,1.2293651103973389,-9.614278793334961
1745668970.4562085,0.003269779961556196,-0.008802494034171104,0.25367820262908936,-0.08427338302135468,0.6403862237930298,-9.525012969970703
1745668970.458964,0.007517457939684391,-0.006621366832405329,0.2523535192012787,0.04520975053310394,0.26559680700302124,-9.541949272155762
1745668970.4893248,0.00497429957613349,-0.020789504051208496,0.24814264476299286,0.37537431716918945,-0.1373167783021927,-9.953376770019531
1745668970.492908,-0.0504583939909935,-0.020159751176834106,0.24335508048534393,0.31086045503616333,-0.22164662182331085,-10.281755447387695
1745668970.4942036,-0.0574481301009655,-0.007394990883767605,0.24063579738140106,0.28099972009658813,-0.3878137469291687,-9.840163230895996
1745668970.4982233,-0.0841030701994896,-0.032268255949020386,0.24058227241039276,0.166443333029747,0.18206211924552917,-8.90162181854248
1745668970.534682,-0.084698386490345,-0.0407552644610405,0.24250605702400208,0.07461576163768768,0.32642799615859985,-9.771882057189941
1745668970.537008,-0.06852957606315613,-0.024900998920202255,0.24492354691028595,0.26409912109375,0.19134601950645447,-10.660333633422852
1745668970.5398939,-0.07299845665693283,-0.026033714413642883,0.2475282847881317,0.2880859673023224,0.3250988721847534,-9.899114608764648
1745668970.5410926,-0.06154726818203926,-0.03149376064538956,0.2455785572528839,0.31793949007987976,0.42827194929122925,-9.118149757385254
1745668970.543422,-0.07395284622907639,-0.04428546875715256,0.24936547875404358,0.31044405698776245,0.2613363564014435,-9.88053035736084
1745668970.57915,-0.06310439854860306,-0.030950728803873062,0.24418532848358154,0.14861586689949036,0.7032987475395203,-10.407795906066895
1745668970.5813792,-0.0728539377450943,-0.03732796013355255,0.23656639456748962,0.14260971546173096,0.33197110891342163,-9.936843872070312
1745668970.5823672,-0.07339217513799667,-0.040739309042692184,0.2356061041355133,-0.16153918206691742,0.5958136320114136,-9.257074356079102
1745668970.5847352,-0.06980086117982864,-0.046107567846775055,0.2337624728679657,-0.07298071682453156,0.3597862720489502,-9.605563163757324
1745668970.6195567,-0.065746009349823,-0.04711107909679413,0.23594310879707336,-0.20811066031455994,0.3587881922721863,-10.338949203491211
1745668970.622636,-0.06076312065124512,-0.032696861773729324,0.23719561100006104,-0.16222038865089417,0.21593520045280457,-9.975381851196289
1745668970.6260812,-0.05152973532676697,-0.03893666714429855,0.24192026257514954,0.004944503307342529,0.2622160315513611,-9.179411888122559
1745668970.6293256,-0.05406666919589043,-0.04722419008612633,0.2440079003572464,-0.21253816783428192,0.3978826403617859,-9.701323509216309
1745668970.6317995,-0.03751538321375847,-0.04276798292994499,0.24658218026161194,0.1286115199327469,-0.022095417603850365,-10.350469589233398
1745668970.6645544,-0.06259512901306152,-0.03065052628517151,0.24622678756713867,0.01944204792380333,0.3566352128982544,-9.924894332885742
1745668970.6679509,-0.062477052211761475,-0.047479331493377686,0.24693699181079865,0.03657317906618118,0.06529314070940018,-9.436223983764648
1745668970.6728244,-0.08940379321575165,-0.050618983805179596,0.24353766441345215,-0.0722048431634903,0.37904080748558044,-9.608087539672852
1745668970.6740754,0.06605249643325806,-0.08542374521493912,0.2379491776227951,0.973926842212677,1.6375112533569336,-8.525588035583496
1745668970.7075346,0.032182950526475906,-0.04087873548269272,0.23561923205852509,0.9168189167976379,0.06331950426101685,-10.321261405944824
1745668970.7126267,0.12305661290884018,-0.052406251430511475,0.24051158130168915,-0.21785645186901093,0.42393016815185547,-11.344575881958008
1745668970.7161336,0.13510718941688538,-0.036505308002233505,0.24430832266807556,-0.3250354528427124,0.023169899359345436,-8.900474548339844
1745668970.7206273,-0.013621514663100243,-0.009795425459742546,0.23786334693431854,0.11566394567489624,0.8775914907455444,-7.3906989097595215
1745668970.7470622,-0.023441720753908157,-0.04369437322020531,0.22531303763389587,0.10210205614566803,-1.4391659498214722,-10.959646224975586
1745668970.748223,0.1591227501630783,-0.05023450776934624,0.20507661998271942,0.44267091155052185,3.0723328590393066,-10.359698295593262
1745668970.750482,-0.16581213474273682,0.03141700476408005,0.1860525906085968,0.7158409357070923,-1.2358791828155518,-10.672612190246582
1745668970.760035,0.18856924772262573,-0.0618361160159111,0.21440203487873077,0.17545586824417114,0.14326448738574982,-8.668329238891602
1745668970.763822,-0.10577720403671265,-0.004214928951114416,0.20206022262573242,0.4899323582649231,0.15617075562477112,-8.80251693725586
1745668970.7930038,0.03998906537890434,-0.025119468569755554,0.21894225478172302,0.29401516914367676,-0.7871599197387695,-11.321106910705566
1745668970.795588,-0.0713888555765152,-0.030258124694228172,0.21876755356788635,0.1262756884098053,0.6869962215423584,-10.552995681762695
1745668970.8005595,0.12410519272089005,0.06426779925823212,0.19725200533866882,0.22116723656654358,1.771522879600525,-8.272192001342773
1745668970.8039012,-0.03122895397245884,-0.04034074395895004,0.15758062899112701,1.467331886291504,2.451066017150879,-8.424050331115723
1745668970.8343475,0.17396731674671173,-0.006102746818214655,0.13518981635570526,1.674559235572815,-0.3201696276664734,-12.104191780090332
1745668970.8409564,0.136647030711174,0.03359978273510933,0.12429256737232208,0.9048501253128052,2.7247464656829834,-11.253271102905273
1745668970.843067,0.07355799525976181,0.008032025769352913,0.1302267611026764,0.49870043992996216,-2.665825605392456,-9.124704360961914
1745668970.8447883,0.26721832156181335,0.032190531492233276,0.1519661843776703,0.507583737373352,1.018906593322754,-6.5395684242248535
1745668970.8467257,-0.08689175546169281,-0.0033589540980756283,0.15702936053276062,0.37567323446273804,-1.8917407989501953,-11.484095573425293
1745668970.8824012,0.07162526249885559,0.045950472354888916,0.033901017159223557,1.084553599357605,-0.11904402077198029,-10.144964218139648
1745668970.8845072,0.21983449161052704,0.056264061480760574,0.022085458040237427,0.6739694476127625,0.6245041489601135,-11.797266960144043
1745668970.88622,0.14100512862205505,0.10316929966211319,0.015553797595202923,0.06980513036251068,0.37188920378685,-9.778390884399414
1745668970.8871412,0.1514282375574112,0.07747718691825867,0.017329486086964607,0.025462010875344276,-0.5870350003242493,-7.474771022796631
1745668970.9261672,0.15236584842205048,0.07241463661193848,0.017181655392050743,0.22644110023975372,0.6410900354385376,-8.352116584777832
1745668970.9362924,0.10708131641149521,0.07620221376419067,0.008730439469218254,0.7258045673370361,-0.39678245782852173,-11.707071304321289
1745668970.9369864,0.17095431685447693,0.11294184625148773,-0.0022911247797310352,0.7507013082504272,0.8525698781013489,-10.896138191223145
1745668970.9370472,0.13591137528419495,0.08952786028385162,-0.010995040647685528,0.7936298847198486,0.24778179824352264,-8.627920150756836
1745668970.9664862,0.17573902010917664,0.06511344760656357,-0.012178714387118816,0.6846659779548645,0.45340925455093384,-8.62905216217041
1745668970.970155,0.15684865415096283,0.08295637369155884,-0.013259915634989738,0.5238015651702881,-0.07090123742818832,-10.669569969177246
1745668970.970327,0.18186375498771667,0.10092146694660187,-0.011880582198500633,0.43681979179382324,-0.10708949714899063,-10.28703498840332
1745668970.9742486,0.17301999032497406,0.10667236149311066,-0.01562565378844738,0.44192785024642944,0.5695947408676147,-8.586469650268555
1745668970.975644,0.1714438498020172,0.0709446519613266,-0.018830331042408943,0.6513314843177795,0.31627511978149414,-9.325921058654785
1745668971.0105743,0.21561531722545624,0.08399054408073425,-0.031535644084215164,0.5102543830871582,0.8910296559333801,-10.706426620483398
1745668971.0248492,0.19253937900066376,0.09418749809265137,-0.04479376971721649,0.699676513671875,0.06308470666408539,-10.478974342346191
1745668971.0249543,0.22641393542289734,0.08793222159147263,-0.04850385710597038,0.4368404448032379,0.18418553471565247,-8.794281959533691
1745668971.0250156,0.186986044049263,0.08289321511983871,-0.04507506266236305,0.7162328958511353,-0.2263079583644867,-8.823442459106445
1745668971.0527978,0.0247658621519804,-0.004108283668756485,-0.00735339242964983,0.10590048134326935,-0.3474113345146179,-10.112886428833008
1745668971.0553544,0.07474280893802643,-0.01810813881456852,-0.010136686265468597,0.07627534121274948,0.27629971504211426,-8.641164779663086
1745668971.0573184,0.029596000909805298,-0.03069751337170601,-0.011942912824451923,-0.059348128736019135,0.21378985047340393,-9.402372360229492
1745668971.0586376,0.06267520785331726,-0.01665678434073925,-0.011228831484913826,-0.002059417311102152,-0.366413414478302,-10.5311861038208
1745668971.0948236,0.07074165344238281,0.00012146485823905095,0.0011565213790163398,0.39070773124694824,0.07308132946491241,-9.495585441589355
1745668971.098599,0.06165887042880058,-0.030105093494057655,0.015279759652912617,1.319283127784729,-0.4152165949344635,-9.292848587036133
1745668971.1024985,0.10130082070827484,-0.06581665575504303,0.0048516662791371346,0.7411920428276062,0.9897105097770691,-10.598366737365723
1745668971.1075547,0.06232145428657532,-0.028493782505393028,-0.007497262209653854,0.040545713156461716,0.08225273340940475,-10.952726364135742
1745668971.1102498,0.12399580329656601,-0.04628150537610054,-0.01710989698767662,0.4296835958957672,0.42724284529685974,-8.22814655303955
1745668971.1406312,0.05039449781179428,-0.08551706373691559,-0.02738439105451107,-0.21007999777793884,0.14152388274669647,-9.108652114868164
1745668971.1422803,0.1015237420797348,-0.06288652867078781,-0.0259114857763052,-0.41670846939086914,-0.7371155619621277,-11.154924392700195
1745668971.1437564,0.04955027624964714,-0.017305664718151093,-0.01595386676490307,-0.39530372619628906,-0.5896838903427124,-9.641822814941406
1745668971.1455333,0.03822840005159378,-0.04119737073779106,-0.002574296435341239,0.7587326765060425,-1.0459662675857544,-7.744715213775635
1745668971.1918192,0.06841807812452316,-0.0746777281165123,0.00025540171191096306,0.6099652647972107,-0.1670420616865158,-10.253150939941406
1745668971.1920037,-0.0071065472438931465,-0.0445113368332386,0.0056828162632882595,0.8665836453437805,-0.8239068984985352,-12.153168678283691
1745668971.1920989,0.05252828449010849,-0.03255482390522957,0.007850226946175098,0.5989594459533691,-0.17033497989177704,-9.517668724060059
1745668971.1921945,2.8468668460845947e-05,-0.060309600085020065,0.008117256686091423,0.2621322572231293,-0.12309269607067108,-7.74972677230835
1745668971.1922581,-0.051728926599025726,-0.08595801144838333,0.010254226624965668,0.3450736105442047,-0.5240691900253296,-10.15322208404541
1745668971.2237082,-0.011843218468129635,-0.04448260739445686,0.007452712394297123,0.07487405836582184,0.35091128945350647,-11.514294624328613
1745668971.229068,-0.10778194665908813,-0.04024042561650276,0.05961710214614868,0.7696813344955444,-0.2663479149341583,-10.229264259338379
1745668971.2337623,-0.07033189386129379,-0.03456997126340866,0.06382109969854355,0.6524413824081421,0.7477679252624512,-10.669490814208984
1745668971.2342541,-0.035620708018541336,-0.03459317237138748,0.06194766238331795,0.6617441773414612,0.7213956117630005,-9.821459770202637
1745668971.2687597,-0.016475269570946693,-0.03422379493713379,0.063662089407444,0.37687090039253235,0.7428637146949768,-9.254966735839844
1745668971.2697735,0.012787955813109875,-0.024003930389881134,0.06352792680263519,0.41421300172805786,0.40430551767349243,-9.651206970214844
1745668971.2717505,0.0024856640957295895,-0.025998879224061966,0.0652986615896225,0.7083772420883179,0.27678385376930237,-9.984707832336426
1745668971.2730892,0.02808787301182747,-0.019168652594089508,0.07180123031139374,0.7741109728813171,0.08542145788669586,-10.233477592468262
1745668971.3104548,0.03313978761434555,-0.015825305134058,0.07710712403059006,0.9644190073013306,0.23091788589954376,-9.989015579223633
1745668971.3149207,0.03525970131158829,-0.01840345188975334,0.08253936469554901,0.6524986028671265,0.024088863283395767,-9.709466934204102
1745668971.3191733,0.053349874913692474,-0.014859470538794994,0.0899878740310669,0.8254094123840332,-0.181325763463974,-9.615249633789062
1745668971.323231,0.03716939315199852,-0.018129467964172363,0.0963992178440094,0.5624788999557495,-0.23217017948627472,-10.144373893737793
1745668971.3269448,0.04113830253481865,-0.004172503016889095,0.10293326526880264,0.17027127742767334,-0.4576485753059387,-10.108421325683594
1745668971.353245,0.021548788994550705,0.004868572577834129,0.11034353077411652,0.148860901594162,-0.5966005325317383,-9.247644424438477
1745668971.3560355,-0.010056869126856327,0.005996975116431713,0.11613688617944717,0.23424367606639862,-0.5309056639671326,-9.261585235595703
1745668971.3581228,-0.030962806195020676,-0.002176961163058877,0.11588595062494278,0.5885072946548462,-0.8034324645996094,-10.295804977416992
1745668971.3602588,-0.06645192205905914,0.019943606108427048,0.11640866845846176,0.43474921584129333,-0.5858755111694336,-10.534367561340332
1745668971.397579,-0.0938153862953186,0.027004098519682884,0.12097922712564468,0.6356831789016724,-0.7385240197181702,-9.394086837768555
1745668971.4016385,-0.08401162922382355,0.04799134284257889,0.2158074676990509,0.5895570516586304,0.2404516041278839,-9.763643264770508
1745668971.4034553,-0.08880013972520828,0.05318312719464302,0.21655675768852234,0.5473505854606628,0.31289035081863403,-9.522552490234375
1745668971.4066298,-0.0833718329668045,0.046118296682834625,0.2160872519016266,0.7616702318191528,0.13955757021903992,-9.76591968536377
1745668971.4403687,-0.08805487304925919,0.041936926543712616,0.21855111420154572,0.47911787033081055,0.12010087817907333,-10.102295875549316
1745668971.440476,-0.08387981355190277,0.05070273205637932,0.2211202085018158,0.7016185522079468,-0.23326356709003448,-9.820961952209473
1745668971.442226,-0.10226045548915863,0.045431386679410934,0.22836513817310333,0.495297908782959,0.022066734731197357,-9.396374702453613
1745668971.4437442,-0.09758639335632324,0.0441407784819603,0.23505744338035583,0.5121873021125793,-0.3486098051071167,-9.603082656860352
1745668971.481341,-0.09322832524776459,0.03930599242448807,0.2474890947341919,0.6960412263870239,0.06282888352870941,-9.86440658569336
1745668971.484025,-0.10155447572469711,0.04466184228658676,0.24205167591571808,0.5403505563735962,0.5708786845207214,-10.123615264892578
1745668971.484214,-0.09123696386814117,0.009184607304632664,0.22267529368400574,0.12483364343643188,0.6584357023239136,-10.094426155090332
1745668971.498137,-0.051988594233989716,0.03295830264687538,0.20883627235889435,-0.339272677898407,1.0578168630599976,-9.279260635375977
1745668971.4981709,-0.0565548911690712,0.021549668163061142,0.19309483468532562,-0.09721595793962479,0.26219668984413147,-9.244684219360352
1745668971.5259097,-0.04954242706298828,0.001627567457035184,0.1875813752412796,-0.7246235609054565,0.14158019423484802,-9.994230270385742
1745668971.5288475,-0.04293719679117203,0.03625470772385597,0.19182410836219788,-0.19531148672103882,-0.7755166888237,-9.882906913757324
1745668971.5310974,-0.07477805763483047,0.043565187603235245,0.1993676722049713,0.018031960353255272,-0.8488008379936218,-8.943574905395508
1745668971.5391626,-0.10504549741744995,0.006484117358922958,0.20508620142936707,0.43365851044654846,-0.6356076002120972,-9.215924263000488
1745668971.5674403,-0.10821374505758286,0.0009379280963912606,0.20396223664283752,0.8207541704177856,-0.6796194911003113,-10.846037864685059
1745668971.5690293,-0.15805760025978088,0.023425161838531494,0.1982552856206894,0.11912588030099869,-0.010914420709013939,-10.758260726928711
1745668971.5734305,-0.15159979462623596,0.0019498498877510428,0.19151249527931213,0.25403743982315063,-0.3332904875278473,-8.743070602416992
1745668971.5754414,-0.19262656569480896,-0.013436093926429749,0.18415991961956024,-0.004076124168932438,0.4468959867954254,-8.616713523864746
1745668971.5768547,-0.12108802795410156,-0.06180084869265556,0.1392955183982849,0.3195352554321289,-0.7685472965240479,-10.615708351135254
1745668971.6114137,-0.16964508593082428,-0.030252421274781227,0.14025112986564636,0.11593972146511078,-0.26968806982040405,-10.29963207244873
1745668971.6132042,-0.17012032866477966,-0.03393195569515228,0.14467313885688782,0.419962078332901,-0.1301415115594864,-8.810833930969238
1745668971.6155987,-0.15552499890327454,-0.06730707734823227,0.1470537930727005,0.46684640645980835,0.4952811300754547,-9.076736450195312
1745668971.6167486,-0.10883373022079468,-0.04569735378026962,0.1414039134979248,0.3148338198661804,1.3588553667068481,-10.63992977142334
1745668971.6554358,-0.05138766020536423,-0.05230390280485153,0.13785748183727264,0.37934058904647827,0.8902451395988464,-10.675250053405762
1745668971.6555245,-0.0016580037772655487,-0.043820641934871674,0.13436754047870636,-0.060277778655290604,1.3182945251464844,-9.010714530944824
1745668971.658948,0.014419367536902428,-0.053241707384586334,0.12991847097873688,0.24625691771507263,0.6830326318740845,-8.937257766723633
1745668971.6593125,0.03769698366522789,-0.06367932260036469,0.12179633229970932,0.27757543325424194,0.6428449153900146,-10.099580764770508
1745668971.6618347,0.03432429954409599,-0.03677356243133545,0.11134656518697739,0.47629913687705994,0.40248507261276245,-10.433595657348633
1745668971.7028565,0.006817384157329798,-0.052001260221004486,0.10533837974071503,0.7549054026603699,-0.11220542341470718,-9.55528450012207
1745668971.7139025,0.00883488729596138,-0.060640908777713776,0.09935750812292099,0.6817342042922974,0.11041422188282013,-9.357196807861328
1745668971.7144933,-0.047797929495573044,-0.06189567595720291,0.1000179871916771,0.6249132752418518,-0.5898553133010864,-10.349363327026367
1745668971.7164392,-0.037566062062978745,-0.052696503698825836,0.1019768938422203,0.27296677231788635,-0.17606544494628906,-10.251341819763184
1745668971.7392948,-0.055633097887039185,-0.05059557035565376,0.10394259542226791,0.1507033407688141,-0.13772666454315186,-9.334928512573242
1745668971.7419612,-0.06250999867916107,-0.05684997886419296,0.10332778841257095,-0.1740226298570633,0.24175183475017548,-9.248161315917969
1745668971.7452083,0.08797581493854523,0.010794754140079021,-0.019803619012236595,0.5020546913146973,1.2218259572982788,-9.64627456665039
1745668971.7467651,0.13453300297260284,0.014554956927895546,-0.02533457800745964,0.44051843881607056,0.8145694732666016,-10.375086784362793
1745668971.782565,0.17410589754581451,0.028221869841217995,-0.03705618903040886,0.08813051879405975,1.073835015296936,-10.027813911437988
1745668971.793428,0.1755448281764984,0.02270207181572914,-0.04358873516321182,0.4967419505119324,0.047400783747434616,-9.279976844787598
1745668971.7979527,0.1678624451160431,0.023250220343470573,-0.04918302595615387,0.5040714740753174,0.03138139098882675,-9.428576469421387
1745668971.807582,0.1417630910873413,0.025646314024925232,-0.05272699519991875,0.747438371181488,-0.31844112277030945,-10.292839050292969
1745668971.8108912,0.11491245031356812,0.030004018917679787,-0.05701718479394913,0.7351888418197632,-0.3265896439552307,-10.261626243591309
1745668971.8269446,0.09360508620738983,0.03594888374209404,-0.059871066361665726,0.7034914493560791,-0.2838716506958008,-9.613327026367188
1745668971.830563,0.07847752422094345,0.01809726282954216,-0.06168796494603157,0.7859341502189636,-0.32789501547813416,-9.580459594726562
1745668971.8334603,0.07301320880651474,0.028239483013749123,-0.06703920662403107,0.23722830414772034,0.2732756733894348,-10.111735343933105
1745668971.8361526,0.0879325270652771,0.03768128901720047,-0.07010771334171295,0.289789617061615,-0.1589515656232834,-9.985578536987305
1745668971.8672702,0.0974709540605545,0.04217652231454849,-0.07118462026119232,0.18393047153949738,0.6080861687660217,-9.20093059539795
1745668971.8691018,0.1045624166727066,0.03913617879152298,-0.07557974010705948,0.37703460454940796,0.1912499964237213,-9.623006820678711
1745668971.8746543,0.14689861238002777,0.03434368595480919,-0.0816526859998703,0.40094423294067383,0.5286797285079956,-10.205507278442383
1745668971.8836513,0.14444780349731445,0.05575799196958542,-0.08793766796588898,0.5496253967285156,0.4522305428981781,-9.996099472045898
1745668971.9123142,0.16451631486415863,0.04931401088833809,-0.09257514774799347,0.8228511810302734,-0.07073692977428436,-9.370814323425293
1745668971.9153671,0.14642783999443054,0.03870514780282974,-0.09403244405984879,0.6885474324226379,0.23075731098651886,-9.470979690551758
1745668971.9181561,0.1360633373260498,0.04502873867750168,-0.09727311134338379,0.8281576037406921,-0.3175824284553528,-10.330209732055664
1745668971.9212806,0.12943223118782043,0.048239815980196,-0.10023514181375504,0.4506238102912903,0.031820159405469894,-10.130990982055664
1745668971.9213388,0.1312696933746338,0.048320915549993515,-0.10561211407184601,0.617674708366394,-0.02605549991130829,-9.421501159667969
1745668971.9540126,0.1211409717798233,0.0409686341881752,-0.1527790129184723,0.6165397763252258,0.0036068253684788942,-9.282477378845215
1745668971.9551225,0.12201347202062607,0.03728195279836655,-0.15353398025035858,0.38565051555633545,-0.028492042794823647,-9.690078735351562
1745668971.9580421,0.15004682540893555,0.04923850670456886,-0.15479199588298798,0.6575675010681152,0.21049197018146515,-9.891554832458496
1745668971.9630244,0.14003579318523407,0.04381778836250305,-0.1586853563785553,0.5171347260475159,0.005022502038627863,-9.942608833312988
1745668972.004169,0.19564133882522583,0.04332085698843002,-0.15968361496925354,0.48407840728759766,0.14542822539806366,-9.61310863494873
1745668972.00703,0.17505672574043274,0.032530151307582855,-0.16382138431072235,0.6435385942459106,-0.029307300224900246,-9.627680778503418
1745668972.01028,0.194536030292511,0.044664375483989716,-0.1657973825931549,0.48735886812210083,-0.26690736413002014,-9.899417877197266
1745668972.0250359,0.17244336009025574,0.03685326129198074,-0.16927310824394226,0.7169771194458008,-0.35694676637649536,-9.574935913085938
1745668972.025296,0.14609397947788239,0.03340001031756401,-0.1724279224872589,0.5280628800392151,-0.3942180871963501,-9.666757583618164
1745668972.0438921,0.14068004488945007,0.03256213665008545,-0.17613576352596283,0.7169431447982788,-0.5286778807640076,-9.907552719116211
1745668972.0441413,0.11648942530155182,0.02645215392112732,-0.180674746632576,0.6741143465042114,-0.3642727732658386,-9.921080589294434
1745668972.0479622,0.12236128002405167,0.03302150219678879,-0.18349213898181915,0.6367383003234863,-0.16745038330554962,-9.619217872619629
1745668972.0508416,0.10596438497304916,0.020161176100373268,-0.186653733253479,0.6201239228248596,-0.472412109375,-9.610258102416992
1745668972.086498,0.12597285211086273,0.030252113938331604,-0.1844339519739151,0.43290823698043823,0.052662599831819534,-9.64599323272705
1745668972.089436,0.11172749102115631,0.02549397014081478,-0.18934611976146698,0.591037929058075,-0.3107643127441406,-9.860925674438477
1745668972.0900216,0.15160098671913147,0.024474987760186195,-0.18637964129447937,0.3142777383327484,0.07773678004741669,-9.684636116027832
1745668972.0930846,0.121671661734581,-0.01291043870151043,-0.2355482280254364,0.5865485072135925,-0.4955865442752838,-9.615608215332031
1745668972.1289384,0.10593489557504654,-0.0184476301074028,-0.23690588772296906,0.7104824781417847,-0.705703616142273,-9.918625831604004
1745668972.1311705,0.09571980684995651,-0.014625007286667824,-0.2386762648820877,0.48358049988746643,-0.4942901134490967,-9.9592924118042
1745668972.1357384,0.10016229003667831,-0.01997266709804535,-0.2413167655467987,0.6725343465805054,-0.5096448659896851,-9.576337814331055
1745668972.1360931,0.0697939395904541,-0.02516922727227211,-0.24166810512542725,0.44001278281211853,-0.48503097891807556,-9.703716278076172
1745668972.1690898,0.11214426904916763,-0.020712092518806458,-0.245287224650383,0.5884413719177246,-0.3385845124721527,-9.801864624023438
1745668972.1733174,0.08247334510087967,-0.023774225264787674,-0.24269068241119385,0.5295263528823853,-0.25540298223495483,-9.78113842010498
1745668972.1748588,0.1201557144522667,-0.013450157828629017,-0.2424497902393341,0.4676932394504547,-0.36266231536865234,-9.686352729797363
1745668972.1756413,0.13858091831207275,-0.032414812594652176,-0.23433196544647217,0.3087247312068939,-0.37737205624580383,-9.63062572479248
1745668972.1782367,0.14217503368854523,-0.022846927866339684,-0.22664383053779602,-0.2888171374797821,-0.5117887854576111,-9.808070182800293
1745668972.2145777,0.1254054605960846,-0.026857595890760422,-0.22043979167938232,0.38143855333328247,-1.070749282836914,-9.681228637695312
1745668972.2177067,0.08405213803052902,-0.047535933554172516,-0.21406416594982147,-0.5465272665023804,-0.8501996994018555,-10.02057933807373
1745668972.222841,0.06655369699001312,-0.024428296834230423,-0.21718533337116241,-0.20225763320922852,-0.5434495210647583,-9.547046661376953
1745668972.2268984,0.033182136714458466,-0.0362238809466362,-0.22023499011993408,0.11898931115865707,-0.48616328835487366,-9.107431411743164
1745668972.2557075,0.021441884338855743,-0.045402511954307556,-0.22121648490428925,0.45728665590286255,-0.7010053396224976,-9.964481353759766
1745668972.2576602,0.012928115203976631,-0.06382538378238678,-0.2173643559217453,0.4885794520378113,-0.7812094688415527,-10.594555854797363
1745668972.2599697,-0.0031310529448091984,-0.053418468683958054,-0.20131072402000427,-0.03177519515156746,-0.753483772277832,-10.293853759765625
1745668972.2617404,0.043268945068120956,-0.04469345137476921,-0.18316428363323212,0.17296890914440155,-0.7863627672195435,-8.946565628051758
1745668972.263115,0.01602991856634617,-0.06172410398721695,-0.1741100251674652,-0.12275848537683487,-0.08262749016284943,-9.134824752807617
1745668972.3013294,0.07357349991798401,-0.07060965150594711,-0.174252450466156,0.20745638012886047,0.15110473334789276,-10.300493240356445
1745668972.3060892,0.02192159928381443,-0.07844360917806625,-0.15513470768928528,0.09716887772083282,-0.8056390881538391,-10.476275444030762
1745668972.3111305,0.021183699369430542,-0.04472582787275314,-0.14537188410758972,-0.1132906824350357,-0.3952728509902954,-10.671770095825195
1745668972.318218,0.031262658536434174,-0.041903913021087646,-0.12791858613491058,0.777729332447052,-0.8740469217300415,-9.139354705810547
1745668972.3456533,0.01347423903644085,-0.10362718254327774,-0.12910273671150208,0.9462299346923828,-0.005003190133720636,-9.356992721557617
1745668972.345708,0.02486329711973667,-0.07765649259090424,-0.13760976493358612,0.21002709865570068,-0.3875928521156311,-11.342219352722168
1745668972.346765,0.03606612980365753,-0.05001956224441528,-0.15058672428131104,-0.1423911452293396,0.1743236631155014,-10.039953231811523
1745668972.3493254,-0.04124557226896286,-0.07877407968044281,-0.15590879321098328,-0.26501521468162537,-0.8397954702377319,-8.408536911010742
1745668972.386334,0.025506187230348587,-0.10951252281665802,-0.14283117651939392,0.30121126770973206,-0.9618865847587585,-9.161531448364258
1745668972.3910298,-0.04528035968542099,-0.04381364956498146,-0.13329480588436127,-0.6129783391952515,-0.5745765566825867,-11.528210639953613
1745668972.398285,-0.0163600854575634,-0.03965677320957184,-0.12706242501735687,0.0009222283842973411,-1.269687533378601,-9.650421142578125
1745668972.3983345,-0.0009697076166048646,-0.07752279192209244,-0.11698099225759506,0.8453998565673828,0.010177791118621826,-7.627952575683594
1745668972.4272277,-0.021456865593791008,-0.06260831654071808,-0.11396244913339615,0.5213542580604553,-0.5654129385948181,-11.055168151855469
1745668972.4296792,0.010076028294861317,-0.061230212450027466,-0.1120537519454956,0.2204338014125824,-0.6298974752426147,-12.061749458312988
1745668972.431204,-0.002938291057944298,-0.03229908272624016,-0.10770352929830551,0.10897110402584076,-0.47062745690345764,-8.618146896362305
1745668972.4350474,-0.051478952169418335,-0.05362478643655777,-0.10152951627969742,0.20488238334655762,-0.9394512176513672,-7.784982204437256
1745668972.4380767,-0.04930073767900467,-0.08321134746074677,-0.09999729692935944,0.08080389350652695,-0.33540600538253784,-10.778848648071289
1745668972.474268,-0.0063404543325304985,0.029093768447637558,0.02021147310733795,0.48563528060913086,-0.680310845375061,-10.506376266479492
1745668972.4756691,-0.004981295671314001,0.038702983409166336,0.033065907657146454,0.17007941007614136,-0.7140697240829468,-9.907888412475586
1745668972.4775944,-0.029663782566785812,0.03560036048293114,0.03894783556461334,0.3644576072692871,-0.7040861248970032,-8.992877006530762
1745668972.4832594,-0.04183395951986313,0.03697952255606651,0.04613913968205452,0.20675170421600342,-0.7286456823348999,-9.633597373962402
1745668972.5158362,-0.06695277988910675,0.04566890746355057,0.04815033823251724,0.5273379683494568,-0.9180984497070312,-10.34154224395752
1745668972.5169678,-0.09690584987401962,0.050139207392930984,0.051367588341236115,0.5109043121337891,-0.7645342350006104,-10.0033597946167
1745668972.5185704,-0.11709336191415787,0.052689455449581146,0.0557006299495697,0.44264334440231323,-0.8461049795150757,-9.428186416625977
1745668972.521056,-0.14926762878894806,0.04785216599702835,0.06762933731079102,0.5635825395584106,-0.9528614282608032,-9.527111053466797
1745668972.5252113,-0.1530112475156784,0.0604412779211998,0.07572099566459656,0.4870864450931549,-0.5802388787269592,-10.031526565551758
1745668972.5611207,-0.167420893907547,0.057090263813734055,0.08294178545475006,0.6050198674201965,-0.3045552372932434,-9.942602157592773
1745668972.565259,-0.14712229371070862,0.05875130742788315,0.08802630007266998,0.3653576076030731,0.12087448686361313,-9.589532852172852
1745668972.5675292,-0.12779998779296875,0.06502608954906464,0.0867059975862503,0.5398913621902466,0.3462274968624115,-9.549223899841309
1745668972.574418,-0.11135283857584,0.05475681275129318,0.08837062865495682,0.41545313596725464,0.3529302477836609,-9.958282470703125
1745668972.599687,-0.0663381963968277,0.06553734093904495,0.09184563905000687,0.48581749200820923,0.2664249539375305,-9.997278213500977
1745668972.6059175,-0.06685218214988708,0.062147319316864014,0.09514810144901276,0.43579715490341187,-0.06631941348314285,-9.766558647155762
1745668972.6076283,-0.04530727118253708,0.06741653382778168,0.10358966886997223,0.38270801305770874,-0.18604633212089539,-9.458700180053711
1745668972.6100447,-0.052582573145627975,0.06079108268022537,0.11167514324188232,0.7692413926124573,-0.3511574864387512,-9.581878662109375
1745668972.6154163,-0.05169164016842842,0.06473083049058914,0.11513902246952057,0.5356060266494751,-0.29949045181274414,-10.135869026184082
1745668972.6456153,-0.06579031050205231,0.06527622044086456,0.11916625499725342,0.6558811068534851,-0.5722037553787231,-9.995423316955566
1745668972.6472065,-0.08931969106197357,0.06337007880210876,0.12325970828533173,0.5324899554252625,-0.5670905113220215,-9.470314025878906
1745668972.6504796,-0.09676800668239594,0.051332034170627594,0.16363230347633362,0.37262916564941406,0.2464597523212433,-9.649030685424805
1745668972.6531463,-0.08622948825359344,0.056175410747528076,0.16374875605106354,0.4710731506347656,0.14164404571056366,-9.440062522888184
1745668972.687062,-0.09087301045656204,0.0412236824631691,0.15898250043392181,0.28962892293930054,0.04301907867193222,-9.86111068725586
1745668972.6918838,-0.07648468017578125,0.04583725333213806,0.1626330316066742,0.325291246175766,-0.22986578941345215,-10.006675720214844
1745668972.694288,-0.07743660360574722,0.047288648784160614,0.16678573191165924,0.2320321500301361,-0.3302674889564514,-9.571648597717285
1745668972.7287161,-0.09954378753900528,0.04590281844139099,0.17149469256401062,0.07902395725250244,-0.6717268824577332,-9.30798625946045
1745668972.7324216,-0.09916561096906662,0.037454478442668915,0.17669501900672913,0.48626574873924255,-0.5033891797065735,-9.526407241821289
1745668972.7339242,-0.12950997054576874,0.03668984770774841,0.17557278275489807,0.46283578872680664,-0.4366263449192047,-10.21734619140625
1745668972.7396262,-0.13079075515270233,0.044749584048986435,0.17838263511657715,0.5345203876495361,-0.5927263498306274,-10.018350601196289
1745668972.7417626,-0.16069874167442322,0.03346056118607521,0.17855475842952728,0.3265823721885681,-0.30839401483535767,-9.242531776428223
1745668972.7727513,-0.18837487697601318,0.03090396150946617,0.17779555916786194,0.374403178691864,-0.4913478493690491,-9.356647491455078
1745668972.774556,-0.1909426748752594,0.023222822695970535,0.18119952082633972,0.6142082214355469,-0.20556001365184784,-9.91445541381836
1745668972.777347,-0.19626164436340332,0.03483562543988228,0.1788332462310791,0.3238651156425476,0.323951780796051,-10.139269828796387
1745668972.7834618,-0.18918423354625702,0.02079663798213005,0.17946313321590424,0.5547889471054077,0.16535799205303192,-9.48386001586914
1745668972.8151832,-0.1574079543352127,0.017820576205849648,0.17863336205482483,0.45900440216064453,0.7672713994979858,-9.224119186401367
1745668972.8219006,-0.08520594239234924,-0.061146028339862823,0.14979612827301025,0.13196143507957458,-0.0028753639198839664,-9.575573921203613
1745668972.8234115,-0.09491101652383804,-0.05292155221104622,0.14557167887687683,0.18057456612586975,-0.034590888768434525,-10.212964057922363
1745668972.8259766,-0.1076417788863182,-0.056475020945072174,0.14062714576721191,0.3779461979866028,-0.19502794742584229,-10.08775520324707
1745668972.8584394,-0.11665365844964981,-0.05170160531997681,0.14097677171230316,0.12798237800598145,0.0013802439207211137,-9.45012092590332
1745668972.8609467,-0.13764363527297974,-0.05945112183690071,0.14013276994228363,0.3339351713657379,-0.3134777247905731,-9.54401969909668
1745668972.8644154,-0.16382333636283875,-0.06850017607212067,0.1430855691432953,0.2734532952308655,-0.14358362555503845,-10.00169563293457
1745668972.8674314,-0.15559549629688263,-0.0526520311832428,0.1418970823287964,0.1891053318977356,0.07791003584861755,-10.116451263427734
1745668972.8724391,-0.1595890074968338,-0.05624618008732796,0.13915222883224487,0.24621853232383728,0.3977124094963074,-9.57376480102539
1745668972.9036653,-0.1505068689584732,-0.06334515661001205,0.13640685379505157,0.2186010330915451,0.7270141839981079,-9.52046012878418
1745668972.903724,-0.10719405114650726,-0.06281041353940964,0.13070450723171234,0.38361790776252747,0.6302746534347534,-10.047571182250977
1745668972.9062948,-0.0864655151963234,-0.061002571135759354,0.12855976819992065,0.25849422812461853,0.947754979133606,-10.116557121276855
1745668972.9079652,-0.05113518238067627,-0.057596247643232346,0.13014955818653107,0.27135711908340454,0.25062304735183716,-9.88279914855957
1745668972.9466438,-0.038048628717660904,-0.06476931273937225,0.13008934259414673,0.27374377846717834,0.6798893809318542,-9.41855239868164
1745668972.9485955,-0.03042503632605076,-0.06424150615930557,0.12402717769145966,0.20579035580158234,0.3281179964542389,-9.884218215942383
1745668972.9515083,-0.030086886137723923,-0.05692584440112114,0.11779119819402695,0.3500993251800537,0.3019948899745941,-9.996713638305664
1745668972.9544,-0.031610917299985886,-0.05630287528038025,0.1097848042845726,0.3141263425350189,0.1534094512462616,-9.859792709350586
1745668972.9873552,-0.05066075176000595,-0.06646423041820526,0.10238436609506607,0.3690252900123596,0.028824582695961,-9.798749923706055
1745668972.9917767,-0.06988636404275894,-0.05922918766736984,0.09764508157968521,0.14323970675468445,-0.3197292387485504,-9.988237380981445
1745668972.995824,-0.06988873332738876,-0.044326238334178925,0.09987472742795944,0.30096784234046936,-0.35583657026290894,-9.71107292175293
1745668972.9991982,-0.11827628314495087,-0.05912499874830246,0.1011371836066246,0.16833551228046417,-0.19961778819561005,-9.662313461303711
1745668973.0023336,-0.0006991563132032752,-0.03710907697677612,0.04237546771764755,0.5018354654312134,-0.01510840654373169,-10.363565444946289
1745668973.0356882,0.008284327574074268,-0.02195403352379799,0.040181271731853485,0.15467007458209991,0.26590681076049805,-9.921760559082031
1745668973.0369885,0.0036976903211325407,-0.009305117651820183,0.03284270316362381,0.587896466255188,0.11400808393955231,-9.061555862426758
1745668973.0382314,0.008213086985051632,-0.029004788026213646,0.027045568451285362,0.6775144338607788,0.08388756215572357,-9.645105361938477
1745668973.0407934,-0.006676231510937214,-0.013333302922546864,0.018242130056023598,0.43379154801368713,0.44789013266563416,-10.573068618774414
1745668973.0748332,-0.0032745252829045057,0.00238552363589406,0.011763688176870346,0.5022841691970825,-0.03172939270734787,-10.120882034301758
1745668973.0771723,-0.00905652530491352,0.001323378412052989,0.0035796586889773607,0.3135136067867279,0.31711912155151367,-9.049128532409668
1745668973.0813978,-0.02065623365342617,-0.006332657299935818,0.0025984221138060093,0.6513489484786987,-0.06506431102752686,-9.504560470581055
1745668973.0842519,-0.02116617001593113,-0.003957127220928669,-0.0059407358057796955,0.3422445058822632,0.6111322045326233,-10.552595138549805
1745668973.085756,0.00808856263756752,0.022245097905397415,-0.01114444900304079,0.369331419467926,0.42413657903671265,-10.182886123657227
1745668973.116931,0.028138021007180214,0.0169288981705904,-0.016440173611044884,0.4790911078453064,0.7324405312538147,-8.95097541809082
1745668973.1182184,0.03435231000185013,0.0051501779817044735,-0.025358933955430984,0.545914351940155,0.7061201333999634,-9.539884567260742
1745668973.1215682,0.07182640582323074,0.00875051785260439,-0.028688136488199234,0.5043190717697144,0.4463191628456116,-10.699079513549805
1745668973.127163,0.08696143329143524,0.03286619856953621,-0.03438008204102516,0.11390499770641327,0.7114125490188599,-10.176301956176758
1745668973.158754,0.1083192229270935,0.031090665608644485,-0.03686707466840744,0.5361213684082031,0.11926771700382233,-8.887852668762207
1745668973.161974,0.1012902483344078,0.01724248193204403,-0.0400410071015358,0.4405530095100403,0.5029613375663757,-9.273221015930176
1745668973.1657538,0.1332361102104187,0.051376450806856155,-0.13492229580879211,0.5006932020187378,-0.021097738295793533,-9.68328857421875
1745668973.1670418,0.1283530592918396,0.04652697592973709,-0.13932420313358307,0.5623418688774109,-0.1230321079492569,-10.04688835144043
1745668973.204752,0.13050316274166107,0.059106696397066116,-0.141386941075325,0.44947147369384766,0.049098651856184006,-9.805379867553711
1745668973.2082858,0.12576022744178772,0.05184917896986008,-0.14366911351680756,0.6544162034988403,0.02834722399711609,-9.321651458740234
1745668973.2114255,0.13517525792121887,0.04488861933350563,-0.1490604132413864,0.39407581090927124,0.08708301931619644,-9.622161865234375
1745668973.214527,0.1389325112104416,0.05298691987991333,-0.1498851180076599,0.6555221676826477,0.17772276699543,-9.991808891296387
1745668973.2454019,0.13892868161201477,0.047127895057201385,-0.15455448627471924,0.4938432276248932,-0.10058663040399551,-9.952188491821289
1745668973.2476785,0.17482295632362366,0.04898398369550705,-0.15552859008312225,0.4648594856262207,0.061719585210084915,-9.486096382141113
1745668973.250695,0.14221961796283722,0.04053542762994766,-0.1569540798664093,0.591396152973175,-0.15810592472553253,-9.56340217590332
1745668973.2523012,0.1725964993238449,0.050172727555036545,-0.15639512240886688,0.449122816324234,-0.10663461685180664,-9.903253555297852
1745668973.2536922,0.14757999777793884,0.04336525872349739,-0.16163262724876404,0.7254842519760132,-0.18727929890155792,-9.714332580566406
1745668973.2934656,0.14320532977581024,0.03880324214696884,-0.16382095217704773,0.46924734115600586,-0.11224005371332169,-9.710217475891113
1745668973.2951424,0.1467733383178711,0.037135861814022064,-0.1683427393436432,0.6302286982536316,-0.29000183939933777,-9.794244766235352
1745668973.3031125,0.12694041430950165,0.03358859941363335,-0.17104247212409973,0.5802944898605347,-0.22593891620635986,-9.857955932617188
1745668973.303165,0.13230004906654358,0.03592858836054802,-0.17368395626544952,0.6041976809501648,-0.09906298667192459,-9.644197463989258
1745668973.3328958,0.1212555319070816,0.026584982872009277,-0.17399325966835022,0.5552430748939514,-0.39951783418655396,-9.548456192016602
1745668973.3375082,0.1246597021818161,0.03753214702010155,-0.17637164890766144,0.4490123689174652,0.10892492532730103,-9.645273208618164
1745668973.3405383,0.11456934362649918,0.03337272256612778,-0.17870627343654633,0.6151279807090759,-0.32419976592063904,-9.852696418762207
1745668973.3440464,0.15184900164604187,0.02476268634200096,-0.18102870881557465,0.3958333432674408,0.2166016548871994,-9.717628479003906
1745668973.3753338,0.15660962462425232,-0.0020674322731792927,-0.19672951102256775,0.21481895446777344,-0.10757076740264893,-9.74188232421875
1745668973.378483,0.15694263577461243,0.0007258925470523536,-0.1911100298166275,0.07499132305383682,-0.49815815687179565,-9.575300216674805
1745668973.3836775,0.12327510118484497,-0.006871031131595373,-0.18670320510864258,0.1967884600162506,-0.8289116621017456,-9.472822189331055
1745668973.3847315,0.10406371206045151,-0.023380372673273087,-0.17483343183994293,-0.3056245744228363,-0.8583966493606567,-10.245806694030762
1745668973.4184766,0.06383534520864487,-0.006243555806577206,-0.17976094782352448,-0.26751473546028137,-0.2381809949874878,-9.755844116210938
1745668973.4213445,0.07484674453735352,-0.01760704815387726,-0.17975887656211853,-0.004700264427810907,-0.13122160732746124,-8.979372024536133
1745668973.4259753,0.0507061704993248,-0.035645876079797745,-0.18235251307487488,0.5971396565437317,-0.4657856822013855,-9.503332138061523
1745668973.4296327,0.06013281270861626,-0.04057285934686661,-0.17430448532104492,0.2906300127506256,-0.1582254022359848,-10.698663711547852
1745668973.4339268,0.043390367180109024,-0.031841348856687546,-0.16474175453186035,0.0736464336514473,-0.6877776980400085,-10.433073043823242
1745668973.4606364,0.10019634664058685,-0.03655587509274483,-0.15092620253562927,-0.028710907325148582,-0.29745054244995117,-8.713776588439941
1745668973.4668286,0.04799460247159004,-0.04191058129072189,-0.14448930323123932,0.21634645760059357,-0.20384101569652557,-8.956491470336914
1745668973.4682553,0.11523866653442383,-0.06377948820590973,-0.14441744983196259,0.1853589564561844,0.22816815972328186,-10.521249771118164
1745668973.4710078,0.10521058738231659,-0.042588211596012115,-0.14871366322040558,-0.014154675416648388,0.32230010628700256,-10.55647087097168
1745668973.5042973,0.11603617668151855,-0.03898564353585243,-0.14903844892978668,0.029597561806440353,-0.5440891981124878,-9.278965950012207
1745668973.5063324,0.11696906387805939,-0.07014773041009903,-0.1483033299446106,0.10159824788570404,-0.12931928038597107,-8.833045959472656
1745668973.5084414,0.06454510986804962,-0.0717814713716507,-0.14475445449352264,0.2584865391254425,-1.0918241739273071,-10.347272872924805
1745668973.5106535,0.06680028140544891,-0.04687660187482834,-0.14257492125034332,-0.01582825556397438,-0.45542383193969727,-10.42833137512207
1745668973.5144544,0.030700042843818665,-0.07134191691875458,-0.07100633531808853,0.4573739469051361,-0.3157669007778168,-9.712973594665527
1745668973.5476024,0.010868176817893982,-0.06521902233362198,-0.07088343799114227,0.12569968402385712,-0.17205026745796204,-10.420263290405273
1745668973.5508883,0.035188861191272736,-0.049775198101997375,-0.07199091464281082,0.1531507670879364,-0.30375877022743225,-9.894552230834961
1745668973.5587707,0.01371290534734726,-0.058842938393354416,-0.06766979396343231,0.07470402866601944,-0.39153093099594116,-9.301093101501465
1745668973.5608926,0.016886761412024498,-0.06073227524757385,-0.0649619922041893,-0.04399239271879196,-0.32248467206954956,-9.739511489868164
1745668973.5911713,0.01106780581176281,-0.05054584890604019,-0.06305701285600662,0.2853551208972931,-0.5278704762458801,-10.291668891906738
1745668973.5950305,0.01111032348126173,-0.042995888739824295,-0.06297613680362701,0.12229035794734955,-0.2825309932231903,-9.992147445678711
1745668973.5975726,0.008306661620736122,-0.04745388403534889,-0.05693846195936203,0.35714080929756165,-0.6415264010429382,-9.472780227661133
1745668973.602295,-0.006460652686655521,-0.046668048948049545,-0.0500057153403759,0.39479860663414,-0.6704742312431335,-9.713994026184082
1745668973.6054432,-0.017125466838479042,-0.034698449075222015,-0.03944695368409157,0.3542221188545227,-0.7565239667892456,-10.282115936279297
1745668973.6365652,-0.034584593027830124,-0.03583149611949921,-0.033186789602041245,0.4303674101829529,-0.761283278465271,-9.982210159301758
1745668973.6426167,-0.04186393320560455,-0.0237546619027853,-0.02349833771586418,0.32480588555336,-0.4118214547634125,-9.458889961242676
1745668973.6435835,-0.060292862355709076,-0.02679792046546936,-0.018806632608175278,0.6507356762886047,-0.38710156083106995,-9.686701774597168
1745668973.6486154,-0.05676775425672531,-0.03168395906686783,-0.014574537985026836,0.5955687761306763,-0.018931057304143906,-10.272603988647461
1745668973.6771107,-0.06121297925710678,-0.012860518880188465,-0.012480431236326694,0.7457111477851868,-0.36145785450935364,-10.1399564743042
1745668973.6814027,-0.055753082036972046,-0.012607554905116558,-0.002171098720282316,0.5801070928573608,-0.047157660126686096,-9.460092544555664
1745668973.6849842,-0.05252410098910332,-0.0176840852946043,0.0026813154108822346,0.6197775602340698,0.013292697258293629,-9.591076850891113
1745668973.6967204,-0.03414442762732506,-0.018143104389309883,0.013072988018393517,0.6555839776992798,-0.030550306662917137,-10.322484970092773
1745668973.718351,0.006823600735515356,0.010750687681138515,0.019172033295035362,0.2958984076976776,0.33799052238464355,-10.155881881713867
1745668973.7236073,-0.07895322889089584,0.04585754871368408,0.09603270143270493,0.5369247198104858,0.14095722138881683,-10.241571426391602
1745668973.726834,-0.05162157863378525,0.05712466314435005,0.09750089049339294,0.4291819632053375,0.16241100430488586,-10.325189590454102
1745668973.729151,-0.03998686745762825,0.055932335555553436,0.10047660022974014,0.6399856209754944,0.002526867436245084,-9.435933113098145
1745668973.7326517,-0.04750418663024902,0.04476168006658554,0.10490051656961441,0.40029460191726685,-0.16154813766479492,-9.487264633178711
1745668973.762148,-0.048325564712285995,0.050872981548309326,0.10934263467788696,0.5543895959854126,-0.4105612337589264,-10.090356826782227
1745668973.7637146,-0.06325991451740265,0.058062076568603516,0.11426828801631927,0.5270694494247437,-0.35490596294403076,-10.022209167480469
1745668973.7664225,-0.07128970324993134,0.06309236586093903,0.11698828637599945,0.31969451904296875,-0.3700302243232727,-9.549219131469727
1745668973.7675173,-0.09230418503284454,0.04776593670248985,0.12013135105371475,0.5824021697044373,-0.48871344327926636,-9.435583114624023
1745668973.8057132,-0.0968828946352005,0.06048448011279106,0.1261693388223648,0.3934701979160309,-0.39903688430786133,-10.065164566040039
1745668973.807671,-0.1140945553779602,0.06162499636411667,0.12993016839027405,0.5501610040664673,-0.527166485786438,-10.026532173156738
1745668973.809708,-0.11667134612798691,0.05682825297117233,0.1378861963748932,0.3521111011505127,-0.27962133288383484,-9.57530403137207
1745668973.810958,-0.12174296379089355,0.063960000872612,0.1400548368692398,0.4193563461303711,-0.39638692140579224,-9.571752548217773
1745668973.8477244,-0.13887473940849304,0.061991702765226364,0.14631648361682892,0.44346004724502563,-0.15544426441192627,-9.775980949401855
1745668973.8529115,-0.11960339546203613,0.06255877017974854,0.14672504365444183,0.4330063760280609,-0.10900630801916122,-9.81641674041748
1745668973.8561673,-0.13077209889888763,0.059456318616867065,0.15263007581233978,0.6432066559791565,0.004050540737807751,-9.71552848815918
1745668973.8593423,-0.12840153276920319,0.06354443728923798,0.15221984684467316,0.3933733403682709,0.03300680220127106,-9.83384895324707
1745668973.863368,-0.11833764612674713,0.05889365077018738,0.15616872906684875,0.6544373035430908,-0.04849203675985336,-9.600966453552246
1745668973.890902,-0.12844254076480865,0.024917269125580788,0.2218564748764038,0.5509490966796875,0.12905415892601013,-9.681924819946289
1745668973.8955297,-0.12205474078655243,0.03322024270892143,0.22578179836273193,0.5930216312408447,-0.01565271057188511,-9.919665336608887
1745668973.8974252,-0.1262829452753067,0.02058212086558342,0.22663259506225586,0.5032005310058594,0.16084349155426025,-9.630291938781738
1745668973.899278,-0.12916716933250427,0.02266947366297245,0.2276109755039215,0.48892635107040405,-0.005085834302008152,-9.568278312683105
1745668973.9337692,-0.1310236155986786,0.018033822998404503,0.23155179619789124,0.6000142693519592,0.052211694419384,-9.716633796691895
1745668973.935247,-0.14415636658668518,0.020419737324118614,0.23317459225654602,0.3898785710334778,0.022607725113630295,-9.880725860595703
1745668973.937703,-0.13536886870861053,0.012439697980880737,0.2335699498653412,0.6835712194442749,-0.04134511575102806,-9.565561294555664
1745668973.9405062,-0.1608375757932663,0.013931125402450562,0.2387087345123291,0.47096461057662964,0.11007051169872284,-9.632094383239746
1745668973.9439123,-0.1515747457742691,0.013247604481875896,0.23981305956840515,0.6097594499588013,-0.08675815910100937,-9.83889102935791
1745668973.9777503,-0.16052329540252686,0.008371727541089058,0.24213643372058868,0.6114720702171326,0.2170427292585373,-9.674812316894531
1745668973.9778156,-0.15640506148338318,0.017126817256212234,0.24498729407787323,0.45114946365356445,0.21957635879516602,-9.67175579071045
1745668973.9790428,-0.14776095747947693,0.005367171950638294,0.2480621635913849,0.6016101837158203,0.24432110786437988,-9.649881362915039
1745668973.9873285,-0.15032008290290833,0.0020535930525511503,0.2479703426361084,0.4672675132751465,0.5465582609176636,-9.755846977233887
1745668974.0232651,-0.12466726452112198,-0.00110889901407063,0.2471797913312912,0.595465362071991,0.36237409710884094,-9.854719161987305
1745668974.0274534,-0.13200144469738007,-0.00023959220561664551,0.2416200190782547,0.23534497618675232,0.6073532700538635,-9.785375595092773
1745668974.0330474,-0.11149327456951141,-0.003658100962638855,0.24120721220970154,0.3662542402744293,0.2389477789402008,-9.59867000579834
1745668974.0365343,-0.12139161676168442,-0.012059273198246956,0.2412870228290558,0.35927170515060425,0.24964699149131775,-9.52678108215332
1745668974.0389762,-0.11174273490905762,-0.006687781773507595,0.24128451943397522,0.29777342081069946,0.02576768957078457,-9.881091117858887
1745668974.0651102,-0.12003934383392334,-0.012367529794573784,0.2453729808330536,0.46796876192092896,-0.0550590381026268,-9.817602157592773
1745668974.0700219,-0.09450262784957886,-0.04696119576692581,0.24037429690361023,0.12730643153190613,0.5290160179138184,-10.3367280960083
1745668974.0723276,-0.08233323693275452,-0.03092770278453827,0.2326565682888031,0.13926732540130615,0.5408686399459839,-9.813214302062988
1745668974.0814989,-0.114065982401371,-0.05543317645788193,0.22674787044525146,-0.018938347697257996,0.35638150572776794,-9.202058792114258
1745668974.107604,-0.08046112209558487,-0.05745752900838852,0.22232823073863983,0.06989000737667084,0.1448947638273239,-9.765395164489746
1745668974.1123068,-0.11681099981069565,-0.04299909994006157,0.22204193472862244,-0.11845982074737549,-0.030617957934737206,-10.40484619140625
1745668974.116566,-0.10836508125066757,-0.03765152394771576,0.22427913546562195,-0.15143296122550964,-0.18814602494239807,-9.702445983886719
1745668974.1208894,-0.12123225629329681,-0.05850033834576607,0.22230875492095947,0.44044700264930725,0.005339791066944599,-8.90643310546875
1745668974.1551418,-0.14459198713302612,-0.055127836763858795,0.22378750145435333,0.14456181228160858,0.09801752865314484,-10.214455604553223
1745668974.155255,-0.13696470856666565,-0.055376727133989334,0.22162628173828125,0.2414499819278717,0.04638340324163437,-10.674487113952637
1745668974.1573753,-0.16020070016384125,-0.05457647517323494,0.21468058228492737,0.142330139875412,0.4230819642543793,-9.434554100036621
1745668974.16108,-0.15573982894420624,-0.05709264799952507,0.21089455485343933,0.15815062820911407,0.32966387271881104,-9.047093391418457
1745668974.1931326,-0.1714153289794922,-0.07566116750240326,0.207026869058609,0.15816852450370789,0.5821037888526917,-10.03767204284668
1745668974.1972258,-0.1497243195772171,-0.05654406547546387,0.20163290202617645,0.11886046081781387,0.7638760805130005,-10.546989440917969
1745668974.200789,-0.13617485761642456,-0.05579596757888794,0.19937722384929657,0.20873895287513733,0.8373693227767944,-9.525066375732422
1745668974.2036848,-0.11066935211420059,-0.06893366575241089,0.1945490539073944,0.09969407320022583,0.9893072843551636,-9.190694808959961
1745668974.2076824,-0.07987029105424881,-0.07634415477514267,0.1936018019914627,0.3793366849422455,0.7342519164085388,-10.075756072998047
1745668974.2367492,-0.06531497091054916,-0.06211235001683235,0.19350917637348175,0.051054276525974274,0.7625225782394409,-10.510549545288086
1745668974.2395208,0.005187836941331625,-0.046680748462677,0.12222583591938019,0.12297370284795761,0.059984661638736725,-8.457565307617188
1745668974.2482026,-0.048483118414878845,-0.06046900153160095,0.12077473104000092,0.14970660209655762,0.3769020736217499,-9.682194709777832
1745668974.248264,-0.017269084230065346,-0.03959953039884567,0.11474786698818207,0.021326879039406776,0.2703166902065277,-11.263246536254883
1745668974.279667,-0.02030412293970585,-0.022943053394556046,0.10768608748912811,0.07742233574390411,0.6549139022827148,-9.845970153808594
1745668974.2826817,-0.02692519500851631,-0.03842838481068611,0.10255787521600723,0.22345300018787384,0.49075525999069214,-8.603227615356445
1745668974.2835953,-0.024144673720002174,-0.05083432048559189,0.09842099249362946,0.4294717311859131,0.3851565718650818,-9.735200881958008
1745668974.2850556,-0.03446456044912338,-0.035602398216724396,0.09870615601539612,0.12775027751922607,0.4676312804222107,-11.103982925415039
1745668974.322847,-0.004226979799568653,-0.015796009451150894,0.09760311245918274,0.2601150870323181,0.4899195730686188,-9.877758979797363
1745668974.3238604,-0.0296020545065403,-0.029857715591788292,0.09289063513278961,0.19450703263282776,0.731084942817688,-8.701415061950684
1745668974.3266041,0.005710785277187824,-0.04236740246415138,0.09025831520557404,0.43643197417259216,0.879601001739502,-9.673970222473145
1745668974.3298364,0.015697091817855835,-0.029093962162733078,0.08012917637825012,0.20874929428100586,1.0861077308654785,-10.965446472167969
1745668974.334816,0.05493137240409851,-0.0028850126545876265,0.06655468046665192,0.259257972240448,0.9415097236633301,-9.950983047485352
1745668974.36665,0.08030220121145248,-0.01994372345507145,0.06243978813290596,0.6666142344474792,0.615352988243103,-8.733721733093262
1745668974.36882,0.062335677444934845,-0.030808353796601295,0.058880291879177094,0.4280460774898529,0.5173369646072388,-9.81002140045166
1745668974.3720589,0.09877909719944,-0.003680948866531253,0.05874983221292496,0.4112693667411804,0.2448398768901825,-10.809895515441895
1745668974.3756225,0.06799882650375366,0.01143898069858551,0.04932666942477226,0.3978394865989685,0.31538471579551697,-9.733799934387207
1745668974.4107425,0.09298904985189438,0.0029937326908111572,0.04549798741936684,0.6338017582893372,0.2568807601928711,-8.88176155090332
1745668974.4128523,0.06174268200993538,-0.011880176141858101,0.036228470504283905,0.6112843155860901,0.4539661407470703,-9.95368766784668
1745668974.4160838,0.06556715816259384,0.014906078577041626,0.027632951736450195,0.28733786940574646,0.23616766929626465,-10.940628051757812
1745668974.42298,0.1185591071844101,0.04894475266337395,-0.04916464164853096,0.46368733048439026,-0.014210939407348633,-9.904987335205078
1745668974.4271798,0.1322389543056488,0.0591227188706398,-0.054370276629924774,0.2809721529483795,0.08295007050037384,-10.173463821411133
1745668974.450786,0.14205698668956757,0.058823294937610626,-0.05628526955842972,0.5284775495529175,0.37831878662109375,-9.460107803344727
1745668974.4554973,0.12333822250366211,0.056134603917598724,-0.06127910688519478,0.3642803132534027,0.38018301129341125,-9.546548843383789
1745668974.458087,0.17125900089740753,0.06284447014331818,-0.06828037649393082,0.35165250301361084,0.6766551733016968,-9.839381217956543
1745668974.4613495,0.13791941106319427,0.06183657795190811,-0.07581941783428192,0.47509893774986267,0.31458133459091187,-9.902620315551758
1745668974.4957635,0.17602649331092834,0.06660932302474976,-0.0790901929140091,0.4544602036476135,0.355427622795105,-9.653341293334961
1745668974.4967015,0.16216835379600525,0.05091292783617973,-0.08200608193874359,0.6506556272506714,0.19833746552467346,-9.654047012329102
1745668974.498438,0.17354336380958557,0.06605057418346405,-0.08294026553630829,0.5062995553016663,0.2314034402370453,-9.936294555664062
1745668974.5011272,0.16894319653511047,0.06253989040851593,-0.0851658433675766,0.6957114934921265,0.2621821463108063,-9.748372077941895
1745668974.5366533,0.17801909148693085,0.057586364448070526,-0.08980641514062881,0.4810829758644104,0.28757569193840027,-9.583261489868164
1745668974.5382595,0.17703887820243835,0.06361469626426697,-0.09624033421278,0.4910814166069031,0.37170177698135376,-9.718396186828613
1745668974.541096,0.18472135066986084,0.05835471302270889,-0.10172291100025177,0.3672635555267334,0.11761753261089325,-9.938885688781738
1745668974.5445476,0.2016887217760086,0.0636543333530426,-0.10688690096139908,0.41336435079574585,0.39363038539886475,-9.533991813659668
1745668974.5461223,0.17485657334327698,0.059740543365478516,-0.10982353985309601,0.5962674021720886,-0.18902179598808289,-9.620321273803711
1745668974.582305,0.20470523834228516,0.06057097390294075,-0.11054098606109619,0.3449585437774658,0.20830540359020233,-9.85609245300293
1745668974.5841758,0.16728739440441132,0.06188254430890083,-0.1145169734954834,0.6348928809165955,-0.20294587314128876,-9.779870986938477
1745668974.5871031,0.19777309894561768,-0.004050374962389469,-0.09756910800933838,0.13197356462478638,0.7697161436080933,-10.342046737670898
1745668974.5882092,0.12327656894922256,-0.005089340265840292,-0.10341103374958038,-0.2447654902935028,-0.09363234043121338,-9.335002899169922
1745668974.6225877,0.20913036167621613,-0.03511444106698036,-0.10242261737585068,0.39644426107406616,-0.3167096972465515,-8.719682693481445
1745668974.625126,0.11140141636133194,-0.03101358376443386,-0.09845848381519318,0.027596155181527138,-0.2310052216053009,-10.157449722290039
1745668974.6278884,0.11625989526510239,-0.012404617853462696,-0.09431085735559464,0.18818160891532898,-1.040427327156067,-10.634539604187012
1745668974.6293204,0.13066096603870392,-0.015015685930848122,-0.08553756773471832,0.5163038372993469,-0.4193572998046875,-8.80642318725586
1745668974.666279,0.03706051781773567,-0.04291362687945366,-0.08203522115945816,0.24351513385772705,-0.5115076899528503,-9.27053165435791
1745668974.6678026,0.10237207263708115,-0.0437958799302578,-0.07890747487545013,0.40574049949645996,-0.39825400710105896,-10.655705451965332
1745668974.6701183,0.06763210147619247,-0.026009589433670044,-0.08078256994485855,-0.14591582119464874,0.4202660620212555,-10.414257049560547
1745668974.6734958,0.08670923858880997,-0.028402041643857956,-0.08419694751501083,-0.12253861129283905,-0.37329068779945374,-8.985956192016602
1745668974.711026,0.08904556930065155,-0.04791944473981857,-0.08330680429935455,-0.08049188554286957,0.22973501682281494,-8.553939819335938
1745668974.7134924,0.06805814802646637,-0.027171975001692772,-0.0710383728146553,-0.013847899623215199,-0.7992204427719116,-10.359766006469727
1745668974.7168205,0.10233120620250702,-0.02823393978178501,-0.05290937423706055,0.8321483731269836,-0.23028533160686493,-10.403383255004883
1745668974.718318,0.08686374127864838,-0.05628974363207817,-0.05769103765487671,0.8762806057929993,0.3384569585323334,-9.953925132751465
1745668974.7514117,0.13556067645549774,-0.04870794340968132,-0.06658051908016205,0.011253777891397476,0.38403844833374023,-10.076807975769043
1745668974.7547271,0.07444841414690018,-0.055542074143886566,-0.08098482340574265,0.08406925201416016,0.480407178401947,-9.055105209350586
1745668974.7555652,0.13419325649738312,-0.09014058858156204,-0.09148247539997101,0.2621996998786926,-0.2665640711784363,-9.617918014526367
1745668974.7569306,0.09917408227920532,-0.048596013337373734,-0.09259693324565887,-0.8989049196243286,0.013068628497421741,-10.814399719238281
1745668974.7590253,0.0686563104391098,-0.0428096204996109,-0.07781785726547241,-0.2639598250389099,-1.63101327419281,-9.37209701538086
1745668974.798266,0.11456857621669769,-0.04299648478627205,-0.017922233790159225,0.03365696966648102,-0.19927242398262024,-11.156057357788086
1745668974.7989473,0.09066224843263626,-0.028857355937361717,-0.026344675570726395,0.019763348624110222,-0.18087522685527802,-10.008556365966797
1745668974.801691,0.08043117821216583,-0.044871650636196136,-0.032780587673187256,0.34048810601234436,-0.46961265802383423,-8.599055290222168
1745668974.8031814,0.02208855375647545,-0.06442395597696304,-0.04030296206474304,0.2765628695487976,-0.5939654111862183,-9.76082706451416
1745668974.8397048,-0.0013102747034281492,-0.03982720896601677,-0.034254040569067,0.4287850260734558,-1.4919483661651611,-11.083536148071289
1745668974.8422878,-0.02358303591609001,-0.015728265047073364,-0.015859585255384445,0.3649265766143799,-1.0054925680160522,-9.565786361694336
1745668974.844976,-0.06567881256341934,-0.03884298354387283,-0.0003414507955312729,0.3715633749961853,-1.0092483758926392,-8.814779281616211
1745668974.848351,-0.0483391210436821,-0.03925572335720062,0.014003780670464039,0.5570053458213806,-0.2123398333787918,-9.836899757385254
1745668974.851159,-0.03319413959980011,-0.011821231804788113,0.01741105690598488,0.36559638381004333,0.3511517643928528,-10.833827018737793
1745668974.8818152,0.0020784977823495865,-0.015593637712299824,0.018591081723570824,0.5043767690658569,0.5331562161445618,-9.877111434936523
1745668974.885238,0.020989052951335907,-0.028936833143234253,0.015287468209862709,0.4563492238521576,0.5216599106788635,-9.112767219543457
1745668974.890779,0.026606369763612747,-0.017140494659543037,0.02059163711965084,0.47243985533714294,-0.022457007318735123,-9.955851554870605
1745668974.8909132,0.03274073824286461,-0.009850259870290756,0.024111304432153702,0.47356969118118286,-0.12750454246997833,-10.200830459594727
1745668974.9234378,0.017685983330011368,-0.002181359101086855,0.03232809901237488,0.750029444694519,-0.2544328570365906,-9.633513450622559
1745668974.9262173,0.010392216965556145,-0.014275545254349709,0.04065294563770294,0.9040961265563965,-0.1796618551015854,-9.849409103393555
1745668974.927652,0.03172549605369568,-0.005027553997933865,0.0459502674639225,0.7862364053726196,0.141356959939003,-10.298787117004395
1745668974.9287198,0.03677501156926155,0.0010520083596929908,0.05135386064648628,0.6013893485069275,-0.0993775725364685,-9.952869415283203
1745668974.9313464,-0.08474445343017578,0.04212876409292221,0.1491636335849762,0.3476073741912842,-0.5778641104698181,-10.233731269836426
1745668974.966802,-0.1059470921754837,0.05899935960769653,0.1541602462530136,0.457152783870697,-0.7349653840065002,-10.091529846191406
1745668974.9700649,-0.11770285665988922,0.05657512694597244,0.16094869375228882,0.2800043225288391,-0.2719072103500366,-9.22987174987793
1745668974.9726694,-0.12578381597995758,0.046677831560373306,0.1680392324924469,0.5010615587234497,-0.30007219314575195,-9.41380500793457
1745668974.9740202,-0.11495792865753174,0.05099223181605339,0.1707211434841156,0.5247057676315308,0.004496338777244091,-10.24130916595459
1745668975.010253,-0.1038900837302208,0.06652290374040604,0.17281177639961243,0.5297904014587402,0.253238320350647,-10.066366195678711
1745668975.012768,-0.09713371098041534,0.05015992373228073,0.1765088140964508,0.5789889097213745,-0.0469149649143219,-9.368352890014648
1745668975.013967,-0.07897479832172394,0.050348423421382904,0.1811678558588028,0.4096154272556305,0.2565857470035553,-9.480449676513672
1745668975.0163128,-0.09980196505784988,0.05524526163935661,0.1849023997783661,0.5494822263717651,-0.20273129642009735,-10.142391204833984
1745668975.0533118,-0.07865393906831741,0.056548573076725006,0.18597312271595,0.41069644689559937,0.13716845214366913,-9.7924165725708
1745668975.0572777,-0.08928550779819489,0.05816028639674187,0.18835005164146423,0.6544376015663147,0.021900195628404617,-9.360550880432129
1745668975.0606017,-0.08827625960111618,0.04653166979551315,0.18942463397979736,0.5763460397720337,0.10352569818496704,-9.800834655761719
1745668975.071084,-0.08111336082220078,0.05207056552171707,0.18984457850456238,0.6638280749320984,0.06338750571012497,-10.077630043029785
1745668975.0714238,-0.08294263482093811,0.0476921871304512,0.19329741597175598,0.5978218913078308,-0.15557646751403809,-9.850558280944824
1745668975.0989923,-0.08088834583759308,0.05199195072054863,0.20107004046440125,0.3566337525844574,-0.17681291699409485,-9.539530754089355
1745668975.103128,-0.09646536409854889,0.04058486223220825,0.2045770138502121,0.5275312066078186,-0.33588510751724243,-9.591253280639648
1745668975.1067264,-0.08798573166131973,0.04758055880665779,0.21233049035072327,0.3949698209762573,-0.0738791897892952,-9.77501392364502
1745668975.1112027,-0.11032240092754364,0.04827718809247017,0.21160754561424255,0.5272667407989502,-0.22601664066314697,-9.842302322387695
1745668975.138938,-0.10457368940114975,0.037789322435855865,0.2111400067806244,0.4801955223083496,-0.06138211488723755,-9.738795280456543
1745668975.1409595,-0.1218498945236206,0.017690159380435944,0.24845609068870544,0.6213244199752808,-0.029230203479528427,-9.743162155151367
1745668975.1434245,-0.14241327345371246,0.00888265110552311,0.24877473711967468,0.5700580477714539,-0.07777558267116547,-9.754899978637695
1745668975.1455665,-0.1353636085987091,0.021869158372282982,0.2522727847099304,0.3936717212200165,0.04975248500704765,-9.729848861694336
1745668975.18588,-0.15392981469631195,0.011921444907784462,0.25682637095451355,0.5195642709732056,-0.04840241000056267,-9.577998161315918
1745668975.1896377,-0.1368054747581482,0.008292039856314659,0.2561400234699249,0.4627586305141449,0.2770721912384033,-9.59442138671875
1745668975.1954367,-0.14984062314033508,0.010565844364464283,0.2574065029621124,0.6418613791465759,0.22732870280742645,-9.841039657592773
1745668975.19988,-0.13886567950248718,0.006929859519004822,0.2583770155906677,0.4442985951900482,0.22334134578704834,-9.945883750915527
1745668975.2039127,-0.12382350116968155,0.008219537325203419,0.2596071660518646,0.66097092628479,0.32822877168655396,-9.489837646484375
1745668975.2394307,-0.13821963965892792,0.002524522366002202,0.2630876898765564,0.5183778405189514,0.10152588039636612,-9.577674865722656
1745668975.2395499,-0.11539826542139053,0.004413542337715626,0.26586076617240906,0.4869064390659332,0.2788075804710388,-9.86152172088623
1745668975.2396302,-0.13777297735214233,-0.004850934259593487,0.2670484483242035,0.5892162919044495,0.23995700478553772,-9.826311111450195
1745668975.2396874,-0.10931895673274994,0.0037950463593006134,0.26251161098480225,0.3616713285446167,0.49692970514297485,-9.597208976745605
1745668975.2679322,-0.12000967562198639,-0.009824690409004688,0.26089584827423096,0.40228453278541565,0.37748345732688904,-9.645471572875977
1745668975.270157,-0.11021013557910919,-0.016154592856764793,0.25865983963012695,0.2604600191116333,0.21517281234264374,-9.896500587463379
1745668975.2726028,-0.10354314744472504,-0.0012044105678796768,0.2575320601463318,0.42163342237472534,0.16609874367713928,-9.62913990020752
1745668975.2806737,-0.1324993371963501,-0.012191195972263813,0.2604822516441345,0.26850178837776184,-0.1818925440311432,-9.599611282348633
1745668975.2816534,-0.107103131711483,-0.01545005850493908,0.26478224992752075,0.39704984426498413,-0.024854253977537155,-9.630697250366211
1745668975.3173306,-0.1349751055240631,-0.05773470550775528,0.23180285096168518,0.56032794713974,-0.00949832797050476,-9.908498764038086
1745668975.3174593,-0.2025546133518219,-0.05417998880147934,0.22775587439537048,0.05290408059954643,-0.10642027854919434,-10.934211730957031
1745668975.321227,-0.15463949739933014,-0.06424994021654129,0.21852341294288635,0.08333197981119156,0.5745975375175476,-9.5196533203125
1745668975.3255503,-0.2106662541627884,-0.06211124733090401,0.20913191139698029,0.07128843665122986,0.5331543684005737,-8.89818000793457
1745668975.3567135,-0.1823839247226715,-0.07711441814899445,0.20238430798053741,-0.12080498039722443,0.7768409848213196,-9.96894359588623
1745668975.3601015,-0.16860784590244293,-0.06713448464870453,0.19536897540092468,0.04243053123354912,1.02387273311615,-10.521425247192383
1745668975.363103,-0.1380811333656311,-0.06696969270706177,0.18844369053840637,0.10539331287145615,1.1065192222595215,-9.602457046508789
1745668975.3648899,-0.08845188468694687,-0.07126716524362564,0.18880631029605865,0.28648990392684937,1.202573299407959,-9.126603126525879
1745668975.401417,-0.060842256993055344,-0.0883028581738472,0.18524222075939178,0.24884705245494843,0.7886835932731628,-10.241405487060547
1745668975.4022331,-0.008278676308691502,-0.07293219119310379,0.1892145574092865,0.14359082281589508,0.863815188407898,-10.550005912780762
1745668975.4036665,-0.01485739927738905,-0.07250519096851349,0.1881961077451706,0.04760952293872833,0.26292723417282104,-9.720754623413086
1745668975.4094067,0.009442741051316261,-0.07854614406824112,0.18522918224334717,-0.09894056618213654,0.43842601776123047,-8.943216323852539
1745668975.4105787,-0.03600960224866867,-0.08581602573394775,0.181682288646698,0.12632371485233307,0.10742119699716568,-9.801774978637695
1745668975.445269,-0.04247450828552246,-0.07296980172395706,0.17116490006446838,-0.07318603992462158,0.09849231690168381,-10.671879768371582
1745668975.4476664,-0.04754852131009102,-0.06184378266334534,0.16748984158039093,0.2741147577762604,0.21150007843971252,-9.623456954956055
1745668975.4501166,-0.08470327407121658,-0.08303840458393097,0.16734452545642853,0.0815059095621109,-0.20850880444049835,-9.276501655578613
1745668975.4515364,-0.07920728623867035,-0.07550611346960068,0.17091329395771027,-0.03601794317364693,-0.06417464464902878,-9.871772766113281
1745668975.4852448,-0.13933217525482178,-0.0764281302690506,0.16977736353874207,0.15722522139549255,-0.3817748725414276,-10.365930557250977
1745668975.4870148,-0.13845373690128326,-0.06364311277866364,0.1687820702791214,-0.3001174032688141,0.31786245107650757,-9.921273231506348
1745668975.488554,-0.0473221018910408,-0.04795736074447632,0.122248075902462,0.44490283727645874,0.20389065146446228,-9.48062515258789
1745668975.4920325,-0.04698902368545532,-0.048068638890981674,0.11421111971139908,0.09822313487529755,1.2230993509292603,-10.396944046020508
1745668975.5274794,-0.01096772775053978,-0.03019440546631813,0.10376161336898804,0.026240786537528038,0.767951488494873,-10.628955841064453
1745668975.5304496,0.0057947663590312,-0.0290185809135437,0.09695158153772354,-0.021407177671790123,1.0722105503082275,-9.252665519714355
1745668975.5326061,0.0036080381833016872,-0.03532031178474426,0.09294691681861877,0.07287236303091049,0.44162148237228394,-9.131328582763672
1745668975.5345342,0.01618228480219841,-0.04157572612166405,0.09417026489973068,0.369492769241333,0.38579264283180237,-10.08739185333252
1745668975.5357687,0.0015465989708900452,-0.018368417397141457,0.08874091506004333,0.26844972372055054,0.6498783230781555,-10.61889362335205
1745668975.5709047,0.023286841809749603,-0.018463237211108208,0.08597985655069351,0.6529392004013062,0.3510248363018036,-9.711048126220703
1745668975.5738196,0.023815641179680824,-0.03089309111237526,0.07937569916248322,0.3686642646789551,1.088871955871582,-9.299921035766602
1745668975.575055,0.03589315339922905,-0.026752565056085587,0.07143421471118927,0.6347020864486694,0.5034605264663696,-10.199999809265137
1745668975.577012,0.07149024307727814,-0.020087115466594696,0.06330333650112152,0.32571229338645935,0.6675446629524231,-10.436250686645508
1745668975.6150606,0.06511256843805313,-0.0031315102241933346,0.060576021671295166,0.2174386978149414,0.4040016233921051,-9.548503875732422
1745668975.6174402,0.07880257070064545,-0.009718803688883781,0.05681268498301506,0.22281524538993835,0.3574555516242981,-9.05119514465332
1745668975.619397,0.0709385797381401,0.002865837188437581,0.05282536894083023,0.2853170931339264,0.49170953035354614,-9.767879486083984
1745668975.6232736,0.0894465446472168,0.00618401076644659,0.041830502450466156,0.6515907049179077,0.12754739820957184,-10.423933029174805
1745668975.6246803,0.07185181230306625,0.018791161477565765,0.035045646131038666,0.4445198178291321,0.5351663827896118,-9.924393653869629
1745668975.6580842,0.07853271067142487,0.013965630903840065,0.02832525037229061,0.6288711428642273,0.023218998685479164,-9.482583999633789
1745668975.6614656,0.1547435075044632,0.06671098619699478,-0.08501878380775452,0.5397945046424866,0.29167813062667847,-9.87618637084961
1745668975.6637843,0.17370891571044922,0.0699450820684433,-0.08935873210430145,0.5282791256904602,0.12742158770561218,-9.497429847717285
1745668975.665962,0.14601249992847443,0.06213425472378731,-0.09601530432701111,0.6258445978164673,0.1972465068101883,-9.561178207397461
1745668975.6988435,0.15905959904193878,0.06344861537218094,-0.10113854706287384,0.44834375381469727,0.001098275650292635,-10.106151580810547
1745668975.701151,0.16338267922401428,0.062365561723709106,-0.10256575047969818,0.5886555910110474,0.023106122389435768,-9.847175598144531
1745668975.702997,0.1453130841255188,0.0660824179649353,-0.10471408069133759,0.335857093334198,0.08677438646554947,-9.520088195800781
1745668975.7060864,0.1737852394580841,0.06620578467845917,-0.10662718117237091,0.49517807364463806,0.02698194980621338,-9.480607986450195
1745668975.7427723,0.14337030053138733,0.05607781931757927,-0.1098880022764206,0.48653513193130493,0.10477419197559357,-9.789892196655273
1745668975.7445123,0.16078178584575653,0.06512615829706192,-0.11544356495141983,0.5180976986885071,0.03146867826581001,-10.033090591430664
1745668975.7470386,0.14842627942562103,0.056285224854946136,-0.11804167926311493,0.5481152534484863,-0.007252038922160864,-9.71183967590332
1745668975.7470884,0.1553448885679245,0.06194020062685013,-0.12088155746459961,0.532603919506073,0.04996364563703537,-9.499532699584961
1745668975.7517292,0.13588538765907288,0.05198102071881294,-0.12556056678295135,0.7043689489364624,-0.036998454481363297,-9.667276382446289
1745668975.7925837,0.14396217465400696,0.055668897926807404,-0.1296766996383667,0.42108678817749023,0.028106749057769775,-9.838061332702637
1745668975.7942526,0.13670256733894348,0.06045467406511307,-0.12938259541988373,0.5923780202865601,0.1801212728023529,-9.646327018737793
1745668975.8025234,0.13567790389060974,0.0539700984954834,-0.13589006662368774,0.43113261461257935,0.11286773532629013,-9.63101577758789
1745668975.806768,0.17366959154605865,0.050857625901699066,-0.13976100087165833,0.5424522757530212,0.35561132431030273,-9.580351829528809
1745668975.82906,0.15343840420246124,0.04825263470411301,-0.1444322019815445,0.5540467500686646,0.18450088798999786,-9.828289985656738
1745668975.8317077,0.1988580971956253,0.05804286152124405,-0.14490553736686707,0.39537477493286133,0.22474896907806396,-9.80784797668457
1745668975.8355303,0.18930423259735107,0.0415385439991951,-0.13733148574829102,0.40293970704078674,-0.22292163968086243,-9.478560447692871
1745668975.841232,0.20167016983032227,0.04590155929327011,-0.1313212364912033,-0.16544900834560394,-0.0924072116613388,-9.579532623291016
1745668975.8696299,0.1597401201725006,-0.034121073782444,-0.101246677339077,0.2763475775718689,-0.3602898120880127,-8.964902877807617
1745668975.8716373,0.12296076864004135,-0.028387248516082764,-0.09923262894153595,0.04631514102220535,-0.37033551931381226,-10.349527359008789
1745668975.8754468,0.10826734453439713,-0.009044650010764599,-0.09659025818109512,0.22082671523094177,-0.6740210056304932,-10.267404556274414
1745668975.8798282,0.06998790800571442,-0.021409224718809128,-0.09095947444438934,0.3259240686893463,-0.6442309021949768,-8.90880298614502
1745668975.8827534,0.07716722786426544,-0.03652229905128479,-0.08536072075366974,0.46079570055007935,-0.5523394346237183,-9.254056930541992
1745668975.9167485,0.027691995725035667,-0.04090430215001106,-0.0839366465806961,0.22922798991203308,-0.11262968927621841,-10.689958572387695
1745668975.918161,0.07298873364925385,-0.02853020653128624,-0.08323167264461517,0.06575007736682892,-0.1838287115097046,-10.45244312286377
1745668975.9213204,0.06519021093845367,-0.026627227663993835,-0.08483365923166275,-0.1464141309261322,0.23963622748851776,-8.676987648010254
1745668975.9227798,0.05113980919122696,-0.04663731902837753,-0.08313000947237015,-0.08702033758163452,-0.27664321660995483,-9.009638786315918
1745668975.9574106,0.08474056422710419,-0.043427638709545135,-0.07843802124261856,0.09793012589216232,-0.1036706194281578,-10.33161735534668
1745668975.9579964,0.06820820271968842,-0.01424814946949482,-0.06539968401193619,0.07334500551223755,-0.3369261920452118,-10.427332878112793
1745668975.9674618,0.0935840755701065,-0.03459376096725464,-0.05285835266113281,1.0546040534973145,-0.3193871080875397,-9.194470405578613
1745668975.9676373,0.0943290963768959,-0.08217489719390869,-0.05741236358880997,0.6379879117012024,0.8668419122695923,-9.94698715209961
1745668975.969156,0.08903297036886215,-0.042279817163944244,-0.07530250400304794,-0.1590806543827057,0.09598983824253082,-11.056557655334473
1745668976.0019097,0.11748981475830078,-0.05105644464492798,-0.08233686536550522,0.2517493665218353,0.2724427878856659,-8.87062931060791
1745668976.0053663,0.07605837285518646,-0.08952900022268295,-0.09308114647865295,-0.17492972314357758,0.06980668008327484,-8.94386100769043
1745668976.0119348,-0.08122727274894714,-0.03078409656882286,0.01412493921816349,0.5660368204116821,-0.20164892077445984,-10.280023574829102
1745668976.0166194,-0.032126955687999725,-0.01962612196803093,0.015317656099796295,0.4281722903251648,0.7342157959938049,-10.755804061889648
1745668976.0472274,-0.00023181569122243673,-0.019717415794730186,0.01713254675269127,0.5749143362045288,0.7213637232780457,-9.643241882324219
1745668976.050059,0.026546400040388107,-0.02068277820944786,0.01539345271885395,0.21628570556640625,0.6208218932151794,-9.257368087768555
1745668976.0537345,0.05372869223356247,-0.014627953059971333,0.02018629014492035,0.38510146737098694,0.23575285077095032,-9.807706832885742
1745668976.055855,0.038827039301395416,-0.010184180922806263,0.02139020897448063,0.6029143333435059,0.07937601953744888,-10.060062408447266
1745668976.0879169,0.06311454623937607,-0.004744815174490213,0.028797751292586327,0.7855557799339294,-0.1684209555387497,-10.033435821533203
1745668976.0909164,0.05371704697608948,-0.007890586741268635,0.035509176552295685,0.8753057718276978,0.06686122715473175,-9.973478317260742
1745668976.0931828,0.060491226613521576,-0.004740722943097353,0.04133446142077446,0.6236027479171753,-0.13536563515663147,-9.913799285888672
1745668976.0961363,0.06707488000392914,-0.0018109662923961878,0.048774734139442444,0.7394548654556274,-0.2550406754016876,-9.682657241821289
1745668976.1284628,0.06351722776889801,-0.004161360207945108,0.05487566068768501,0.3767932951450348,-0.2701248824596405,-9.988801956176758
1745668976.130036,0.05984616279602051,0.004696968011558056,0.0627010315656662,0.10838313400745392,-0.5218995809555054,-10.03010368347168
1745668976.1334896,0.04718386381864548,0.017887461930513382,0.06791181117296219,-0.026266034692525864,-0.6114422082901001,-9.435020446777344
1745668976.1335444,0.026393407955765724,0.023225445300340652,0.07285045087337494,0.20328502357006073,-0.5811269879341125,-9.278847694396973
1745668976.1358318,-0.0013000948820263147,0.010608543641865253,0.07639485597610474,0.4737792909145355,-0.7552906274795532,-10.139315605163574
1745668976.1749086,-0.022384759038686752,0.0354139506816864,0.07684870064258575,0.3899758458137512,-0.6795464158058167,-10.4881591796875
1745668976.1771467,-0.056337617337703705,0.03876149654388428,0.08032156527042389,0.5984660983085632,-0.8784705996513367,-9.534036636352539
1745668976.1796322,-0.08381104469299316,0.02584080398082733,0.09110121428966522,0.6032460927963257,-0.7156349420547485,-9.02866268157959
1745668976.187628,-0.10061504691839218,0.03327886387705803,0.09977307915687561,0.6027368307113647,-0.7461401224136353,-10.129652976989746
1745668976.2168615,-0.10416609048843384,0.05792761966586113,0.150601327419281,0.418302446603775,-0.6140729784965515,-9.367989540100098
1745668976.2186291,-0.11440446227788925,0.05487102270126343,0.15687374770641327,0.327595055103302,-0.19601495563983917,-9.107006072998047
1745668976.2201343,-0.12474087625741959,0.056076157838106155,0.16198930144309998,0.5338746309280396,-0.2095637023448944,-10.005104064941406
1745668976.2214315,-0.09874807298183441,0.05597010254859924,0.16658200323581696,0.6332231760025024,0.12530399858951569,-10.23301887512207
1745668976.2609844,-0.09149788320064545,0.06933607161045074,0.16843794286251068,0.4973143935203552,0.24397389590740204,-9.777071952819824
1745668976.2610936,-0.08376257121562958,0.052226971834897995,0.17431673407554626,0.5435802340507507,-0.04008379951119423,-9.420502662658691
1745668976.2641146,-0.060894258320331573,0.05661613866686821,0.17714771628379822,0.4342411458492279,0.24557951092720032,-9.639541625976562
1745668976.2680202,-0.0773654580116272,0.06282496452331543,0.1789238005876541,0.516284167766571,-0.06699596345424652,-10.012014389038086
1745668976.2713585,-0.05785030871629715,0.05501290038228035,0.1824607104063034,0.40980830788612366,0.19097723066806793,-9.827927589416504
1745668976.3051903,-0.07615090906620026,0.05919681861996651,0.1810436248779297,0.7096582651138306,0.01949549838900566,-9.544462203979492
1745668976.3062031,-0.06250902265310287,0.047895707190036774,0.18320037424564362,0.6226925849914551,0.08837135881185532,-9.784706115722656
1745668976.3109534,-0.07347378134727478,0.04906094819307327,0.18236514925956726,0.5603705048561096,-0.17849203944206238,-10.121274948120117
1745668976.3142629,-0.08047230541706085,0.049377866089344025,0.19119442999362946,0.6341840028762817,-0.40465205907821655,-9.805619239807129
1745668976.3443189,-0.08515815436840057,0.05392798036336899,0.19726993143558502,0.44901758432388306,-0.19767074286937714,-9.36717414855957
1745668976.3500109,-0.09639424085617065,0.04245498403906822,0.20609016716480255,0.5080778002738953,-0.40262144804000854,-9.598159790039062
1745668976.3542974,-0.09304580092430115,0.04347357153892517,0.20766706764698029,0.4346187710762024,-0.040792930871248245,-9.941895484924316
1745668976.3564665,-0.10279516875743866,0.05273957923054695,0.20938026905059814,0.5346733331680298,-0.07582265138626099,-9.88139533996582
1745668976.3859785,0.007156156003475189,-0.02812398411333561,0.1518043726682663,-0.023381393402814865,0.5161750316619873,-9.231377601623535
1745668976.3926873,0.004120512865483761,-0.04375932738184929,0.14941827952861786,0.22864565253257751,0.20868685841560364,-8.696207046508789
1745668976.3949585,-0.014459204860031605,-0.05304614454507828,0.14606733620166779,0.2913561761379242,-0.20637992024421692,-10.180753707885742
1745668976.3993027,-0.008495754562318325,-0.04608302563428879,0.14412903785705566,0.051280368119478226,0.0011625740444287658,-10.743961334228516
1745668976.4046025,-0.03302283212542534,-0.013340015895664692,0.13746292889118195,-0.2472507506608963,-0.199539452791214,-9.216656684875488
1745668976.4329634,-0.07763205468654633,-0.06182221695780754,0.12621262669563293,0.5472456812858582,-0.45635539293289185,-8.207256317138672
1745668976.4368136,-0.1760905683040619,-0.08007055521011353,0.12481740862131119,0.34302908182144165,-1.2716890573501587,-11.015762329101562
1745668976.440771,-0.18027617037296295,-0.03978747874498367,0.12513116002082825,-0.2822338044643402,-0.19464251399040222,-11.348188400268555
1745668976.4444516,-0.1727050095796585,-0.02080533839762211,0.1253025233745575,0.2540847659111023,-0.1300733983516693,-8.181377410888672
1745668976.4719076,-0.19821453094482422,-0.07426638901233673,0.12557336688041687,0.6398798823356628,0.24329261481761932,-7.9888739585876465
1745668976.47548,-0.15211309492588043,-0.08917737007141113,0.1312602013349533,0.7807539105415344,0.34746184945106506,-11.456355094909668
1745668976.4766724,-0.07180824875831604,-0.04339461401104927,0.12887170910835266,-0.03629450127482414,1.5187240839004517,-11.893893241882324
1745668976.4791894,-0.043928276747465134,-0.03161659464240074,0.12562328577041626,-0.2985987067222595,0.6065365076065063,-8.351656913757324
1745668976.4814107,0.003485295921564102,-0.07412916421890259,0.12667056918144226,0.392086923122406,0.5740095376968384,-7.116724967956543
1745668976.5204015,-0.035289645195007324,-0.08743253350257874,0.1153349056839943,0.27550169825553894,1.0000243186950684,-10.944055557250977
1745668976.5205805,0.018847445026040077,-0.044036827981472015,0.09916569292545319,0.1452232152223587,0.3532524108886719,-12.30557632446289
1745668976.520639,0.009759272448718548,-0.023679878562688828,0.08867860585451126,0.3458769917488098,0.5669623613357544,-8.245139122009277
1745668976.5208821,-0.04449041932821274,-0.07841457426548004,0.08378011733293533,0.9865977168083191,-0.5615388751029968,-7.480288505554199
1745668976.5616715,-0.05552368238568306,-0.10024885088205338,0.08553580194711685,0.7060784101486206,-0.3606153428554535,-11.329218864440918
1745668976.567922,0.05887512117624283,-0.05134829878807068,0.024611741304397583,0.5324475765228271,0.9566170573234558,-7.678088188171387
1745668976.5705905,0.058443814516067505,-0.05783752351999283,0.024943700060248375,0.6429895758628845,0.13564804196357727,-10.7722749710083
1745668976.5741239,0.1079755574464798,-0.0014280421892181039,0.027012884616851807,0.22006972134113312,0.052911072969436646,-11.758260726928711
1745668976.6035798,0.0841641053557396,0.0022583112586289644,0.025224149227142334,0.5197120904922485,-0.3837334215641022,-8.931559562683105
1745668976.6073887,0.07963968813419342,-0.025284865871071815,0.02341528795659542,0.495718777179718,-0.03373478725552559,-7.905160427093506
1745668976.6121624,0.01755915768444538,-0.027177518233656883,0.009580766782164574,0.6697722673416138,-0.014364886097609997,-10.617342948913574
1745668976.6146936,0.03753256797790527,-0.00035952459438703954,-0.0064852312207221985,0.4580973982810974,-0.05889812856912613,-11.549057006835938
1745668976.6176755,-0.012572959065437317,0.018170878291130066,-0.019024977460503578,0.39109769463539124,0.06902102380990982,-9.133033752441406
1745668976.6484332,-0.03922520950436592,-0.017699316143989563,-0.020105771720409393,0.6472463607788086,-0.4746463894844055,-8.360518455505371
1745668976.650405,-0.02060631476342678,-0.010889457538723946,-0.020998472347855568,0.3870043456554413,0.3876076340675354,-10.219563484191895
1745668976.65167,-0.03927915170788765,0.018423058092594147,-0.022094126790761948,0.41694608330726624,0.03614276647567749,-11.298250198364258
1745668976.6538103,0.05106668919324875,0.027269642800092697,-0.02169387973845005,0.23048348724842072,1.0097507238388062,-9.190354347229004
1745668976.6934597,0.04395289346575737,0.006099326070398092,-0.02433602139353752,0.5407493710517883,0.8181166648864746,-8.637324333190918
1745668976.6962762,0.1235281229019165,0.0044311098754405975,-0.03260773420333862,0.3162137567996979,1.0013983249664307,-10.447088241577148
1745668976.7027326,0.14639173448085785,0.03135766088962555,-0.04165143519639969,0.3662775754928589,0.8859533071517944,-10.890458106994629
1745668976.7066166,0.15478764474391937,0.030047032982110977,-0.048707932233810425,0.4039042592048645,0.2136498987674713,-9.319766998291016
1745668976.7328963,0.1553088277578354,0.02264188602566719,-0.05424017459154129,0.3366219103336334,0.24849307537078857,-8.801236152648926
1745668976.7350233,0.13804006576538086,0.04914674907922745,-0.1239643469452858,0.7326458096504211,-0.5547481179237366,-9.661360740661621
1745668976.7398212,0.12113727629184723,0.05046328157186508,-0.12953579425811768,0.6100057363510132,-0.2583392560482025,-9.926722526550293
1745668976.7431884,0.105769082903862,0.050419677048921585,-0.13490113615989685,0.6625340580940247,-0.24235498905181885,-9.944482803344727
1745668976.7440546,0.09533296525478363,0.05261718109250069,-0.14002200961112976,0.4432596266269684,-0.14342661201953888,-9.620468139648438
1745668976.7786007,0.09893679618835449,0.052709031850099564,-0.14349636435508728,0.5988167524337769,0.11361157894134521,-9.333971977233887
1745668976.7831554,0.08059630542993546,0.04411955550312996,-0.14792171120643616,0.43665799498558044,0.02925271913409233,-9.926994323730469
1745668976.786507,0.13319984078407288,0.055656950920820236,-0.14974750578403473,0.32838279008865356,0.20847809314727783,-10.1004638671875
1745668976.7905753,0.13124102354049683,0.04955863207578659,-0.15211503207683563,0.5509610772132874,0.16870519518852234,-9.524858474731445
1745668976.819104,0.1656673401594162,0.051394302397966385,-0.15217289328575134,0.5063586235046387,0.039493121206760406,-9.478228569030762
1745668976.8234982,0.1731787919998169,0.041311413049697876,-0.15332917869091034,0.7345927357673645,-0.04162922501564026,-9.851366996765137
1745668976.8258142,0.17088034749031067,0.046118926256895065,-0.15496860444545746,0.4759891629219055,-0.09786047041416168,-10.102556228637695
1745668976.8275268,0.17515906691551208,0.05009875446557999,-0.15697506070137024,0.6067032814025879,-0.3647289276123047,-9.648152351379395
1745668976.829327,0.15043766796588898,0.033854324370622635,-0.1608416736125946,0.5884952545166016,-0.38438910245895386,-9.446830749511719
1745668976.8611698,0.14091750979423523,0.03708527237176895,-0.16503377258777618,0.6250861883163452,-0.28175002336502075,-9.833166122436523
1745668976.8647072,0.11311310529708862,0.032523252069950104,-0.1702529340982437,0.6200041770935059,-0.6145215034484863,-10.082497596740723
1745668976.8678584,0.11725223064422607,0.04082708805799484,-0.1757979691028595,0.523144543170929,-0.13556843996047974,-9.496726036071777
1745668976.8705926,0.08656767755746841,0.030278915539383888,-0.17563453316688538,0.7017108201980591,-0.454141765832901,-9.442228317260742
1745668976.903278,0.11067044734954834,0.029102647677063942,-0.17812934517860413,0.36341458559036255,-0.17663559317588806,-9.881319046020508
1745668976.9072936,0.11060547828674316,0.03460919111967087,-0.17567838728427887,0.5773053169250488,-0.1095457449555397,-9.917337417602539
1745668976.9122128,0.1010541096329689,-0.04878069832921028,-0.1273116171360016,0.21865221858024597,-0.1711466759443283,-10.64594841003418
1745668976.9192493,0.1289275586605072,-0.023083463311195374,-0.130579873919487,0.10011772811412811,0.5857886672019958,-10.462065696716309
1745668976.9478042,0.06726275384426117,-0.027680551633238792,-0.13522817194461823,0.03512805700302124,-0.7383102178573608,-9.395730018615723
1745668976.9511447,0.1211850643157959,-0.055787812918424606,-0.13286881148815155,0.2093527615070343,-0.26678505539894104,-8.61559772491455
1745668976.9550638,0.01945391669869423,-0.05793650075793266,-0.13104668259620667,0.23165316879749298,-0.9048858880996704,-10.201240539550781
1745668976.957422,0.074226513504982,-0.03128039091825485,-0.12472875416278839,-0.014549029059708118,-0.6752368211746216,-10.486796379089355
1745668976.9669888,0.0065063126385211945,-0.04039348289370537,-0.11981910467147827,0.5074604749679565,-0.6578603386878967,-8.971080780029297
1745668976.9918072,0.023664340376853943,-0.061009448021650314,-0.11555198580026627,0.2136349231004715,-0.4894863963127136,-9.222186088562012
1745668976.9932482,0.010686367750167847,-0.062106020748615265,-0.11208238452672958,0.2933654487133026,-0.18564745783805847,-10.490787506103516
1745668976.9956331,0.04028869420289993,-0.0477692149579525,-0.11158931255340576,-0.07040481269359589,-0.23048067092895508,-10.565296173095703
1745668976.9970107,0.040848713368177414,-0.04572228714823723,-0.11591315269470215,-0.13500767946243286,0.09192910045385361,-8.784871101379395
1745668977.0363877,0.024645552039146423,-0.06749074906110764,-0.11033852398395538,0.022931497544050217,-0.7459744215011597,-8.911413192749023
1745668977.0403411,0.05145750194787979,-0.049621425569057465,-0.0982762947678566,-0.000732982181943953,-0.2496115267276764,-10.039543151855469
1745668977.0421112,0.016104891896247864,-0.042145658284425735,-0.08358355611562729,0.8308128118515015,-0.9915399551391602,-10.613116264343262
1745668977.04369,0.06303995102643967,-0.08047173172235489,-0.08270542323589325,0.8881168365478516,0.32999926805496216,-9.865486145019531
1745668977.0766199,0.026609349995851517,-0.07215002179145813,-0.09756243228912354,-0.006275245454162359,-0.0009287476423196495,-10.252419471740723
1745668977.0783925,0.04057919606566429,-0.07063786685466766,-0.10758749395608902,0.017202895134687424,0.3265881836414337,-9.165372848510742
1745668977.0805852,-0.012202690355479717,-0.07264972478151321,-0.05822388082742691,0.3321363627910614,-0.9513986706733704,-9.418810844421387
1745668977.0868056,-0.04505302757024765,-0.04699038714170456,-0.05550200864672661,0.419109970331192,-1.5770814418792725,-11.074178695678711
1745668977.0869515,-0.08416207134723663,-0.020990610122680664,-0.03887214884161949,0.4007406234741211,-1.3322206735610962,-9.982061386108398
1745668977.1214204,-0.10031523555517197,-0.04077066108584404,-0.01958891749382019,0.41258859634399414,-0.9597285985946655,-8.67494010925293
1745668977.125028,-0.10961172729730606,-0.040078055113554,-0.007901284843683243,0.4176636338233948,-0.38675621151924133,-9.645805358886719
1745668977.1279085,-0.06921406090259552,-0.023794585838913918,-0.0018019520211964846,0.3326961398124695,0.4477863907814026,-10.69795036315918
1745668977.1314335,-0.035042084753513336,-0.011050669476389885,4.595676364260726e-05,0.4738786220550537,0.5880097150802612,-9.997820854187012
1745668977.1614878,0.008414876647293568,-0.027351856231689453,-0.0008256429573521018,0.4489530920982361,0.5852600336074829,-9.160926818847656
1745668977.1636066,0.0030501154251396656,-0.01881592907011509,0.0022023089695721865,0.3622514009475708,0.09248442947864532,-9.834815979003906
1745668977.1656046,0.022473527118563652,-0.00812090840190649,0.008016563951969147,0.5660077929496765,-0.33848994970321655,-10.200030326843262
1745668977.1673255,0.005449413321912289,0.0013249641051515937,0.016441810876131058,0.7414674758911133,-0.15739759802818298,-9.704962730407715
1745668977.1694148,-0.00028852076502516866,-0.015538612380623817,0.021728232502937317,0.9837832450866699,-0.39449775218963623,-9.894765853881836
1745668977.2074842,0.007534738630056381,-0.006070392671972513,0.02659076824784279,0.7452790141105652,0.17086151242256165,-10.194656372070312
1745668977.2110944,0.01214639376848936,0.0008211739477701485,0.03243722394108772,0.5857807397842407,-0.2751961052417755,-10.004922866821289
1745668977.214172,0.022507397457957268,-0.002261703135445714,0.03504493832588196,0.36606237292289734,-0.0023268789518624544,-9.447758674621582
1745668977.2163358,0.023177124559879303,0.0031083240173757076,0.043431736528873444,0.3237265646457672,-0.5762009024620056,-9.826573371887207
1745668977.2490673,0.0319155752658844,0.009667111560702324,0.052572716027498245,-0.016561191529035568,-0.2361193150281906,-10.061775207519531
1745668977.2525733,0.023594241589307785,0.02940882183611393,0.06040048599243164,-0.008958453312516212,-0.6801553964614868,-9.542017936706543
1745668977.255105,0.009100603871047497,0.02032739296555519,0.06610508263111115,0.49129486083984375,-0.8008931279182434,-9.236724853515625
1745668977.2579463,-0.06703697144985199,0.03217416629195213,0.12702329456806183,0.5051895380020142,-0.5723584890365601,-9.452077865600586
1745668977.2933323,-0.06582492589950562,0.047627344727516174,0.12593480944633484,0.13967958092689514,-0.38392966985702515,-10.301168441772461
1745668977.2961261,-0.0913502424955368,0.06070052832365036,0.12586984038352966,0.10804598033428192,-0.44350844621658325,-10.042535781860352
1745668977.297053,-0.1056753620505333,0.04357932135462761,0.12633447349071503,0.027792852371931076,-0.6133013963699341,-9.118512153625488
1745668977.2990384,-0.07609492540359497,0.054821111261844635,0.13455134630203247,0.11213414371013641,-0.27515268325805664,-9.246149063110352
1745668977.3011246,-0.11272960901260376,0.05718373507261276,0.1382514238357544,0.11577079445123672,-0.4226674437522888,-10.264013290405273
